instruct_resp_simon.keys,instruct_resp_simon.corr,instruct_resp_simon.rt,trial_resp_simon.keys,trial_resp_simon.corr,trial_resp_simon.rt,kerr,target_onset,target_color,target_pos,target_file,target_resp,trials_train_simon.thisRepN,trials_train_simon.thisTrialN,trials_train_simon.thisN,trials_train_simon.thisIndex,trials_train_simon.ran,odd_target_resp,odd_target_file,even_target_file,even_target_resp,target_side,participant,session,date,expName,psychopyVersion,OS,frameRate,train_block_note_resp.keys,train_block_note_resp.rt,blocks_train.thisRepN,blocks_train.thisTrialN,blocks_train.thisN,blocks_train.thisIndex,blocks_train.ran,instruct_resp_timing.keys,instruct_resp_timing.corr,instruct_resp_timing.rt,trial_resp_timing.keys,trial_resp_timing.rt,trials_train_timing.thisRepN,trials_train_timing.thisTrialN,trials_train_timing.thisN,trials_train_timing.thisIndex,trials_train_timing.ran,instruct_resp.keys,instruct_resp.corr,instruct_resp.rt,trial_resp.keys,trial_resp.corr,trial_resp.rt,trial_num,too_slow,too_soon,trials.thisRepN,trials.thisTrialN,trials.thisN,trials.thisIndex,trials.ran,block_note_resp.keys,block_note_resp.rt,blocks.thisRepN,blocks.thisTrialN,blocks.thisN,blocks.thisIndex,blocks.ran
space,0,139.614,p,0,1.185,1,0.14653496,#a3d0fb,,left_blue.png,w,0,0,0,3,1,w,left_blue.png,left_orange.png,q,right,5d4a41890e604c00011ade8b,001,2021-08-09_09h44.54.572,arrow_simon_norep,2021.1.2,Win32,60.0240096,,,,,,,,,,,,,,,,,,,,,,,,,,,,,,,,,,,,,,
,,,q,1,0.833,0,0.04045248,#f3af84,,left_orange.png,q,0,1,1,2,1,w,left_blue.png,left_orange.png,q,left,5d4a41890e604c00011ade8b,001,2021-08-09_09h44.54.572,arrow_simon_norep,2021.1.2,Win32,60.0240096,,,,,,,,,,,,,,,,,,,,,,,,,,,,,,,,,,,,,,
,,,o,1,0.85,0,0.691071879,#a3d0fb,,right_blue.png,o,0,2,2,0,1,o,right_blue.png,right_orange.png,p,left,5d4a41890e604c00011ade8b,001,2021-08-09_09h44.54.572,arrow_simon_norep,2021.1.2,Win32,60.0240096,,,,,,,,,,,,,,,,,,,,,,,,,,,,,,,,,,,,,,
,,,o,0,0.944,1,0.125023965,#f3af84,,left_orange.png,q,0,3,3,3,1,w,left_blue.png,left_orange.png,q,right,5d4a41890e604c00011ade8b,001,2021-08-09_09h44.54.572,arrow_simon_norep,2021.1.2,Win32,60.0240096,,,,,,,,,,,,,,,,,,,,,,,,,,,,,,,,,,,,,,
,,,q,0,1.28,1,0.73092058,#a3d0fb,,right_blue.png,o,1,0,4,0,1,o,right_blue.png,right_orange.png,p,left,5d4a41890e604c00011ade8b,001,2021-08-09_09h44.54.572,arrow_simon_norep,2021.1.2,Win32,60.0240096,,,,,,,,,,,,,,,,,,,,,,,,,,,,,,,,,,,,,,
,,,w,0,1.311,1,0.432684751,#f3af84,,right_orange.png,p,1,1,5,0,1,o,right_blue.png,right_orange.png,p,left,5d4a41890e604c00011ade8b,001,2021-08-09_09h44.54.572,arrow_simon_norep,2021.1.2,Win32,60.0240096,,,,,,,,,,,,,,,,,,,,,,,,,,,,,,,,,,,,,,
,,,w,0,1.595,1,0.598266375,#a3d0fb,,right_blue.png,o,1,2,6,0,1,o,right_blue.png,right_orange.png,p,left,5d4a41890e604c00011ade8b,001,2021-08-09_09h44.54.572,arrow_simon_norep,2021.1.2,Win32,60.0240096,,,,,,,,,,,,,,,,,,,,,,,,,,,,,,,,,,,,,,
,,,q,1,1.355,0,0.592499674,#f3af84,,left_orange.png,q,1,3,7,2,1,w,left_blue.png,left_orange.png,q,left,5d4a41890e604c00011ade8b,001,2021-08-09_09h44.54.572,arrow_simon_norep,2021.1.2,Win32,60.0240096,,,,,,,,,,,,,,,,,,,,,,,,,,,,,,,,,,,,,,
,,,q,0,0.938,1,0.276216901,#a3d0fb,,left_blue.png,w,2,0,8,2,1,w,left_blue.png,left_orange.png,q,left,5d4a41890e604c00011ade8b,001,2021-08-09_09h44.54.572,arrow_simon_norep,2021.1.2,Win32,60.0240096,,,,,,,,,,,,,,,,,,,,,,,,,,,,,,,,,,,,,,
,,,p,1,1.058,0,0.314354076,#f3af84,,right_orange.png,p,2,1,9,1,1,o,right_blue.png,right_orange.png,p,right,5d4a41890e604c00011ade8b,001,2021-08-09_09h44.54.572,arrow_simon_norep,2021.1.2,Win32,60.0240096,,,,,,,,,,,,,,,,,,,,,,,,,,,,,,,,,,,,,,
,,,q,0,0.734,1,0.214921555,#a3d0fb,,left_blue.png,w,2,2,10,2,1,w,left_blue.png,left_orange.png,q,left,5d4a41890e604c00011ade8b,001,2021-08-09_09h44.54.572,arrow_simon_norep,2021.1.2,Win32,60.0240096,,,,,,,,,,,,,,,,,,,,,,,,,,,,,,,,,,,,,,
,,,o,0,1.515,1,0.84175143,#f3af84,,left_orange.png,q,2,3,11,3,1,w,left_blue.png,left_orange.png,q,right,5d4a41890e604c00011ade8b,001,2021-08-09_09h44.54.572,arrow_simon_norep,2021.1.2,Win32,60.0240096,,,,,,,,,,,,,,,,,,,,,,,,,,,,,,,,,,,,,,
,,,o,1,1.638,0,0.465889105,#a3d0fb,,right_blue.png,o,3,0,12,1,1,o,right_blue.png,right_orange.png,p,right,5d4a41890e604c00011ade8b,001,2021-08-09_09h44.54.572,arrow_simon_norep,2021.1.2,Win32,60.0240096,,,,,,,,,,,,,,,,,,,,,,,,,,,,,,,,,,,,,,
,,,p,0,1.297,1,0.530152297,#f3af84,,left_orange.png,q,3,1,13,3,1,w,left_blue.png,left_orange.png,q,right,5d4a41890e604c00011ade8b,001,2021-08-09_09h44.54.572,arrow_simon_norep,2021.1.2,Win32,60.0240096,,,,,,,,,,,,,,,,,,,,,,,,,,,,,,,,,,,,,,
,,,q,0,1.247,1,0.439358234,#a3d0fb,,left_blue.png,w,3,2,14,2,1,w,left_blue.png,left_orange.png,q,left,5d4a41890e604c00011ade8b,001,2021-08-09_09h44.54.572,arrow_simon_norep,2021.1.2,Win32,60.0240096,,,,,,,,,,,,,,,,,,,,,,,,,,,,,,,,,,,,,,
,,,p,1,1.084,0,0.078693559,#f3af84,,right_orange.png,p,3,3,15,1,1,o,right_blue.png,right_orange.png,p,right,5d4a41890e604c00011ade8b,001,2021-08-09_09h44.54.572,arrow_simon_norep,2021.1.2,Win32,60.0240096,,,,,,,,,,,,,,,,,,,,,,,,,,,,,,,,,,,,,,
,,,w,0,1.78,1,0.623727935,#a3d0fb,,right_blue.png,o,4,0,16,0,1,o,right_blue.png,right_orange.png,p,left,5d4a41890e604c00011ade8b,001,2021-08-09_09h44.54.572,arrow_simon_norep,2021.1.2,Win32,60.0240096,,,,,,,,,,,,,,,,,,,,,,,,,,,,,,,,,,,,,,
,,,q,0,1.186,1,0.556903172,#f3af84,,right_orange.png,p,4,1,17,0,1,o,right_blue.png,right_orange.png,p,left,5d4a41890e604c00011ade8b,001,2021-08-09_09h44.54.572,arrow_simon_norep,2021.1.2,Win32,60.0240096,,,,,,,,,,,,,,,,,,,,,,,,,,,,,,,,,,,,,,
,,,p,0,1.669,1,0.628953382,#a3d0fb,,right_blue.png,o,4,2,18,1,1,o,right_blue.png,right_orange.png,p,right,5d4a41890e604c00011ade8b,001,2021-08-09_09h44.54.572,arrow_simon_norep,2021.1.2,Win32,60.0240096,,,,,,,,,,,,,,,,,,,,,,,,,,,,,,,,,,,,,,
,,,o,0,2.007,1,0.741981059,#f3af84,,left_orange.png,q,4,3,19,3,1,w,left_blue.png,left_orange.png,q,right,5d4a41890e604c00011ade8b,001,2021-08-09_09h44.54.572,arrow_simon_norep,2021.1.2,Win32,60.0240096,,,,,,,,,,,,,,,,,,,,,,,,,,,,,,,,,,,,,,
,,,q,0,1.512,1,0.068391087,#a3d0fb,,left_blue.png,w,5,0,20,3,1,w,left_blue.png,left_orange.png,q,right,5d4a41890e604c00011ade8b,001,2021-08-09_09h44.54.572,arrow_simon_norep,2021.1.2,Win32,60.0240096,,,,,,,,,,,,,,,,,,,,,,,,,,,,,,,,,,,,,,
,,,q,1,2.368,0,0.738747731,#f3af84,,left_orange.png,q,5,1,21,2,1,w,left_blue.png,left_orange.png,q,left,5d4a41890e604c00011ade8b,001,2021-08-09_09h44.54.572,arrow_simon_norep,2021.1.2,Win32,60.0240096,,,,,,,,,,,,,,,,,,,,,,,,,,,,,,,,,,,,,,
,,,w,0,1.035,1,0.010867384,#a3d0fb,,right_blue.png,o,5,2,22,0,1,o,right_blue.png,right_orange.png,p,left,5d4a41890e604c00011ade8b,001,2021-08-09_09h44.54.572,arrow_simon_norep,2021.1.2,Win32,60.0240096,,,,,,,,,,,,,,,,,,,,,,,,,,,,,,,,,,,,,,
,,,q,1,1.21,0,0.25009003,#f3af84,,left_orange.png,q,5,3,23,2,1,w,left_blue.png,left_orange.png,q,left,5d4a41890e604c00011ade8b,001,2021-08-09_09h44.54.572,arrow_simon_norep,2021.1.2,Win32,60.0240096,,,,,,,,,,,,,,,,,,,,,,,,,,,,,,,,,,,,,,
,,,p,0,1.671,1,0.924051611,#a3d0fb,,right_blue.png,o,6,0,24,1,1,o,right_blue.png,right_orange.png,p,right,5d4a41890e604c00011ade8b,001,2021-08-09_09h44.54.572,arrow_simon_norep,2021.1.2,Win32,60.0240096,,,,,,,,,,,,,,,,,,,,,,,,,,,,,,,,,,,,,,
,,,q,1,1.1,0,0.337156674,#f3af84,,left_orange.png,q,6,1,25,2,1,w,left_blue.png,left_orange.png,q,left,5d4a41890e604c00011ade8b,001,2021-08-09_09h44.54.572,arrow_simon_norep,2021.1.2,Win32,60.0240096,,,,,,,,,,,,,,,,,,,,,,,,,,,,,,,,,,,,,,
,,,w,0,1.232,1,0.259486595,#a3d0fb,,right_blue.png,o,6,2,26,0,1,o,right_blue.png,right_orange.png,p,left,5d4a41890e604c00011ade8b,001,2021-08-09_09h44.54.572,arrow_simon_norep,2021.1.2,Win32,60.0240096,,,,,,,,,,,,,,,,,,,,,,,,,,,,,,,,,,,,,,
,,,q,1,1.136,0,0.370888161,#f3af84,,left_orange.png,q,6,3,27,2,1,w,left_blue.png,left_orange.png,q,left,5d4a41890e604c00011ade8b,001,2021-08-09_09h44.54.572,arrow_simon_norep,2021.1.2,Win32,60.0240096,,,,,,,,,,,,,,,,,,,,,,,,,,,,,,,,,,,,,,
,,,o,0,0.845,1,0.240855369,#a3d0fb,,left_blue.png,w,7,0,28,3,1,w,left_blue.png,left_orange.png,q,right,5d4a41890e604c00011ade8b,001,2021-08-09_09h44.54.572,arrow_simon_norep,2021.1.2,Win32,60.0240096,,,,,,,,,,,,,,,,,,,,,,,,,,,,,,,,,,,,,,
,,,q,1,2.155,0,0.609872163,#f3af84,,left_orange.png,q,7,1,29,2,1,w,left_blue.png,left_orange.png,q,left,5d4a41890e604c00011ade8b,001,2021-08-09_09h44.54.572,arrow_simon_norep,2021.1.2,Win32,60.0240096,,,,,,,,,,,,,,,,,,,,,,,,,,,,,,,,,,,,,,
,,,o,1,1.086,0,0.087665425,#a3d0fb,,right_blue.png,o,7,2,30,1,1,o,right_blue.png,right_orange.png,p,right,5d4a41890e604c00011ade8b,001,2021-08-09_09h44.54.572,arrow_simon_norep,2021.1.2,Win32,60.0240096,,,,,,,,,,,,,,,,,,,,,,,,,,,,,,,,,,,,,,
,,,q,1,1.781,0,0.309455586,#f3af84,,left_orange.png,q,7,3,31,3,1,w,left_blue.png,left_orange.png,q,right,5d4a41890e604c00011ade8b,001,2021-08-09_09h44.54.572,arrow_simon_norep,2021.1.2,Win32,60.0240096,,,,,,,,,,,,,,,,,,,,,,,,,,,,,,,,,,,,,,
,,,o,1,1.494,0,0.204162109,#a3d0fb,,right_blue.png,o,8,0,32,0,1,o,right_blue.png,right_orange.png,p,left,5d4a41890e604c00011ade8b,001,2021-08-09_09h44.54.572,arrow_simon_norep,2021.1.2,Win32,60.0240096,,,,,,,,,,,,,,,,,,,,,,,,,,,,,,,,,,,,,,
,,,p,1,1.3,0,0.030787115,#f3af84,,right_orange.png,p,8,1,33,1,1,o,right_blue.png,right_orange.png,p,right,5d4a41890e604c00011ade8b,001,2021-08-09_09h44.54.572,arrow_simon_norep,2021.1.2,Win32,60.0240096,,,,,,,,,,,,,,,,,,,,,,,,,,,,,,,,,,,,,,
,,,w,1,1.81,0,0.607831224,#a3d0fb,,left_blue.png,w,8,2,34,3,1,w,left_blue.png,left_orange.png,q,right,5d4a41890e604c00011ade8b,001,2021-08-09_09h44.54.572,arrow_simon_norep,2021.1.2,Win32,60.0240096,,,,,,,,,,,,,,,,,,,,,,,,,,,,,,,,,,,,,,
,,,q,1,1.163,0,0.281803191,#f3af84,,left_orange.png,q,8,3,35,2,1,w,left_blue.png,left_orange.png,q,left,5d4a41890e604c00011ade8b,001,2021-08-09_09h44.54.572,arrow_simon_norep,2021.1.2,Win32,60.0240096,,,,,,,,,,,,,,,,,,,,,,,,,,,,,,,,,,,,,,
,,,o,1,1.148,0,0.239488891,#a3d0fb,,right_blue.png,o,9,0,36,1,1,o,right_blue.png,right_orange.png,p,right,5d4a41890e604c00011ade8b,001,2021-08-09_09h44.54.572,arrow_simon_norep,2021.1.2,Win32,60.0240096,,,,,,,,,,,,,,,,,,,,,,,,,,,,,,,,,,,,,,
,,,q,1,0.992,0,0.050189705,#f3af84,,left_orange.png,q,9,1,37,2,1,w,left_blue.png,left_orange.png,q,left,5d4a41890e604c00011ade8b,001,2021-08-09_09h44.54.572,arrow_simon_norep,2021.1.2,Win32,60.0240096,,,,,,,,,,,,,,,,,,,,,,,,,,,,,,,,,,,,,,
,,,p,0,1.477,1,0.733680647,#a3d0fb,,right_blue.png,o,9,2,38,1,1,o,right_blue.png,right_orange.png,p,right,5d4a41890e604c00011ade8b,001,2021-08-09_09h44.54.572,arrow_simon_norep,2021.1.2,Win32,60.0240096,,,,,,,,,,,,,,,,,,,,,,,,,,,,,,,,,,,,,,
,,,p,0,1.202,1,0.121103261,#f3af84,,left_orange.png,q,9,3,39,3,1,w,left_blue.png,left_orange.png,q,right,5d4a41890e604c00011ade8b,001,2021-08-09_09h44.54.572,arrow_simon_norep,2021.1.2,Win32,60.0240096,,,,,,,,,,,,,,,,,,,,,,,,,,,,,,,,,,,,,,
,,,w,0,2.303,1,0.973526019,#a3d0fb,,right_blue.png,o,10,0,40,0,1,o,right_blue.png,right_orange.png,p,left,5d4a41890e604c00011ade8b,001,2021-08-09_09h44.54.572,arrow_simon_norep,2021.1.2,Win32,60.0240096,,,,,,,,,,,,,,,,,,,,,,,,,,,,,,,,,,,,,,
,,,q,1,1.879,0,0.488586909,#f3af84,,left_orange.png,q,10,1,41,2,1,w,left_blue.png,left_orange.png,q,left,5d4a41890e604c00011ade8b,001,2021-08-09_09h44.54.572,arrow_simon_norep,2021.1.2,Win32,60.0240096,,,,,,,,,,,,,,,,,,,,,,,,,,,,,,,,,,,,,,
,,,w,1,1.149,0,0.137798514,#a3d0fb,,left_blue.png,w,10,2,42,2,1,w,left_blue.png,left_orange.png,q,left,5d4a41890e604c00011ade8b,001,2021-08-09_09h44.54.572,arrow_simon_norep,2021.1.2,Win32,60.0240096,,,,,,,,,,,,,,,,,,,,,,,,,,,,,,,,,,,,,,
,,,q,1,2.705,0,0.973807166,#f3af84,,left_orange.png,q,10,3,43,3,1,w,left_blue.png,left_orange.png,q,right,5d4a41890e604c00011ade8b,001,2021-08-09_09h44.54.572,arrow_simon_norep,2021.1.2,Win32,60.0240096,,,,,,,,,,,,,,,,,,,,,,,,,,,,,,,,,,,,,,
,,,o,1,1.867,0,0.659562415,#a3d0fb,,right_blue.png,o,11,0,44,1,1,o,right_blue.png,right_orange.png,p,right,5d4a41890e604c00011ade8b,001,2021-08-09_09h44.54.572,arrow_simon_norep,2021.1.2,Win32,60.0240096,,,,,,,,,,,,,,,,,,,,,,,,,,,,,,,,,,,,,,
,,,p,1,1.844,0,0.235943588,#f3af84,,right_orange.png,p,11,1,45,1,1,o,right_blue.png,right_orange.png,p,right,5d4a41890e604c00011ade8b,001,2021-08-09_09h44.54.572,arrow_simon_norep,2021.1.2,Win32,60.0240096,,,,,,,,,,,,,,,,,,,,,,,,,,,,,,,,,,,,,,
,,,w,0,2.327,1,0.919760313,#a3d0fb,,right_blue.png,o,11,2,46,1,1,o,right_blue.png,right_orange.png,p,right,5d4a41890e604c00011ade8b,001,2021-08-09_09h44.54.572,arrow_simon_norep,2021.1.2,Win32,60.0240096,,,,,,,,,,,,,,,,,,,,,,,,,,,,,,,,,,,,,,
,,,p,1,2.724,0,0.932083103,#f3af84,,right_orange.png,p,11,3,47,0,1,o,right_blue.png,right_orange.png,p,left,5d4a41890e604c00011ade8b,001,2021-08-09_09h44.54.572,arrow_simon_norep,2021.1.2,Win32,60.0240096,,,,,,,,,,,,,,,,,,,,,,,,,,,,,,,,,,,,,,
,,,w,1,1.691,0,0.565902361,#a3d0fb,,left_blue.png,w,12,0,48,3,1,w,left_blue.png,left_orange.png,q,right,5d4a41890e604c00011ade8b,001,2021-08-09_09h44.54.572,arrow_simon_norep,2021.1.2,Win32,60.0240096,,,,,,,,,,,,,,,,,,,,,,,,,,,,,,,,,,,,,,
,,,p,1,1.708,0,0.616086418,#f3af84,,right_orange.png,p,12,1,49,1,1,o,right_blue.png,right_orange.png,p,right,5d4a41890e604c00011ade8b,001,2021-08-09_09h44.54.572,arrow_simon_norep,2021.1.2,Win32,60.0240096,,,,,,,,,,,,,,,,,,,,,,,,,,,,,,,,,,,,,,
,,,w,0,1.608,1,0.777447438,#a3d0fb,,right_blue.png,o,12,2,50,0,1,o,right_blue.png,right_orange.png,p,left,5d4a41890e604c00011ade8b,001,2021-08-09_09h44.54.572,arrow_simon_norep,2021.1.2,Win32,60.0240096,,,,,,,,,,,,,,,,,,,,,,,,,,,,,,,,,,,,,,
,,,q,1,1.377,0,0.286510376,#f3af84,,left_orange.png,q,12,3,51,2,1,w,left_blue.png,left_orange.png,q,left,5d4a41890e604c00011ade8b,001,2021-08-09_09h44.54.572,arrow_simon_norep,2021.1.2,Win32,60.0240096,,,,,,,,,,,,,,,,,,,,,,,,,,,,,,,,,,,,,,
,,,o,1,1.437,0,0.373765249,#a3d0fb,,right_blue.png,o,13,0,52,1,1,o,right_blue.png,right_orange.png,p,right,5d4a41890e604c00011ade8b,001,2021-08-09_09h44.54.572,arrow_simon_norep,2021.1.2,Win32,60.0240096,,,,,,,,,,,,,,,,,,,,,,,,,,,,,,,,,,,,,,
,,,p,1,2.226,0,0.976594495,#f3af84,,right_orange.png,p,13,1,53,0,1,o,right_blue.png,right_orange.png,p,left,5d4a41890e604c00011ade8b,001,2021-08-09_09h44.54.572,arrow_simon_norep,2021.1.2,Win32,60.0240096,,,,,,,,,,,,,,,,,,,,,,,,,,,,,,,,,,,,,,
,,,o,1,2.07,0,0.74072334,#a3d0fb,,right_blue.png,o,13,2,54,0,1,o,right_blue.png,right_orange.png,p,left,5d4a41890e604c00011ade8b,001,2021-08-09_09h44.54.572,arrow_simon_norep,2021.1.2,Win32,60.0240096,,,,,,,,,,,,,,,,,,,,,,,,,,,,,,,,,,,,,,
,,,q,1,1.897,0,0.78548205,#f3af84,,left_orange.png,q,13,3,55,3,1,w,left_blue.png,left_orange.png,q,right,5d4a41890e604c00011ade8b,001,2021-08-09_09h44.54.572,arrow_simon_norep,2021.1.2,Win32,60.0240096,,,,,,,,,,,,,,,,,,,,,,,,,,,,,,,,,,,,,,
,,,o,1,1.187,0,0.083273989,#a3d0fb,,right_blue.png,o,14,0,56,1,1,o,right_blue.png,right_orange.png,p,right,5d4a41890e604c00011ade8b,001,2021-08-09_09h44.54.572,arrow_simon_norep,2021.1.2,Win32,60.0240096,,,,,,,,,,,,,,,,,,,,,,,,,,,,,,,,,,,,,,
,,,q,1,1.934,0,0.922799442,#f3af84,,left_orange.png,q,14,1,57,3,1,w,left_blue.png,left_orange.png,q,right,5d4a41890e604c00011ade8b,001,2021-08-09_09h44.54.572,arrow_simon_norep,2021.1.2,Win32,60.0240096,,,,,,,,,,,,,,,,,,,,,,,,,,,,,,,,,,,,,,
,,,o,1,2.078,0,0.764149232,#a3d0fb,,right_blue.png,o,14,2,58,0,1,o,right_blue.png,right_orange.png,p,left,5d4a41890e604c00011ade8b,001,2021-08-09_09h44.54.572,arrow_simon_norep,2021.1.2,Win32,60.0240096,,,,,,,,,,,,,,,,,,,,,,,,,,,,,,,,,,,,,,
,,,q,1,1.508,0,0.598226959,#f3af84,,left_orange.png,q,14,3,59,3,1,w,left_blue.png,left_orange.png,q,right,5d4a41890e604c00011ade8b,001,2021-08-09_09h44.54.572,arrow_simon_norep,2021.1.2,Win32,60.0240096,,,,,,,,,,,,,,,,,,,,,,,,,,,,,,,,,,,,,,
,,,,,,,,,,,,,,,,,,,,,,5d4a41890e604c00011ade8b,001,2021-08-09_09h44.54.572,arrow_simon_norep,2021.1.2,Win32,60.0240096,space,105.575,0,0,0,0,1,,,,,,,,,,,,,,,,,,,,,,,,,,,,,,,
,,,w,1,1.927,0,0.245440286,#a3d0fb,,left_blue.png,w,0,0,0,2,1,w,left_blue.png,left_orange.png,q,left,5d4a41890e604c00011ade8b,001,2021-08-09_09h44.54.572,arrow_simon_norep,2021.1.2,Win32,60.0240096,,,,,,,,,,,,,,,,,,,,,,,,,,,,,,,,,,,,,,
,,,p,1,1.301,0,0.879801099,#f3af84,,right_orange.png,p,0,1,1,1,1,o,right_blue.png,right_orange.png,p,right,5d4a41890e604c00011ade8b,001,2021-08-09_09h44.54.572,arrow_simon_norep,2021.1.2,Win32,60.0240096,,,,,,,,,,,,,,,,,,,,,,,,,,,,,,,,,,,,,,
,,,w,1,1.408,0,0.827219177,#a3d0fb,,left_blue.png,w,0,2,2,2,1,w,left_blue.png,left_orange.png,q,left,5d4a41890e604c00011ade8b,001,2021-08-09_09h44.54.572,arrow_simon_norep,2021.1.2,Win32,60.0240096,,,,,,,,,,,,,,,,,,,,,,,,,,,,,,,,,,,,,,
,,,p,1,1.482,0,0.982592929,#f3af84,,right_orange.png,p,0,3,3,1,1,o,right_blue.png,right_orange.png,p,right,5d4a41890e604c00011ade8b,001,2021-08-09_09h44.54.572,arrow_simon_norep,2021.1.2,Win32,60.0240096,,,,,,,,,,,,,,,,,,,,,,,,,,,,,,,,,,,,,,
,,,o,1,1.215,0,0.33891688,#a3d0fb,,right_blue.png,o,1,0,4,1,1,o,right_blue.png,right_orange.png,p,right,5d4a41890e604c00011ade8b,001,2021-08-09_09h44.54.572,arrow_simon_norep,2021.1.2,Win32,60.0240096,,,,,,,,,,,,,,,,,,,,,,,,,,,,,,,,,,,,,,
,,,p,1,0.765,0,0.041942897,#f3af84,,right_orange.png,p,1,1,5,1,1,o,right_blue.png,right_orange.png,p,right,5d4a41890e604c00011ade8b,001,2021-08-09_09h44.54.572,arrow_simon_norep,2021.1.2,Win32,60.0240096,,,,,,,,,,,,,,,,,,,,,,,,,,,,,,,,,,,,,,
,,,w,0,1.446,1,0.852705436,#a3d0fb,,right_blue.png,o,1,2,6,0,1,o,right_blue.png,right_orange.png,p,left,5d4a41890e604c00011ade8b,001,2021-08-09_09h44.54.572,arrow_simon_norep,2021.1.2,Win32,60.0240096,,,,,,,,,,,,,,,,,,,,,,,,,,,,,,,,,,,,,,
,,,o,0,1.546,1,0.849132464,#f3af84,,right_orange.png,p,1,3,7,0,1,o,right_blue.png,right_orange.png,p,left,5d4a41890e604c00011ade8b,001,2021-08-09_09h44.54.572,arrow_simon_norep,2021.1.2,Win32,60.0240096,,,,,,,,,,,,,,,,,,,,,,,,,,,,,,,,,,,,,,
,,,w,1,2.023,0,0.843850273,#a3d0fb,,left_blue.png,w,2,0,8,3,1,w,left_blue.png,left_orange.png,q,right,5d4a41890e604c00011ade8b,001,2021-08-09_09h44.54.572,arrow_simon_norep,2021.1.2,Win32,60.0240096,,,,,,,,,,,,,,,,,,,,,,,,,,,,,,,,,,,,,,
,,,p,1,0.74,0,0.025878962,#f3af84,,right_orange.png,p,2,1,9,1,1,o,right_blue.png,right_orange.png,p,right,5d4a41890e604c00011ade8b,001,2021-08-09_09h44.54.572,arrow_simon_norep,2021.1.2,Win32,60.0240096,,,,,,,,,,,,,,,,,,,,,,,,,,,,,,,,,,,,,,
,,,w,1,1.183,0,0.155700122,#a3d0fb,,left_blue.png,w,2,2,10,2,1,w,left_blue.png,left_orange.png,q,left,5d4a41890e604c00011ade8b,001,2021-08-09_09h44.54.572,arrow_simon_norep,2021.1.2,Win32,60.0240096,,,,,,,,,,,,,,,,,,,,,,,,,,,,,,,,,,,,,,
,,,p,1,0.905,0,0.027341989,#f3af84,,right_orange.png,p,2,3,11,0,1,o,right_blue.png,right_orange.png,p,left,5d4a41890e604c00011ade8b,001,2021-08-09_09h44.54.572,arrow_simon_norep,2021.1.2,Win32,60.0240096,,,,,,,,,,,,,,,,,,,,,,,,,,,,,,,,,,,,,,
,,,o,0,1.521,1,0.050074403,#a3d0fb,,left_blue.png,w,3,0,12,3,1,w,left_blue.png,left_orange.png,q,right,5d4a41890e604c00011ade8b,001,2021-08-09_09h44.54.572,arrow_simon_norep,2021.1.2,Win32,60.0240096,,,,,,,,,,,,,,,,,,,,,,,,,,,,,,,,,,,,,,
,,,p,0,1.305,1,0.379936949,#f3af84,,left_orange.png,q,3,1,13,3,1,w,left_blue.png,left_orange.png,q,right,5d4a41890e604c00011ade8b,001,2021-08-09_09h44.54.572,arrow_simon_norep,2021.1.2,Win32,60.0240096,,,,,,,,,,,,,,,,,,,,,,,,,,,,,,,,,,,,,,
,,,o,1,2.06,0,0.584871016,#a3d0fb,,right_blue.png,o,3,2,14,0,1,o,right_blue.png,right_orange.png,p,left,5d4a41890e604c00011ade8b,001,2021-08-09_09h44.54.572,arrow_simon_norep,2021.1.2,Win32,60.0240096,,,,,,,,,,,,,,,,,,,,,,,,,,,,,,,,,,,,,,
,,,q,1,1.642,0,0.817814153,#f3af84,,left_orange.png,q,3,3,15,3,1,w,left_blue.png,left_orange.png,q,right,5d4a41890e604c00011ade8b,001,2021-08-09_09h44.54.572,arrow_simon_norep,2021.1.2,Win32,60.0240096,,,,,,,,,,,,,,,,,,,,,,,,,,,,,,,,,,,,,,
,,,w,1,1.826,0,0.791587395,#a3d0fb,,left_blue.png,w,4,0,16,2,1,w,left_blue.png,left_orange.png,q,left,5d4a41890e604c00011ade8b,001,2021-08-09_09h44.54.572,arrow_simon_norep,2021.1.2,Win32,60.0240096,,,,,,,,,,,,,,,,,,,,,,,,,,,,,,,,,,,,,,
,,,p,1,1.523,0,0.515548167,#f3af84,,right_orange.png,p,4,1,17,1,1,o,right_blue.png,right_orange.png,p,right,5d4a41890e604c00011ade8b,001,2021-08-09_09h44.54.572,arrow_simon_norep,2021.1.2,Win32,60.0240096,,,,,,,,,,,,,,,,,,,,,,,,,,,,,,,,,,,,,,
,,,o,1,1.735,0,0.45573068,#a3d0fb,,right_blue.png,o,4,2,18,0,1,o,right_blue.png,right_orange.png,p,left,5d4a41890e604c00011ade8b,001,2021-08-09_09h44.54.572,arrow_simon_norep,2021.1.2,Win32,60.0240096,,,,,,,,,,,,,,,,,,,,,,,,,,,,,,,,,,,,,,
,,,w,0,1.186,1,0.180214709,#f3af84,,left_orange.png,q,4,3,19,3,1,w,left_blue.png,left_orange.png,q,right,5d4a41890e604c00011ade8b,001,2021-08-09_09h44.54.572,arrow_simon_norep,2021.1.2,Win32,60.0240096,,,,,,,,,,,,,,,,,,,,,,,,,,,,,,,,,,,,,,
,,,w,1,2.094,0,0.679881642,#a3d0fb,,left_blue.png,w,5,0,20,2,1,w,left_blue.png,left_orange.png,q,left,5d4a41890e604c00011ade8b,001,2021-08-09_09h44.54.572,arrow_simon_norep,2021.1.2,Win32,60.0240096,,,,,,,,,,,,,,,,,,,,,,,,,,,,,,,,,,,,,,
,,,p,1,1.044,0,0.193830677,#f3af84,,right_orange.png,p,5,1,21,1,1,o,right_blue.png,right_orange.png,p,right,5d4a41890e604c00011ade8b,001,2021-08-09_09h44.54.572,arrow_simon_norep,2021.1.2,Win32,60.0240096,,,,,,,,,,,,,,,,,,,,,,,,,,,,,,,,,,,,,,
,,,w,1,1.325,0,0.193885801,#a3d0fb,,left_blue.png,w,5,2,22,2,1,w,left_blue.png,left_orange.png,q,left,5d4a41890e604c00011ade8b,001,2021-08-09_09h44.54.572,arrow_simon_norep,2021.1.2,Win32,60.0240096,,,,,,,,,,,,,,,,,,,,,,,,,,,,,,,,,,,,,,
,,,q,1,1.586,0,0.105948911,#f3af84,,left_orange.png,q,5,3,23,2,1,w,left_blue.png,left_orange.png,q,left,5d4a41890e604c00011ade8b,001,2021-08-09_09h44.54.572,arrow_simon_norep,2021.1.2,Win32,60.0240096,,,,,,,,,,,,,,,,,,,,,,,,,,,,,,,,,,,,,,
,,,o,1,1.441,0,0.470684369,#a3d0fb,,right_blue.png,o,6,0,24,0,1,o,right_blue.png,right_orange.png,p,left,5d4a41890e604c00011ade8b,001,2021-08-09_09h44.54.572,arrow_simon_norep,2021.1.2,Win32,60.0240096,,,,,,,,,,,,,,,,,,,,,,,,,,,,,,,,,,,,,,
,,,p,1,1.704,0,0.75994955,#f3af84,,right_orange.png,p,6,1,25,0,1,o,right_blue.png,right_orange.png,p,left,5d4a41890e604c00011ade8b,001,2021-08-09_09h44.54.572,arrow_simon_norep,2021.1.2,Win32,60.0240096,,,,,,,,,,,,,,,,,,,,,,,,,,,,,,,,,,,,,,
,,,w,1,1.918,0,0.886961008,#a3d0fb,,left_blue.png,w,6,2,26,3,1,w,left_blue.png,left_orange.png,q,right,5d4a41890e604c00011ade8b,001,2021-08-09_09h44.54.572,arrow_simon_norep,2021.1.2,Win32,60.0240096,,,,,,,,,,,,,,,,,,,,,,,,,,,,,,,,,,,,,,
,,,q,1,1.616,0,0.900509431,#f3af84,,left_orange.png,q,6,3,27,2,1,w,left_blue.png,left_orange.png,q,left,5d4a41890e604c00011ade8b,001,2021-08-09_09h44.54.572,arrow_simon_norep,2021.1.2,Win32,60.0240096,,,,,,,,,,,,,,,,,,,,,,,,,,,,,,,,,,,,,,
,,,o,1,1.212,0,0.345649063,#a3d0fb,,right_blue.png,o,7,0,28,1,1,o,right_blue.png,right_orange.png,p,right,5d4a41890e604c00011ade8b,001,2021-08-09_09h44.54.572,arrow_simon_norep,2021.1.2,Win32,60.0240096,,,,,,,,,,,,,,,,,,,,,,,,,,,,,,,,,,,,,,
,,,q,1,1.087,0,0.328337818,#f3af84,,left_orange.png,q,7,1,29,3,1,w,left_blue.png,left_orange.png,q,right,5d4a41890e604c00011ade8b,001,2021-08-09_09h44.54.572,arrow_simon_norep,2021.1.2,Win32,60.0240096,,,,,,,,,,,,,,,,,,,,,,,,,,,,,,,,,,,,,,
,,,o,1,1.147,0,0.226752416,#a3d0fb,,right_blue.png,o,7,2,30,1,1,o,right_blue.png,right_orange.png,p,right,5d4a41890e604c00011ade8b,001,2021-08-09_09h44.54.572,arrow_simon_norep,2021.1.2,Win32,60.0240096,,,,,,,,,,,,,,,,,,,,,,,,,,,,,,,,,,,,,,
,,,q,1,0.882,0,0.133819815,#f3af84,,left_orange.png,q,7,3,31,3,1,w,left_blue.png,left_orange.png,q,right,5d4a41890e604c00011ade8b,001,2021-08-09_09h44.54.572,arrow_simon_norep,2021.1.2,Win32,60.0240096,,,,,,,,,,,,,,,,,,,,,,,,,,,,,,,,,,,,,,
,,,w,1,1.461,0,0.601997988,#a3d0fb,,left_blue.png,w,8,0,32,2,1,w,left_blue.png,left_orange.png,q,left,5d4a41890e604c00011ade8b,001,2021-08-09_09h44.54.572,arrow_simon_norep,2021.1.2,Win32,60.0240096,,,,,,,,,,,,,,,,,,,,,,,,,,,,,,,,,,,,,,
,,,p,1,1.811,0,0.975522173,#f3af84,,right_orange.png,p,8,1,33,0,1,o,right_blue.png,right_orange.png,p,left,5d4a41890e604c00011ade8b,001,2021-08-09_09h44.54.572,arrow_simon_norep,2021.1.2,Win32,60.0240096,,,,,,,,,,,,,,,,,,,,,,,,,,,,,,,,,,,,,,
,,,w,1,1.191,0,0.216468534,#a3d0fb,,left_blue.png,w,8,2,34,2,1,w,left_blue.png,left_orange.png,q,left,5d4a41890e604c00011ade8b,001,2021-08-09_09h44.54.572,arrow_simon_norep,2021.1.2,Win32,60.0240096,,,,,,,,,,,,,,,,,,,,,,,,,,,,,,,,,,,,,,
,,,p,1,1.509,0,0.848438708,#f3af84,,right_orange.png,p,8,3,35,0,1,o,right_blue.png,right_orange.png,p,left,5d4a41890e604c00011ade8b,001,2021-08-09_09h44.54.572,arrow_simon_norep,2021.1.2,Win32,60.0240096,,,,,,,,,,,,,,,,,,,,,,,,,,,,,,,,,,,,,,
,,,o,1,1.398,0,0.624517299,#a3d0fb,,right_blue.png,o,9,0,36,0,1,o,right_blue.png,right_orange.png,p,left,5d4a41890e604c00011ade8b,001,2021-08-09_09h44.54.572,arrow_simon_norep,2021.1.2,Win32,60.0240096,,,,,,,,,,,,,,,,,,,,,,,,,,,,,,,,,,,,,,
,,,q,1,1.034,0,0.57574655,#f3af84,,left_orange.png,q,9,1,37,2,1,w,left_blue.png,left_orange.png,q,left,5d4a41890e604c00011ade8b,001,2021-08-09_09h44.54.572,arrow_simon_norep,2021.1.2,Win32,60.0240096,,,,,,,,,,,,,,,,,,,,,,,,,,,,,,,,,,,,,,
,,,o,1,1.619,0,0.555442318,#a3d0fb,,right_blue.png,o,9,2,38,1,1,o,right_blue.png,right_orange.png,p,right,5d4a41890e604c00011ade8b,001,2021-08-09_09h44.54.572,arrow_simon_norep,2021.1.2,Win32,60.0240096,,,,,,,,,,,,,,,,,,,,,,,,,,,,,,,,,,,,,,
,,,p,1,1.53,0,0.885109148,#f3af84,,right_orange.png,p,9,3,39,1,1,o,right_blue.png,right_orange.png,p,right,5d4a41890e604c00011ade8b,001,2021-08-09_09h44.54.572,arrow_simon_norep,2021.1.2,Win32,60.0240096,,,,,,,,,,,,,,,,,,,,,,,,,,,,,,,,,,,,,,
,,,w,1,1.182,0,0.122821453,#a3d0fb,,left_blue.png,w,10,0,40,3,1,w,left_blue.png,left_orange.png,q,right,5d4a41890e604c00011ade8b,001,2021-08-09_09h44.54.572,arrow_simon_norep,2021.1.2,Win32,60.0240096,,,,,,,,,,,,,,,,,,,,,,,,,,,,,,,,,,,,,,
,,,q,1,1.207,0,0.380453738,#f3af84,,left_orange.png,q,10,1,41,3,1,w,left_blue.png,left_orange.png,q,right,5d4a41890e604c00011ade8b,001,2021-08-09_09h44.54.572,arrow_simon_norep,2021.1.2,Win32,60.0240096,,,,,,,,,,,,,,,,,,,,,,,,,,,,,,,,,,,,,,
,,,o,1,1.762,0,0.701455515,#a3d0fb,,right_blue.png,o,10,2,42,1,1,o,right_blue.png,right_orange.png,p,right,5d4a41890e604c00011ade8b,001,2021-08-09_09h44.54.572,arrow_simon_norep,2021.1.2,Win32,60.0240096,,,,,,,,,,,,,,,,,,,,,,,,,,,,,,,,,,,,,,
,,,q,1,0.753,0,0.105332369,#f3af84,,left_orange.png,q,10,3,43,3,1,w,left_blue.png,left_orange.png,q,right,5d4a41890e604c00011ade8b,001,2021-08-09_09h44.54.572,arrow_simon_norep,2021.1.2,Win32,60.0240096,,,,,,,,,,,,,,,,,,,,,,,,,,,,,,,,,,,,,,
,,,w,1,1.56,0,0.608172136,#a3d0fb,,left_blue.png,w,11,0,44,3,1,w,left_blue.png,left_orange.png,q,right,5d4a41890e604c00011ade8b,001,2021-08-09_09h44.54.572,arrow_simon_norep,2021.1.2,Win32,60.0240096,,,,,,,,,,,,,,,,,,,,,,,,,,,,,,,,,,,,,,
,,,q,1,0.863,0,0.38836558,#f3af84,,left_orange.png,q,11,1,45,2,1,w,left_blue.png,left_orange.png,q,left,5d4a41890e604c00011ade8b,001,2021-08-09_09h44.54.572,arrow_simon_norep,2021.1.2,Win32,60.0240096,,,,,,,,,,,,,,,,,,,,,,,,,,,,,,,,,,,,,,
,,,o,1,1.38,0,0.837303311,#a3d0fb,,right_blue.png,o,11,2,46,1,1,o,right_blue.png,right_orange.png,p,right,5d4a41890e604c00011ade8b,001,2021-08-09_09h44.54.572,arrow_simon_norep,2021.1.2,Win32,60.0240096,,,,,,,,,,,,,,,,,,,,,,,,,,,,,,,,,,,,,,
,,,q,1,1.203,0,0.75031675,#f3af84,,left_orange.png,q,11,3,47,2,1,w,left_blue.png,left_orange.png,q,left,5d4a41890e604c00011ade8b,001,2021-08-09_09h44.54.572,arrow_simon_norep,2021.1.2,Win32,60.0240096,,,,,,,,,,,,,,,,,,,,,,,,,,,,,,,,,,,,,,
,,,w,0,1.463,1,0.810790461,#a3d0fb,,right_blue.png,o,12,0,48,0,1,o,right_blue.png,right_orange.png,p,left,5d4a41890e604c00011ade8b,001,2021-08-09_09h44.54.572,arrow_simon_norep,2021.1.2,Win32,60.0240096,,,,,,,,,,,,,,,,,,,,,,,,,,,,,,,,,,,,,,
,,,p,1,0.872,0,0.004889892,#f3af84,,right_orange.png,p,12,1,49,0,1,o,right_blue.png,right_orange.png,p,left,5d4a41890e604c00011ade8b,001,2021-08-09_09h44.54.572,arrow_simon_norep,2021.1.2,Win32,60.0240096,,,,,,,,,,,,,,,,,,,,,,,,,,,,,,,,,,,,,,
,,,w,1,1.05,0,0.010809084,#a3d0fb,,left_blue.png,w,12,2,50,2,1,w,left_blue.png,left_orange.png,q,left,5d4a41890e604c00011ade8b,001,2021-08-09_09h44.54.572,arrow_simon_norep,2021.1.2,Win32,60.0240096,,,,,,,,,,,,,,,,,,,,,,,,,,,,,,,,,,,,,,
,,,q,1,1.004,0,0.309167962,#f3af84,,left_orange.png,q,12,3,51,3,1,w,left_blue.png,left_orange.png,q,right,5d4a41890e604c00011ade8b,001,2021-08-09_09h44.54.572,arrow_simon_norep,2021.1.2,Win32,60.0240096,,,,,,,,,,,,,,,,,,,,,,,,,,,,,,,,,,,,,,
,,,w,1,0.752,0,0.137094671,#a3d0fb,,left_blue.png,w,13,0,52,2,1,w,left_blue.png,left_orange.png,q,left,5d4a41890e604c00011ade8b,001,2021-08-09_09h44.54.572,arrow_simon_norep,2021.1.2,Win32,60.0240096,,,,,,,,,,,,,,,,,,,,,,,,,,,,,,,,,,,,,,
,,,p,1,0.86,0,0.352955338,#f3af84,,right_orange.png,p,13,1,53,1,1,o,right_blue.png,right_orange.png,p,right,5d4a41890e604c00011ade8b,001,2021-08-09_09h44.54.572,arrow_simon_norep,2021.1.2,Win32,60.0240096,,,,,,,,,,,,,,,,,,,,,,,,,,,,,,,,,,,,,,
,,,o,1,1.122,0,0.548841992,#a3d0fb,,right_blue.png,o,13,2,54,0,1,o,right_blue.png,right_orange.png,p,left,5d4a41890e604c00011ade8b,001,2021-08-09_09h44.54.572,arrow_simon_norep,2021.1.2,Win32,60.0240096,,,,,,,,,,,,,,,,,,,,,,,,,,,,,,,,,,,,,,
,,,q,1,1.159,0,0.256038996,#f3af84,,left_orange.png,q,13,3,55,3,1,w,left_blue.png,left_orange.png,q,right,5d4a41890e604c00011ade8b,001,2021-08-09_09h44.54.572,arrow_simon_norep,2021.1.2,Win32,60.0240096,,,,,,,,,,,,,,,,,,,,,,,,,,,,,,,,,,,,,,
,,,o,1,0.95,0,0.053453684,#a3d0fb,,right_blue.png,o,14,0,56,1,1,o,right_blue.png,right_orange.png,p,right,5d4a41890e604c00011ade8b,001,2021-08-09_09h44.54.572,arrow_simon_norep,2021.1.2,Win32,60.0240096,,,,,,,,,,,,,,,,,,,,,,,,,,,,,,,,,,,,,,
,,,q,1,1.482,0,0.81134963,#f3af84,,left_orange.png,q,14,1,57,3,1,w,left_blue.png,left_orange.png,q,right,5d4a41890e604c00011ade8b,001,2021-08-09_09h44.54.572,arrow_simon_norep,2021.1.2,Win32,60.0240096,,,,,,,,,,,,,,,,,,,,,,,,,,,,,,,,,,,,,,
,,,o,1,1.117,0,0.169583526,#a3d0fb,,right_blue.png,o,14,2,58,0,1,o,right_blue.png,right_orange.png,p,left,5d4a41890e604c00011ade8b,001,2021-08-09_09h44.54.572,arrow_simon_norep,2021.1.2,Win32,60.0240096,,,,,,,,,,,,,,,,,,,,,,,,,,,,,,,,,,,,,,
,,,p,1,0.776,0,0.094509029,#f3af84,,right_orange.png,p,14,3,59,0,1,o,right_blue.png,right_orange.png,p,left,5d4a41890e604c00011ade8b,001,2021-08-09_09h44.54.572,arrow_simon_norep,2021.1.2,Win32,60.0240096,,,,,,,,,,,,,,,,,,,,,,,,,,,,,,,,,,,,,,
,,,,,,,,,,,,,,,,,,,,,,5d4a41890e604c00011ade8b,001,2021-08-09_09h44.54.572,arrow_simon_norep,2021.1.2,Win32,60.0240096,space,8.899,1,0,1,0,1,,,,,,,,,,,,,,,,,,,,,,,,,,,,,,,
,,,,,,,,,,,,,,,,,,,,,,5d4a41890e604c00011ade8b,001,2021-08-09_09h44.54.572,arrow_simon_norep,2021.1.2,Win32,60.0240096,,,,,,,,space,0,2.567,o,2.454,0,0,0,0,1,,,,,,,,,,,,,,,,,,,,,
,,,,,,,,,,,,,,,,,,,,,,5d4a41890e604c00011ade8b,001,2021-08-09_09h44.54.572,arrow_simon_norep,2021.1.2,Win32,60.0240096,,,,,,,,,,,q,1.925,1,0,1,0,1,,,,,,,,,,,,,,,,,,,,,
,,,,,,,,,,,,,,,,,,,,,,5d4a41890e604c00011ade8b,001,2021-08-09_09h44.54.572,arrow_simon_norep,2021.1.2,Win32,60.0240096,,,,,,,,,,,o,1.509,2,0,2,0,1,,,,,,,,,,,,,,,,,,,,,
,,,,,,,,,,,,,,,,,,,,,,5d4a41890e604c00011ade8b,001,2021-08-09_09h44.54.572,arrow_simon_norep,2021.1.2,Win32,60.0240096,,,,,,,,,,,p,2.656,3,0,3,0,1,,,,,,,,,,,,,,,,,,,,,
,,,,,,,,,,,,,,,,,,,,,,5d4a41890e604c00011ade8b,001,2021-08-09_09h44.54.572,arrow_simon_norep,2021.1.2,Win32,60.0240096,,,,,,,,,,,o,2.826,4,0,4,0,1,,,,,,,,,,,,,,,,,,,,,
,,,,,,,,,,,,,,,,,,,,,,5d4a41890e604c00011ade8b,001,2021-08-09_09h44.54.572,arrow_simon_norep,2021.1.2,Win32,60.0240096,,,,,,,,,,,q,2.617,5,0,5,0,1,,,,,,,,,,,,,,,,,,,,,
,,,,,,,,,,,,,,,,,,,,,,5d4a41890e604c00011ade8b,001,2021-08-09_09h44.54.572,arrow_simon_norep,2021.1.2,Win32,60.0240096,,,,,,,,,,,o,2.602,6,0,6,0,1,,,,,,,,,,,,,,,,,,,,,
,,,,,,,,,,,,,,,,,,,,,,5d4a41890e604c00011ade8b,001,2021-08-09_09h44.54.572,arrow_simon_norep,2021.1.2,Win32,60.0240096,,,,,,,,,,,p,1.615,7,0,7,0,1,,,,,,,,,,,,,,,,,,,,,
,,,,,,,,,,,,,,,,,,,,,,5d4a41890e604c00011ade8b,001,2021-08-09_09h44.54.572,arrow_simon_norep,2021.1.2,Win32,60.0240096,,,,,,,,,,,w,2.057,8,0,8,0,1,,,,,,,,,,,,,,,,,,,,,
,,,,,,,,,,,,,,,,,,,,,,5d4a41890e604c00011ade8b,001,2021-08-09_09h44.54.572,arrow_simon_norep,2021.1.2,Win32,60.0240096,,,,,,,,,,,q,2.557,9,0,9,0,1,,,,,,,,,,,,,,,,,,,,,
,,,,,,,,,,,,,,,,,,,,,,5d4a41890e604c00011ade8b,001,2021-08-09_09h44.54.572,arrow_simon_norep,2021.1.2,Win32,60.0240096,,,,,,,,,,,o,2.469,10,0,10,0,1,,,,,,,,,,,,,,,,,,,,,
,,,,,,,,,,,,,,,,,,,,,,5d4a41890e604c00011ade8b,001,2021-08-09_09h44.54.572,arrow_simon_norep,2021.1.2,Win32,60.0240096,,,,,,,,,,,p,2.449,11,0,11,0,1,,,,,,,,,,,,,,,,,,,,,
,,,,,,,,,,,,,,,,,,,,,,5d4a41890e604c00011ade8b,001,2021-08-09_09h44.54.572,arrow_simon_norep,2021.1.2,Win32,60.0240096,,,,,,,,,,,w,2.491,12,0,12,0,1,,,,,,,,,,,,,,,,,,,,,
,,,,,,,,,,,,,,,,,,,,,,5d4a41890e604c00011ade8b,001,2021-08-09_09h44.54.572,arrow_simon_norep,2021.1.2,Win32,60.0240096,,,,,,,,,,,p,2.403,13,0,13,0,1,,,,,,,,,,,,,,,,,,,,,
,,,,,,,,,,,,,,,,,,,,,,5d4a41890e604c00011ade8b,001,2021-08-09_09h44.54.572,arrow_simon_norep,2021.1.2,Win32,60.0240096,,,,,,,,,,,o,2.452,14,0,14,0,1,,,,,,,,,,,,,,,,,,,,,
,,,,,,,,,,,,,,,,,,,,,,5d4a41890e604c00011ade8b,001,2021-08-09_09h44.54.572,arrow_simon_norep,2021.1.2,Win32,60.0240096,,,,,,,,,,,p,2.407,15,0,15,0,1,,,,,,,,,,,,,,,,,,,,,
,,,,,,,,,,,,,,,,,,,,,,5d4a41890e604c00011ade8b,001,2021-08-09_09h44.54.572,arrow_simon_norep,2021.1.2,Win32,60.0240096,,,,,,,,,,,o,2.422,16,0,16,0,1,,,,,,,,,,,,,,,,,,,,,
,,,,,,,,,,,,,,,,,,,,,,5d4a41890e604c00011ade8b,001,2021-08-09_09h44.54.572,arrow_simon_norep,2021.1.2,Win32,60.0240096,,,,,,,,,,,p,2.339,17,0,17,0,1,,,,,,,,,,,,,,,,,,,,,
,,,,,,,,,,,,,,,,,,,,,,5d4a41890e604c00011ade8b,001,2021-08-09_09h44.54.572,arrow_simon_norep,2021.1.2,Win32,60.0240096,,,,,,,,,,,o,2.51,18,0,18,0,1,,,,,,,,,,,,,,,,,,,,,
,,,,,,,,,,,,,,,,,,,,,,5d4a41890e604c00011ade8b,001,2021-08-09_09h44.54.572,arrow_simon_norep,2021.1.2,Win32,60.0240096,,,,,,,,,,,p,2.352,19,0,19,0,1,,,,,,,,,,,,,,,,,,,,,
,,,,,,,,,,,,,,,,,,,,,,5d4a41890e604c00011ade8b,001,2021-08-09_09h44.54.572,arrow_simon_norep,2021.1.2,Win32,60.0240096,,,,,,,,,,,o,2.599,20,0,20,0,1,,,,,,,,,,,,,,,,,,,,,
,,,,,,,,,,,,,,,,,,,,,,5d4a41890e604c00011ade8b,001,2021-08-09_09h44.54.572,arrow_simon_norep,2021.1.2,Win32,60.0240096,,,,,,,,,,,q,2.601,21,0,21,0,1,,,,,,,,,,,,,,,,,,,,,
,,,,,,,,,,,,,,,,,,,,,,5d4a41890e604c00011ade8b,001,2021-08-09_09h44.54.572,arrow_simon_norep,2021.1.2,Win32,60.0240096,,,,,,,,,,,o,2.546,22,0,22,0,1,,,,,,,,,,,,,,,,,,,,,
,,,,,,,,,,,,,,,,,,,,,,5d4a41890e604c00011ade8b,001,2021-08-09_09h44.54.572,arrow_simon_norep,2021.1.2,Win32,60.0240096,,,,,,,,,,,p,2.479,23,0,23,0,1,,,,,,,,,,,,,,,,,,,,,
,,,,,,,,,,,,,,,,,,,,,,5d4a41890e604c00011ade8b,001,2021-08-09_09h44.54.572,arrow_simon_norep,2021.1.2,Win32,60.0240096,,,,,,,,,,,o,2.542,24,0,24,0,1,,,,,,,,,,,,,,,,,,,,,
,,,,,,,,,,,,,,,,,,,,,,5d4a41890e604c00011ade8b,001,2021-08-09_09h44.54.572,arrow_simon_norep,2021.1.2,Win32,60.0240096,,,,,,,,,,,p,2.509,25,0,25,0,1,,,,,,,,,,,,,,,,,,,,,
,,,,,,,,,,,,,,,,,,,,,,5d4a41890e604c00011ade8b,001,2021-08-09_09h44.54.572,arrow_simon_norep,2021.1.2,Win32,60.0240096,,,,,,,,,,,o,2.514,26,0,26,0,1,,,,,,,,,,,,,,,,,,,,,
,,,,,,,,,,,,,,,,,,,,,,5d4a41890e604c00011ade8b,001,2021-08-09_09h44.54.572,arrow_simon_norep,2021.1.2,Win32,60.0240096,,,,,,,,,,,p,2.071,27,0,27,0,1,,,,,,,,,,,,,,,,,,,,,
,,,,,,,,,,,,,,,,,,,,,,5d4a41890e604c00011ade8b,001,2021-08-09_09h44.54.572,arrow_simon_norep,2021.1.2,Win32,60.0240096,,,,,,,,,,,o,2.468,28,0,28,0,1,,,,,,,,,,,,,,,,,,,,,
,,,,,,,,,,,,,,,,,,,,,,5d4a41890e604c00011ade8b,001,2021-08-09_09h44.54.572,arrow_simon_norep,2021.1.2,Win32,60.0240096,,,,,,,,,,,p,2.511,29,0,29,0,1,,,,,,,,,,,,,,,,,,,,,
,,,,,,,,,,,,,,,,,,,,,,5d4a41890e604c00011ade8b,001,2021-08-09_09h44.54.572,arrow_simon_norep,2021.1.2,Win32,60.0240096,,,,,,,,,,,o,2.054,30,0,30,0,1,,,,,,,,,,,,,,,,,,,,,
,,,,,,,,,,,,,,,,,,,,,,5d4a41890e604c00011ade8b,001,2021-08-09_09h44.54.572,arrow_simon_norep,2021.1.2,Win32,60.0240096,,,,,,,,,,,p,2.493,31,0,31,0,1,,,,,,,,,,,,,,,,,,,,,
,,,,,,,,,,,,,,,,,,,,,,5d4a41890e604c00011ade8b,001,2021-08-09_09h44.54.572,arrow_simon_norep,2021.1.2,Win32,60.0240096,,,,,,,,,,,o,2.477,32,0,32,0,1,,,,,,,,,,,,,,,,,,,,,
,,,,,,,,,,,,,,,,,,,,,,5d4a41890e604c00011ade8b,001,2021-08-09_09h44.54.572,arrow_simon_norep,2021.1.2,Win32,60.0240096,,,,,,,,,,,p,2.482,33,0,33,0,1,,,,,,,,,,,,,,,,,,,,,
,,,,,,,,,,,,,,,,,,,,,,5d4a41890e604c00011ade8b,001,2021-08-09_09h44.54.572,arrow_simon_norep,2021.1.2,Win32,60.0240096,,,,,,,,,,,o,2.466,34,0,34,0,1,,,,,,,,,,,,,,,,,,,,,
,,,,,,,,,,,,,,,,,,,,,,5d4a41890e604c00011ade8b,001,2021-08-09_09h44.54.572,arrow_simon_norep,2021.1.2,Win32,60.0240096,,,,,,,,,,,p,2.018,35,0,35,0,1,,,,,,,,,,,,,,,,,,,,,
,,,,,,,,,,,,,,,,,,,,,,5d4a41890e604c00011ade8b,001,2021-08-09_09h44.54.572,arrow_simon_norep,2021.1.2,Win32,60.0240096,,,,,,,,,,,o,2.507,36,0,36,0,1,,,,,,,,,,,,,,,,,,,,,
,,,,,,,,,,,,,,,,,,,,,,5d4a41890e604c00011ade8b,001,2021-08-09_09h44.54.572,arrow_simon_norep,2021.1.2,Win32,60.0240096,,,,,,,,,,,p,2.535,37,0,37,0,1,,,,,,,,,,,,,,,,,,,,,
,,,,,,,,,,,,,,,,,,,,,,5d4a41890e604c00011ade8b,001,2021-08-09_09h44.54.572,arrow_simon_norep,2021.1.2,Win32,60.0240096,,,,,,,,,,,o,2.509,38,0,38,0,1,,,,,,,,,,,,,,,,,,,,,
,,,,,,,,,,,,,,,,,,,,,,5d4a41890e604c00011ade8b,001,2021-08-09_09h44.54.572,arrow_simon_norep,2021.1.2,Win32,60.0240096,,,,,,,,,,,p,2.505,39,0,39,0,1,,,,,,,,,,,,,,,,,,,,,
,,,,,,,,,,,,,,,,,,,,,,5d4a41890e604c00011ade8b,001,2021-08-09_09h44.54.572,arrow_simon_norep,2021.1.2,Win32,60.0240096,,,,,,,,,,,o,2.469,40,0,40,0,1,,,,,,,,,,,,,,,,,,,,,
,,,,,,,,,,,,,,,,,,,,,,5d4a41890e604c00011ade8b,001,2021-08-09_09h44.54.572,arrow_simon_norep,2021.1.2,Win32,60.0240096,,,,,,,,,,,p,2.558,41,0,41,0,1,,,,,,,,,,,,,,,,,,,,,
,,,,,,,,,,,,,,,,,,,,,,5d4a41890e604c00011ade8b,001,2021-08-09_09h44.54.572,arrow_simon_norep,2021.1.2,Win32,60.0240096,,,,,,,,,,,o,2.534,42,0,42,0,1,,,,,,,,,,,,,,,,,,,,,
,,,,,,,,,,,,,,,,,,,,,,5d4a41890e604c00011ade8b,001,2021-08-09_09h44.54.572,arrow_simon_norep,2021.1.2,Win32,60.0240096,,,,,,,,,,,p,2.457,43,0,43,0,1,,,,,,,,,,,,,,,,,,,,,
,,,,,,,,,,,,,,,,,,,,,,5d4a41890e604c00011ade8b,001,2021-08-09_09h44.54.572,arrow_simon_norep,2021.1.2,Win32,60.0240096,,,,,,,,,,,o,2.467,44,0,44,0,1,,,,,,,,,,,,,,,,,,,,,
,,,,,,,,,,,,,,,,,,,,,,5d4a41890e604c00011ade8b,001,2021-08-09_09h44.54.572,arrow_simon_norep,2021.1.2,Win32,60.0240096,,,,,,,,,,,p,2.376,45,0,45,0,1,,,,,,,,,,,,,,,,,,,,,
,,,,,,,,,,,,,,,,,,,,,,5d4a41890e604c00011ade8b,001,2021-08-09_09h44.54.572,arrow_simon_norep,2021.1.2,Win32,60.0240096,,,,,,,,,,,o,2.466,46,0,46,0,1,,,,,,,,,,,,,,,,,,,,,
,,,,,,,,,,,,,,,,,,,,,,5d4a41890e604c00011ade8b,001,2021-08-09_09h44.54.572,arrow_simon_norep,2021.1.2,Win32,60.0240096,,,,,,,,,,,p,2.444,47,0,47,0,1,,,,,,,,,,,,,,,,,,,,,
,,,,,,,,,,,,,,,,,,,,,,5d4a41890e604c00011ade8b,001,2021-08-09_09h44.54.572,arrow_simon_norep,2021.1.2,Win32,60.0240096,,,,,,,,,,,o,2.495,48,0,48,0,1,,,,,,,,,,,,,,,,,,,,,
,,,,,,,,,,,,,,,,,,,,,,5d4a41890e604c00011ade8b,001,2021-08-09_09h44.54.572,arrow_simon_norep,2021.1.2,Win32,60.0240096,,,,,,,,,,,p,2.473,49,0,49,0,1,,,,,,,,,,,,,,,,,,,,,
,,,,,,,,,,,,,,,,,,,,,,5d4a41890e604c00011ade8b,001,2021-08-09_09h44.54.572,arrow_simon_norep,2021.1.2,Win32,60.0240096,,,,,,,,,,,o,2.01,50,0,50,0,1,,,,,,,,,,,,,,,,,,,,,
,,,,,,,,,,,,,,,,,,,,,,5d4a41890e604c00011ade8b,001,2021-08-09_09h44.54.572,arrow_simon_norep,2021.1.2,Win32,60.0240096,,,,,,,,,,,p,2.524,51,0,51,0,1,,,,,,,,,,,,,,,,,,,,,
,,,,,,,,,,,,,,,,,,,,,,5d4a41890e604c00011ade8b,001,2021-08-09_09h44.54.572,arrow_simon_norep,2021.1.2,Win32,60.0240096,,,,,,,,,,,o,2.452,52,0,52,0,1,,,,,,,,,,,,,,,,,,,,,
,,,,,,,,,,,,,,,,,,,,,,5d4a41890e604c00011ade8b,001,2021-08-09_09h44.54.572,arrow_simon_norep,2021.1.2,Win32,60.0240096,,,,,,,,,,,p,2.377,53,0,53,0,1,,,,,,,,,,,,,,,,,,,,,
,,,,,,,,,,,,,,,,,,,,,,5d4a41890e604c00011ade8b,001,2021-08-09_09h44.54.572,arrow_simon_norep,2021.1.2,Win32,60.0240096,,,,,,,,,,,o,2.431,54,0,54,0,1,,,,,,,,,,,,,,,,,,,,,
,,,,,,,,,,,,,,,,,,,,,,5d4a41890e604c00011ade8b,001,2021-08-09_09h44.54.572,arrow_simon_norep,2021.1.2,Win32,60.0240096,,,,,,,,,,,p,2.476,55,0,55,0,1,,,,,,,,,,,,,,,,,,,,,
,,,,,,,,,,,,,,,,,,,,,,5d4a41890e604c00011ade8b,001,2021-08-09_09h44.54.572,arrow_simon_norep,2021.1.2,Win32,60.0240096,,,,,,,,,,,o,2.554,56,0,56,0,1,,,,,,,,,,,,,,,,,,,,,
,,,,,,,,,,,,,,,,,,,,,,5d4a41890e604c00011ade8b,001,2021-08-09_09h44.54.572,arrow_simon_norep,2021.1.2,Win32,60.0240096,,,,,,,,,,,p,2.454,57,0,57,0,1,,,,,,,,,,,,,,,,,,,,,
,,,,,,,,,,,,,,,,,,,,,,5d4a41890e604c00011ade8b,001,2021-08-09_09h44.54.572,arrow_simon_norep,2021.1.2,Win32,60.0240096,,,,,,,,,,,o,2.622,58,0,58,0,1,,,,,,,,,,,,,,,,,,,,,
,,,,,,,,,,,,,,,,,,,,,,5d4a41890e604c00011ade8b,001,2021-08-09_09h44.54.572,arrow_simon_norep,2021.1.2,Win32,60.0240096,,,,,,,,,,,p,2.945,59,0,59,0,1,,,,,,,,,,,,,,,,,,,,,
,,,,,,0,2.235830287,#a3d0fb,,left_blue.png,w,,,,,,w,left_blue.png,left_orange.png,q,right,5d4a41890e604c00011ade8b,001,2021-08-09_09h44.54.572,arrow_simon_norep,2021.1.2,Win32,60.0240096,,,,,,,,,,,,,,,,,,space,0,78.493,w,1,2.02,1,TRUE,FALSE,0,0,0,3,1,,,,,,,
,,,,,,0,2.112220361,#f3af84,,left_orange.png,q,,,,,,w,left_blue.png,left_orange.png,q,right,5d4a41890e604c00011ade8b,001,2021-08-09_09h44.54.572,arrow_simon_norep,2021.1.2,Win32,60.0240096,,,,,,,,,,,,,,,,,,,,,q,1,1.687,2,TRUE,FALSE,0,1,1,3,1,,,,,,,
,,,,,,0,2.063366176,#a3d0fb,,right_blue.png,o,,,,,,o,right_blue.png,right_orange.png,p,right,5d4a41890e604c00011ade8b,001,2021-08-09_09h44.54.572,arrow_simon_norep,2021.1.2,Win32,60.0240096,,,,,,,,,,,,,,,,,,,,,o,1,1.558,3,FALSE,FALSE,0,2,2,1,1,,,,,,,
,,,,,,0,1.502962774,#f3af84,,right_orange.png,p,,,,,,o,right_blue.png,right_orange.png,p,right,5d4a41890e604c00011ade8b,001,2021-08-09_09h44.54.572,arrow_simon_norep,2021.1.2,Win32,60.0240096,,,,,,,,,,,,,,,,,,,,,p,1,0.987,4,FALSE,TRUE,0,3,3,1,1,,,,,,,
,,,,,,1,2.162015154,#a3d0fb,,right_blue.png,o,,,,,,o,right_blue.png,right_orange.png,p,left,5d4a41890e604c00011ade8b,001,2021-08-09_09h44.54.572,arrow_simon_norep,2021.1.2,Win32,60.0240096,,,,,,,,,,,,,,,,,,,,,w,0,1.545,5,FALSE,FALSE,1,0,4,0,1,,,,,,,
,,,,,,0,1.81640717,#f3af84,,right_orange.png,p,,,,,,o,right_blue.png,right_orange.png,p,right,5d4a41890e604c00011ade8b,001,2021-08-09_09h44.54.572,arrow_simon_norep,2021.1.2,Win32,60.0240096,,,,,,,,,,,,,,,,,,,,,p,1,1.508,6,FALSE,FALSE,1,1,5,1,1,,,,,,,
,,,,,,1,2.17334415,#a3d0fb,,left_blue.png,w,,,,,,w,left_blue.png,left_orange.png,q,right,5d4a41890e604c00011ade8b,001,2021-08-09_09h44.54.572,arrow_simon_norep,2021.1.2,Win32,60.0240096,,,,,,,,,,,,,,,,,,,,,o,0,1.599,7,FALSE,FALSE,1,2,6,3,1,,,,,,,
,,,,,,1,2.132100079,#f3af84,,right_orange.png,p,,,,,,o,right_blue.png,right_orange.png,p,left,5d4a41890e604c00011ade8b,001,2021-08-09_09h44.54.572,arrow_simon_norep,2021.1.2,Win32,60.0240096,,,,,,,,,,,,,,,,,,,,,p,1,1.687,8,TRUE,FALSE,1,3,7,0,1,,,,,,,
,,,,,,1,2.408821077,#a3d0fb,,left_blue.png,w,,,,,,w,left_blue.png,left_orange.png,q,left,5d4a41890e604c00011ade8b,001,2021-08-09_09h44.54.572,arrow_simon_norep,2021.1.2,Win32,60.0240096,,,,,,,,,,,,,,,,,,,,,o,0,1.873,9,TRUE,FALSE,2,0,8,2,1,,,,,,,
,,,,,,1,2.328472012,#f3af84,,right_orange.png,p,,,,,,o,right_blue.png,right_orange.png,p,left,5d4a41890e604c00011ade8b,001,2021-08-09_09h44.54.572,arrow_simon_norep,2021.1.2,Win32,60.0240096,,,,,,,,,,,,,,,,,,,,,q,0,1.838,10,TRUE,FALSE,2,1,9,0,1,,,,,,,
,,,,,,1,2.371741029,#a3d0fb,,left_blue.png,w,,,,,,w,left_blue.png,left_orange.png,q,right,5d4a41890e604c00011ade8b,001,2021-08-09_09h44.54.572,arrow_simon_norep,2021.1.2,Win32,60.0240096,,,,,,,,,,,,,,,,,,,,,o,0,1.824,11,TRUE,FALSE,2,2,10,3,1,,,,,,,
,,,,,,1,1.622082645,#f3af84,,right_orange.png,p,,,,,,o,right_blue.png,right_orange.png,p,left,5d4a41890e604c00011ade8b,001,2021-08-09_09h44.54.572,arrow_simon_norep,2021.1.2,Win32,60.0240096,,,,,,,,,,,,,,,,,,,,,p,1,1.293,12,FALSE,TRUE,2,3,11,0,1,,,,,,,
,,,,,,1,1.856827438,#a3d0fb,,left_blue.png,w,,,,,,w,left_blue.png,left_orange.png,q,right,5d4a41890e604c00011ade8b,001,2021-08-09_09h44.54.572,arrow_simon_norep,2021.1.2,Win32,60.0240096,,,,,,,,,,,,,,,,,,,,,w,1,1.621,13,TRUE,FALSE,3,0,12,3,1,,,,,,,
,,,,,,1,2.205738972,#f3af84,,left_orange.png,q,,,,,,w,left_blue.png,left_orange.png,q,left,5d4a41890e604c00011ade8b,001,2021-08-09_09h44.54.572,arrow_simon_norep,2021.1.2,Win32,60.0240096,,,,,,,,,,,,,,,,,,,,,q,1,1.738,14,TRUE,FALSE,3,1,13,2,1,,,,,,,
,,,,,,1,2.079891324,#a3d0fb,,left_blue.png,w,,,,,,w,left_blue.png,left_orange.png,q,left,5d4a41890e604c00011ade8b,001,2021-08-09_09h44.54.572,arrow_simon_norep,2021.1.2,Win32,60.0240096,,,,,,,,,,,,,,,,,,,,,w,1,1.626,15,TRUE,FALSE,3,2,14,2,1,,,,,,,
,,,,,,0,1.842886918,#f3af84,,right_orange.png,p,,,,,,o,right_blue.png,right_orange.png,p,left,5d4a41890e604c00011ade8b,001,2021-08-09_09h44.54.572,arrow_simon_norep,2021.1.2,Win32,60.0240096,,,,,,,,,,,,,,,,,,,,,p,1,1.574,16,FALSE,FALSE,3,3,15,0,1,,,,,,,
,,,,,,0,2.384351604,#a3d0fb,,right_blue.png,o,,,,,,o,right_blue.png,right_orange.png,p,left,5d4a41890e604c00011ade8b,001,2021-08-09_09h44.54.572,arrow_simon_norep,2021.1.2,Win32,60.0240096,,,,,,,,,,,,,,,,,,,,,w,0,1.663,17,TRUE,FALSE,4,0,16,0,1,,,,,,,
,,,,,,0,2.272432798,#f3af84,,right_orange.png,p,,,,,,o,right_blue.png,right_orange.png,p,right,5d4a41890e604c00011ade8b,001,2021-08-09_09h44.54.572,arrow_simon_norep,2021.1.2,Win32,60.0240096,,,,,,,,,,,,,,,,,,,,,p,1,1.977,18,TRUE,FALSE,4,1,17,1,1,,,,,,,
,,,,,,0,1.72532905,#a3d0fb,,left_blue.png,w,,,,,,w,left_blue.png,left_orange.png,q,left,5d4a41890e604c00011ade8b,001,2021-08-09_09h44.54.572,arrow_simon_norep,2021.1.2,Win32,60.0240096,,,,,,,,,,,,,,,,,,,,,w,1,1.55,19,FALSE,FALSE,4,2,18,2,1,,,,,,,
,,,,,,0,2.443049377,#f3af84,,right_orange.png,p,,,,,,o,right_blue.png,right_orange.png,p,right,5d4a41890e604c00011ade8b,001,2021-08-09_09h44.54.572,arrow_simon_norep,2021.1.2,Win32,60.0240096,,,,,,,,,,,,,,,,,,,,,p,1,1.576,20,FALSE,FALSE,4,3,19,1,1,,,,,,,
,,,,,,0,2.1837007,#a3d0fb,,right_blue.png,o,,,,,,o,right_blue.png,right_orange.png,p,right,5d4a41890e604c00011ade8b,001,2021-08-09_09h44.54.572,arrow_simon_norep,2021.1.2,Win32,60.0240096,,,,,,,,,,,,,,,,,,,,,w,0,1.672,21,TRUE,FALSE,5,0,20,1,1,,,,,,,
,,,,,,0,1.827821845,#f3af84,,right_orange.png,p,,,,,,o,right_blue.png,right_orange.png,p,right,5d4a41890e604c00011ade8b,001,2021-08-09_09h44.54.572,arrow_simon_norep,2021.1.2,Win32,60.0240096,,,,,,,,,,,,,,,,,,,,,p,1,1.535,22,FALSE,FALSE,5,1,21,1,1,,,,,,,
,,,,,,0,2.024664622,#a3d0fb,,left_blue.png,w,,,,,,w,left_blue.png,left_orange.png,q,right,5d4a41890e604c00011ade8b,001,2021-08-09_09h44.54.572,arrow_simon_norep,2021.1.2,Win32,60.0240096,,,,,,,,,,,,,,,,,,,,,w,1,1.706,23,TRUE,FALSE,5,2,22,3,1,,,,,,,
,,,,,,0,1.878575352,#f3af84,,right_orange.png,p,,,,,,o,right_blue.png,right_orange.png,p,left,5d4a41890e604c00011ade8b,001,2021-08-09_09h44.54.572,arrow_simon_norep,2021.1.2,Win32,60.0240096,,,,,,,,,,,,,,,,,,,,,p,1,1.58,24,FALSE,FALSE,5,3,23,0,1,,,,,,,
,,,,,,0,2.126164312,#a3d0fb,,right_blue.png,o,,,,,,o,right_blue.png,right_orange.png,p,right,5d4a41890e604c00011ade8b,001,2021-08-09_09h44.54.572,arrow_simon_norep,2021.1.2,Win32,60.0240096,,,,,,,,,,,,,,,,,,,,,o,1,1.595,25,FALSE,FALSE,6,0,24,1,1,,,,,,,
,,,,,,0,2.324239741,#f3af84,,right_orange.png,p,,,,,,o,right_blue.png,right_orange.png,p,right,5d4a41890e604c00011ade8b,001,2021-08-09_09h44.54.572,arrow_simon_norep,2021.1.2,Win32,60.0240096,,,,,,,,,,,,,,,,,,,,,p,1,1.684,26,TRUE,FALSE,6,1,25,1,1,,,,,,,
,,,,,,1,2.089308971,#a3d0fb,,right_blue.png,o,,,,,,o,right_blue.png,right_orange.png,p,right,5d4a41890e604c00011ade8b,001,2021-08-09_09h44.54.572,arrow_simon_norep,2021.1.2,Win32,60.0240096,,,,,,,,,,,,,,,,,,,,,p,0,1.584,27,FALSE,FALSE,6,2,26,1,1,,,,,,,
,,,,,,1,2.160858274,#f3af84,,left_orange.png,q,,,,,,w,left_blue.png,left_orange.png,q,left,5d4a41890e604c00011ade8b,001,2021-08-09_09h44.54.572,arrow_simon_norep,2021.1.2,Win32,60.0240096,,,,,,,,,,,,,,,,,,,,,q,1,1.643,28,TRUE,FALSE,6,3,27,2,1,,,,,,,
,,,,,,1,1.846518064,#a3d0fb,,left_blue.png,w,,,,,,w,left_blue.png,left_orange.png,q,left,5d4a41890e604c00011ade8b,001,2021-08-09_09h44.54.572,arrow_simon_norep,2021.1.2,Win32,60.0240096,,,,,,,,,,,,,,,,,,,,,w,1,1.361,29,FALSE,TRUE,7,0,28,2,1,,,,,,,
,,,,,,0,2.044121967,#f3af84,,right_orange.png,p,,,,,,o,right_blue.png,right_orange.png,p,right,5d4a41890e604c00011ade8b,001,2021-08-09_09h44.54.572,arrow_simon_norep,2021.1.2,Win32,60.0240096,,,,,,,,,,,,,,,,,,,,,p,1,1.529,30,FALSE,FALSE,7,1,29,1,1,,,,,,,
,,,,,,0,2.350531974,#a3d0fb,,right_blue.png,o,,,,,,o,right_blue.png,right_orange.png,p,left,5d4a41890e604c00011ade8b,001,2021-08-09_09h44.54.572,arrow_simon_norep,2021.1.2,Win32,60.0240096,,,,,,,,,,,,,,,,,,,,,w,0,1.714,31,TRUE,FALSE,7,2,30,0,1,,,,,,,
,,,,,,0,1.931383411,#f3af84,,left_orange.png,q,,,,,,w,left_blue.png,left_orange.png,q,right,5d4a41890e604c00011ade8b,001,2021-08-09_09h44.54.572,arrow_simon_norep,2021.1.2,Win32,60.0240096,,,,,,,,,,,,,,,,,,,,,q,1,1.473,32,FALSE,FALSE,7,3,31,3,1,,,,,,,
,,,,,,0,1.668411095,#a3d0fb,,left_blue.png,w,,,,,,w,left_blue.png,left_orange.png,q,left,5d4a41890e604c00011ade8b,001,2021-08-09_09h44.54.572,arrow_simon_norep,2021.1.2,Win32,60.0240096,,,,,,,,,,,,,,,,,,,,,w,1,1.128,33,FALSE,TRUE,8,0,32,2,1,,,,,,,
,,,,,,0,1.828506555,#f3af84,,right_orange.png,p,,,,,,o,right_blue.png,right_orange.png,p,right,5d4a41890e604c00011ade8b,001,2021-08-09_09h44.54.572,arrow_simon_norep,2021.1.2,Win32,60.0240096,,,,,,,,,,,,,,,,,,,,,p,1,1.412,34,FALSE,FALSE,8,1,33,1,1,,,,,,,
,,,,,,0,1.801145512,#a3d0fb,,right_blue.png,o,,,,,,o,right_blue.png,right_orange.png,p,right,5d4a41890e604c00011ade8b,001,2021-08-09_09h44.54.572,arrow_simon_norep,2021.1.2,Win32,60.0240096,,,,,,,,,,,,,,,,,,,,,o,1,1.385,35,FALSE,TRUE,8,2,34,1,1,,,,,,,
,,,,,,0,2.491179844,#f3af84,,right_orange.png,p,,,,,,o,right_blue.png,right_orange.png,p,left,5d4a41890e604c00011ade8b,001,2021-08-09_09h44.54.572,arrow_simon_norep,2021.1.2,Win32,60.0240096,,,,,,,,,,,,,,,,,,,,,p,1,1.743,36,TRUE,FALSE,8,3,35,0,1,,,,,,,
,,,,,,0,2.479023011,#a3d0fb,,left_blue.png,w,,,,,,w,left_blue.png,left_orange.png,q,right,5d4a41890e604c00011ade8b,001,2021-08-09_09h44.54.572,arrow_simon_norep,2021.1.2,Win32,60.0240096,,,,,,,,,,,,,,,,,,,,,o,0,1.655,37,TRUE,FALSE,9,0,36,3,1,,,,,,,
,,,,,,0,1.548001774,#f3af84,,left_orange.png,q,,,,,,w,left_blue.png,left_orange.png,q,right,5d4a41890e604c00011ade8b,001,2021-08-09_09h44.54.572,arrow_simon_norep,2021.1.2,Win32,60.0240096,,,,,,,,,,,,,,,,,,,,,w,0,1.217,38,FALSE,TRUE,9,1,37,3,1,,,,,,,
,,,,,,0,1.75888145,#a3d0fb,,right_blue.png,o,,,,,,o,right_blue.png,right_orange.png,p,left,5d4a41890e604c00011ade8b,001,2021-08-09_09h44.54.572,arrow_simon_norep,2021.1.2,Win32,60.0240096,,,,,,,,,,,,,,,,,,,,,o,1,1.355,39,FALSE,TRUE,9,2,38,0,1,,,,,,,
,,,,,,0,1.801398019,#f3af84,,left_orange.png,q,,,,,,w,left_blue.png,left_orange.png,q,left,5d4a41890e604c00011ade8b,001,2021-08-09_09h44.54.572,arrow_simon_norep,2021.1.2,Win32,60.0240096,,,,,,,,,,,,,,,,,,,,,q,1,1.511,40,FALSE,FALSE,9,3,39,2,1,,,,,,,
,,,,,,0,1.57793522,#a3d0fb,,left_blue.png,w,,,,,,w,left_blue.png,left_orange.png,q,left,5d4a41890e604c00011ade8b,001,2021-08-09_09h44.54.572,arrow_simon_norep,2021.1.2,Win32,60.0240096,,,,,,,,,,,,,,,,,,,,,w,1,1.194,41,FALSE,TRUE,10,0,40,2,1,,,,,,,
,,,,,,0,1.559996717,#f3af84,,left_orange.png,q,,,,,,w,left_blue.png,left_orange.png,q,left,5d4a41890e604c00011ade8b,001,2021-08-09_09h44.54.572,arrow_simon_norep,2021.1.2,Win32,60.0240096,,,,,,,,,,,,,,,,,,,,,q,1,1.53,42,FALSE,FALSE,10,1,41,2,1,,,,,,,
,,,,,,0,1.572650888,#a3d0fb,,left_blue.png,w,,,,,,w,left_blue.png,left_orange.png,q,right,5d4a41890e604c00011ade8b,001,2021-08-09_09h44.54.572,arrow_simon_norep,2021.1.2,Win32,60.0240096,,,,,,,,,,,,,,,,,,,,,w,1,1.466,43,FALSE,FALSE,10,2,42,3,1,,,,,,,
,,,,,,0,2.108459311,#f3af84,,right_orange.png,p,,,,,,o,right_blue.png,right_orange.png,p,right,5d4a41890e604c00011ade8b,001,2021-08-09_09h44.54.572,arrow_simon_norep,2021.1.2,Win32,60.0240096,,,,,,,,,,,,,,,,,,,,,p,1,1.52,44,FALSE,FALSE,10,3,43,1,1,,,,,,,
,,,,,,0,1.66878346,#a3d0fb,,left_blue.png,w,,,,,,w,left_blue.png,left_orange.png,q,right,5d4a41890e604c00011ade8b,001,2021-08-09_09h44.54.572,arrow_simon_norep,2021.1.2,Win32,60.0240096,,,,,,,,,,,,,,,,,,,,,w,1,1.249,45,FALSE,TRUE,11,0,44,3,1,,,,,,,
,,,,,,0,1.852248331,#f3af84,,left_orange.png,q,,,,,,w,left_blue.png,left_orange.png,q,right,5d4a41890e604c00011ade8b,001,2021-08-09_09h44.54.572,arrow_simon_norep,2021.1.2,Win32,60.0240096,,,,,,,,,,,,,,,,,,,,,q,1,1.625,46,TRUE,FALSE,11,1,45,3,1,,,,,,,
,,,,,,1,2.309212937,#a3d0fb,,right_blue.png,o,,,,,,o,right_blue.png,right_orange.png,p,left,5d4a41890e604c00011ade8b,001,2021-08-09_09h44.54.572,arrow_simon_norep,2021.1.2,Win32,60.0240096,,,,,,,,,,,,,,,,,,,,,w,0,1.525,47,FALSE,FALSE,11,2,46,0,1,,,,,,,
,,,,,,1,2.491507527,#f3af84,,left_orange.png,q,,,,,,w,left_blue.png,left_orange.png,q,left,5d4a41890e604c00011ade8b,001,2021-08-09_09h44.54.572,arrow_simon_norep,2021.1.2,Win32,60.0240096,,,,,,,,,,,,,,,,,,,,,q,1,1.85,48,TRUE,FALSE,11,3,47,2,1,,,,,,,
,,,,,,1,1.532442221,#a3d0fb,,right_blue.png,o,,,,,,o,right_blue.png,right_orange.png,p,left,5d4a41890e604c00011ade8b,001,2021-08-09_09h44.54.572,arrow_simon_norep,2021.1.2,Win32,60.0240096,,,,,,,,,,,,,,,,,,,,,p,0,1.524,49,FALSE,FALSE,12,0,48,0,1,,,,,,,
,,,,,,0,2.190401357,#f3af84,,left_orange.png,q,,,,,,w,left_blue.png,left_orange.png,q,left,5d4a41890e604c00011ade8b,001,2021-08-09_09h44.54.572,arrow_simon_norep,2021.1.2,Win32,60.0240096,,,,,,,,,,,,,,,,,,,,,q,1,1.533,50,FALSE,FALSE,12,1,49,2,1,,,,,,,
,,,,,,0,2.01776859,#a3d0fb,,right_blue.png,o,,,,,,o,right_blue.png,right_orange.png,p,right,5d4a41890e604c00011ade8b,001,2021-08-09_09h44.54.572,arrow_simon_norep,2021.1.2,Win32,60.0240096,,,,,,,,,,,,,,,,,,,,,w,0,2.172,51,TRUE,FALSE,12,2,50,1,1,,,,,,,
,,,,,,0,2.387867013,#f3af84,,left_orange.png,q,,,,,,w,left_blue.png,left_orange.png,q,right,5d4a41890e604c00011ade8b,001,2021-08-09_09h44.54.572,arrow_simon_norep,2021.1.2,Win32,60.0240096,,,,,,,,,,,,,,,,,,,,,q,1,2.058,52,TRUE,FALSE,12,3,51,3,1,,,,,,,
,,,,,,0,1.970319851,#a3d0fb,,left_blue.png,w,,,,,,w,left_blue.png,left_orange.png,q,left,5d4a41890e604c00011ade8b,001,2021-08-09_09h44.54.572,arrow_simon_norep,2021.1.2,Win32,60.0240096,,,,,,,,,,,,,,,,,,,,,w,1,1.574,53,FALSE,FALSE,13,0,52,2,1,,,,,,,
,,,,,,0,2.360357632,#f3af84,,right_orange.png,p,,,,,,o,right_blue.png,right_orange.png,p,left,5d4a41890e604c00011ade8b,001,2021-08-09_09h44.54.572,arrow_simon_norep,2021.1.2,Win32,60.0240096,,,,,,,,,,,,,,,,,,,,,p,1,1.755,54,TRUE,FALSE,13,1,53,0,1,,,,,,,
,,,,,,0,1.997961464,#a3d0fb,,right_blue.png,o,,,,,,o,right_blue.png,right_orange.png,p,left,5d4a41890e604c00011ade8b,001,2021-08-09_09h44.54.572,arrow_simon_norep,2021.1.2,Win32,60.0240096,,,,,,,,,,,,,,,,,,,,,o,1,1.507,55,FALSE,FALSE,13,2,54,0,1,,,,,,,
,,,,,,0,1.946130079,#f3af84,,left_orange.png,q,,,,,,w,left_blue.png,left_orange.png,q,left,5d4a41890e604c00011ade8b,001,2021-08-09_09h44.54.572,arrow_simon_norep,2021.1.2,Win32,60.0240096,,,,,,,,,,,,,,,,,,,,,q,1,1.524,56,FALSE,FALSE,13,3,55,2,1,,,,,,,
,,,,,,0,1.707329429,#a3d0fb,,left_blue.png,w,,,,,,w,left_blue.png,left_orange.png,q,right,5d4a41890e604c00011ade8b,001,2021-08-09_09h44.54.572,arrow_simon_norep,2021.1.2,Win32,60.0240096,,,,,,,,,,,,,,,,,,,,,o,0,1.112,57,FALSE,TRUE,14,0,56,3,1,,,,,,,
,,,,,,0,1.559251554,#f3af84,,left_orange.png,q,,,,,,w,left_blue.png,left_orange.png,q,left,5d4a41890e604c00011ade8b,001,2021-08-09_09h44.54.572,arrow_simon_norep,2021.1.2,Win32,60.0240096,,,,,,,,,,,,,,,,,,,,,q,1,1.443,58,FALSE,FALSE,14,1,57,2,1,,,,,,,
,,,,,,0,2.175812797,#a3d0fb,,right_blue.png,o,,,,,,o,right_blue.png,right_orange.png,p,left,5d4a41890e604c00011ade8b,001,2021-08-09_09h44.54.572,arrow_simon_norep,2021.1.2,Win32,60.0240096,,,,,,,,,,,,,,,,,,,,,o,1,1.611,59,TRUE,FALSE,14,2,58,0,1,,,,,,,
,,,,,,0,1.976789446,#f3af84,,left_orange.png,q,,,,,,w,left_blue.png,left_orange.png,q,right,5d4a41890e604c00011ade8b,001,2021-08-09_09h44.54.572,arrow_simon_norep,2021.1.2,Win32,60.0240096,,,,,,,,,,,,,,,,,,,,,q,1,1.56,60,FALSE,FALSE,14,3,59,3,1,,,,,,,
,,,,,,,,,,,,,,,,,,,,,,5d4a41890e604c00011ade8b,001,2021-08-09_09h44.54.572,arrow_simon_norep,2021.1.2,Win32,60.0240096,,,,,,,,,,,,,,,,,,,,,,,,,,,,,,,,space,153.348,0,0,0,0,1
,,,,,,0,2.281331361,#a3d0fb,,left_blue.png,w,,,,,,w,left_blue.png,left_orange.png,q,right,5d4a41890e604c00011ade8b,001,2021-08-09_09h44.54.572,arrow_simon_norep,2021.1.2,Win32,60.0240096,,,,,,,,,,,,,,,,,,,,,q,0,1.79,1,TRUE,FALSE,0,0,0,3,1,,,,,,,
,,,,,,0,2.214454642,#f3af84,,right_orange.png,p,,,,,,o,right_blue.png,right_orange.png,p,right,5d4a41890e604c00011ade8b,001,2021-08-09_09h44.54.572,arrow_simon_norep,2021.1.2,Win32,60.0240096,,,,,,,,,,,,,,,,,,,,,p,1,1.629,2,TRUE,FALSE,0,1,1,1,1,,,,,,,
,,,,,,1,2.212813917,#a3d0fb,,right_blue.png,o,,,,,,o,right_blue.png,right_orange.png,p,left,5d4a41890e604c00011ade8b,001,2021-08-09_09h44.54.572,arrow_simon_norep,2021.1.2,Win32,60.0240096,,,,,,,,,,,,,,,,,,,,,w,0,1.521,3,FALSE,FALSE,0,2,2,0,1,,,,,,,
,,,,,,0,1.934545307,#f3af84,,right_orange.png,p,,,,,,o,right_blue.png,right_orange.png,p,left,5d4a41890e604c00011ade8b,001,2021-08-09_09h44.54.572,arrow_simon_norep,2021.1.2,Win32,60.0240096,,,,,,,,,,,,,,,,,,,,,p,1,1.592,4,FALSE,FALSE,0,3,3,0,1,,,,,,,
,,,,,,0,1.993028194,#a3d0fb,,left_blue.png,w,,,,,,w,left_blue.png,left_orange.png,q,right,5d4a41890e604c00011ade8b,001,2021-08-09_09h44.54.572,arrow_simon_norep,2021.1.2,Win32,60.0240096,,,,,,,,,,,,,,,,,,,,,w,1,1.51,5,FALSE,FALSE,1,0,4,3,1,,,,,,,
,,,,,,0,1.99792882,#f3af84,,left_orange.png,q,,,,,,w,left_blue.png,left_orange.png,q,left,5d4a41890e604c00011ade8b,001,2021-08-09_09h44.54.572,arrow_simon_norep,2021.1.2,Win32,60.0240096,,,,,,,,,,,,,,,,,,,,,q,1,1.53,6,FALSE,FALSE,1,1,5,2,1,,,,,,,
,,,,,,0,1.855853088,#a3d0fb,,left_blue.png,w,,,,,,w,left_blue.png,left_orange.png,q,right,5d4a41890e604c00011ade8b,001,2021-08-09_09h44.54.572,arrow_simon_norep,2021.1.2,Win32,60.0240096,,,,,,,,,,,,,,,,,,,,,w,1,1.544,7,FALSE,FALSE,1,2,6,3,1,,,,,,,
,,,,,,0,1.774933638,#f3af84,,right_orange.png,p,,,,,,o,right_blue.png,right_orange.png,p,right,5d4a41890e604c00011ade8b,001,2021-08-09_09h44.54.572,arrow_simon_norep,2021.1.2,Win32,60.0240096,,,,,,,,,,,,,,,,,,,,,p,1,1.516,8,FALSE,FALSE,1,3,7,1,1,,,,,,,
,,,,,,0,2.494068679,#a3d0fb,,right_blue.png,o,,,,,,o,right_blue.png,right_orange.png,p,right,5d4a41890e604c00011ade8b,001,2021-08-09_09h44.54.572,arrow_simon_norep,2021.1.2,Win32,60.0240096,,,,,,,,,,,,,,,,,,,,,w,0,1.604,9,TRUE,FALSE,2,0,8,1,1,,,,,,,
,,,,,,0,2.030758306,#f3af84,,right_orange.png,p,,,,,,o,right_blue.png,right_orange.png,p,left,5d4a41890e604c00011ade8b,001,2021-08-09_09h44.54.572,arrow_simon_norep,2021.1.2,Win32,60.0240096,,,,,,,,,,,,,,,,,,,,,p,1,1.574,10,FALSE,FALSE,2,1,9,0,1,,,,,,,
,,,,,,0,1.607037555,#a3d0fb,,right_blue.png,o,,,,,,o,right_blue.png,right_orange.png,p,left,5d4a41890e604c00011ade8b,001,2021-08-09_09h44.54.572,arrow_simon_norep,2021.1.2,Win32,60.0240096,,,,,,,,,,,,,,,,,,,,,o,1,1.473,11,FALSE,FALSE,2,2,10,0,1,,,,,,,
,,,,,,0,2.366289466,#f3af84,,right_orange.png,p,,,,,,o,right_blue.png,right_orange.png,p,right,5d4a41890e604c00011ade8b,001,2021-08-09_09h44.54.572,arrow_simon_norep,2021.1.2,Win32,60.0240096,,,,,,,,,,,,,,,,,,,,,q,0,1.689,12,TRUE,FALSE,2,3,11,1,1,,,,,,,
,,,,,,0,1.509382866,#a3d0fb,,right_blue.png,o,,,,,,o,right_blue.png,right_orange.png,p,left,5d4a41890e604c00011ade8b,001,2021-08-09_09h44.54.572,arrow_simon_norep,2021.1.2,Win32,60.0240096,,,,,,,,,,,,,,,,,,,,,o,1,1.44,13,FALSE,FALSE,3,0,12,0,1,,,,,,,
,,,,,,0,2.054852963,#f3af84,,left_orange.png,q,,,,,,w,left_blue.png,left_orange.png,q,right,5d4a41890e604c00011ade8b,001,2021-08-09_09h44.54.572,arrow_simon_norep,2021.1.2,Win32,60.0240096,,,,,,,,,,,,,,,,,,,,,q,1,1.615,14,TRUE,FALSE,3,1,13,3,1,,,,,,,
,,,,,,0,1.558310042,#a3d0fb,,left_blue.png,w,,,,,,w,left_blue.png,left_orange.png,q,left,5d4a41890e604c00011ade8b,001,2021-08-09_09h44.54.572,arrow_simon_norep,2021.1.2,Win32,60.0240096,,,,,,,,,,,,,,,,,,,,,w,1,1.492,15,FALSE,FALSE,3,2,14,2,1,,,,,,,
,,,,,,0,1.884527237,#f3af84,,left_orange.png,q,,,,,,w,left_blue.png,left_orange.png,q,right,5d4a41890e604c00011ade8b,001,2021-08-09_09h44.54.572,arrow_simon_norep,2021.1.2,Win32,60.0240096,,,,,,,,,,,,,,,,,,,,,q,1,1.412,16,FALSE,FALSE,3,3,15,3,1,,,,,,,
,,,,,,0,2.48034269,#a3d0fb,,left_blue.png,w,,,,,,w,left_blue.png,left_orange.png,q,right,5d4a41890e604c00011ade8b,001,2021-08-09_09h44.54.572,arrow_simon_norep,2021.1.2,Win32,60.0240096,,,,,,,,,,,,,,,,,,,,,o,0,1.851,17,TRUE,FALSE,4,0,16,3,1,,,,,,,
,,,,,,0,1.723043422,#f3af84,,left_orange.png,q,,,,,,w,left_blue.png,left_orange.png,q,left,5d4a41890e604c00011ade8b,001,2021-08-09_09h44.54.572,arrow_simon_norep,2021.1.2,Win32,60.0240096,,,,,,,,,,,,,,,,,,,,,q,1,1.522,18,FALSE,FALSE,4,1,17,2,1,,,,,,,
,,,,,,0,2.028488759,#a3d0fb,,right_blue.png,o,,,,,,o,right_blue.png,right_orange.png,p,left,5d4a41890e604c00011ade8b,001,2021-08-09_09h44.54.572,arrow_simon_norep,2021.1.2,Win32,60.0240096,,,,,,,,,,,,,,,,,,,,,o,1,1.459,19,FALSE,FALSE,4,2,18,0,1,,,,,,,
,,,,,,0,2.083937776,#f3af84,,right_orange.png,p,,,,,,o,right_blue.png,right_orange.png,p,right,5d4a41890e604c00011ade8b,001,2021-08-09_09h44.54.572,arrow_simon_norep,2021.1.2,Win32,60.0240096,,,,,,,,,,,,,,,,,,,,,p,1,1.518,20,FALSE,FALSE,4,3,19,1,1,,,,,,,
,,,,,,0,1.836124425,#a3d0fb,,left_blue.png,w,,,,,,w,left_blue.png,left_orange.png,q,right,5d4a41890e604c00011ade8b,001,2021-08-09_09h44.54.572,arrow_simon_norep,2021.1.2,Win32,60.0240096,,,,,,,,,,,,,,,,,,,,,w,1,1.386,21,FALSE,TRUE,5,0,20,3,1,,,,,,,
,,,,,,0,2.268631195,#f3af84,,left_orange.png,q,,,,,,w,left_blue.png,left_orange.png,q,left,5d4a41890e604c00011ade8b,001,2021-08-09_09h44.54.572,arrow_simon_norep,2021.1.2,Win32,60.0240096,,,,,,,,,,,,,,,,,,,,,q,1,1.566,22,FALSE,FALSE,5,1,21,2,1,,,,,,,
,,,,,,0,1.78002932,#a3d0fb,,left_blue.png,w,,,,,,w,left_blue.png,left_orange.png,q,left,5d4a41890e604c00011ade8b,001,2021-08-09_09h44.54.572,arrow_simon_norep,2021.1.2,Win32,60.0240096,,,,,,,,,,,,,,,,,,,,,w,1,1.445,23,FALSE,FALSE,5,2,22,2,1,,,,,,,
,,,,,,0,2.120325248,#f3af84,,right_orange.png,p,,,,,,o,right_blue.png,right_orange.png,p,right,5d4a41890e604c00011ade8b,001,2021-08-09_09h44.54.572,arrow_simon_norep,2021.1.2,Win32,60.0240096,,,,,,,,,,,,,,,,,,,,,p,1,1.558,24,FALSE,FALSE,5,3,23,1,1,,,,,,,
,,,,,,0,2.187491366,#a3d0fb,,right_blue.png,o,,,,,,o,right_blue.png,right_orange.png,p,right,5d4a41890e604c00011ade8b,001,2021-08-09_09h44.54.572,arrow_simon_norep,2021.1.2,Win32,60.0240096,,,,,,,,,,,,,,,,,,,,,o,1,1.628,25,TRUE,FALSE,6,0,24,1,1,,,,,,,
,,,,,,0,1.765186122,#f3af84,,right_orange.png,p,,,,,,o,right_blue.png,right_orange.png,p,left,5d4a41890e604c00011ade8b,001,2021-08-09_09h44.54.572,arrow_simon_norep,2021.1.2,Win32,60.0240096,,,,,,,,,,,,,,,,,,,,,p,1,1.518,26,FALSE,FALSE,6,1,25,0,1,,,,,,,
,,,,,,0,1.971775589,#a3d0fb,,left_blue.png,w,,,,,,w,left_blue.png,left_orange.png,q,right,5d4a41890e604c00011ade8b,001,2021-08-09_09h44.54.572,arrow_simon_norep,2021.1.2,Win32,60.0240096,,,,,,,,,,,,,,,,,,,,,w,1,1.641,27,TRUE,FALSE,6,2,26,3,1,,,,,,,
,,,,,,0,1.867176445,#f3af84,,right_orange.png,p,,,,,,o,right_blue.png,right_orange.png,p,left,5d4a41890e604c00011ade8b,001,2021-08-09_09h44.54.572,arrow_simon_norep,2021.1.2,Win32,60.0240096,,,,,,,,,,,,,,,,,,,,,p,1,1.534,28,FALSE,FALSE,6,3,27,0,1,,,,,,,
,,,,,,0,2.117425025,#a3d0fb,,left_blue.png,w,,,,,,w,left_blue.png,left_orange.png,q,left,5d4a41890e604c00011ade8b,001,2021-08-09_09h44.54.572,arrow_simon_norep,2021.1.2,Win32,60.0240096,,,,,,,,,,,,,,,,,,,,,w,1,1.857,29,TRUE,FALSE,7,0,28,2,1,,,,,,,
,,,,,,0,2.403015694,#f3af84,,left_orange.png,q,,,,,,w,left_blue.png,left_orange.png,q,right,5d4a41890e604c00011ade8b,001,2021-08-09_09h44.54.572,arrow_simon_norep,2021.1.2,Win32,60.0240096,,,,,,,,,,,,,,,,,,,,,q,1,1.988,30,TRUE,FALSE,7,1,29,3,1,,,,,,,
,,,,,,0,1.571295628,#a3d0fb,,right_blue.png,o,,,,,,o,right_blue.png,right_orange.png,p,left,5d4a41890e604c00011ade8b,001,2021-08-09_09h44.54.572,arrow_simon_norep,2021.1.2,Win32,60.0240096,,,,,,,,,,,,,,,,,,,,,o,1,1.461,31,FALSE,FALSE,7,2,30,0,1,,,,,,,
,,,,,,0,1.86247259,#f3af84,,left_orange.png,q,,,,,,w,left_blue.png,left_orange.png,q,right,5d4a41890e604c00011ade8b,001,2021-08-09_09h44.54.572,arrow_simon_norep,2021.1.2,Win32,60.0240096,,,,,,,,,,,,,,,,,,,,,q,1,1.788,32,TRUE,FALSE,7,3,31,3,1,,,,,,,
,,,,,,0,2.056048051,#a3d0fb,,right_blue.png,o,,,,,,o,right_blue.png,right_orange.png,p,left,5d4a41890e604c00011ade8b,001,2021-08-09_09h44.54.572,arrow_simon_norep,2021.1.2,Win32,60.0240096,,,,,,,,,,,,,,,,,,,,,o,1,1.61,33,TRUE,FALSE,8,0,32,0,1,,,,,,,
,,,,,,0,2.113434077,#f3af84,,left_orange.png,q,,,,,,w,left_blue.png,left_orange.png,q,right,5d4a41890e604c00011ade8b,001,2021-08-09_09h44.54.572,arrow_simon_norep,2021.1.2,Win32,60.0240096,,,,,,,,,,,,,,,,,,,,,q,1,1.554,34,FALSE,FALSE,8,1,33,3,1,,,,,,,
,,,,,,0,1.502325259,#a3d0fb,,right_blue.png,o,,,,,,o,right_blue.png,right_orange.png,p,left,5d4a41890e604c00011ade8b,001,2021-08-09_09h44.54.572,arrow_simon_norep,2021.1.2,Win32,60.0240096,,,,,,,,,,,,,,,,,,,,,o,1,1.47,35,FALSE,FALSE,8,2,34,0,1,,,,,,,
,,,,,,0,2.463730294,#f3af84,,right_orange.png,p,,,,,,o,right_blue.png,right_orange.png,p,right,5d4a41890e604c00011ade8b,001,2021-08-09_09h44.54.572,arrow_simon_norep,2021.1.2,Win32,60.0240096,,,,,,,,,,,,,,,,,,,,,p,1,1.888,36,TRUE,FALSE,8,3,35,1,1,,,,,,,
,,,,,,0,1.660840742,#a3d0fb,,right_blue.png,o,,,,,,o,right_blue.png,right_orange.png,p,right,5d4a41890e604c00011ade8b,001,2021-08-09_09h44.54.572,arrow_simon_norep,2021.1.2,Win32,60.0240096,,,,,,,,,,,,,,,,,,,,,o,1,1.443,37,FALSE,FALSE,9,0,36,1,1,,,,,,,
,,,,,,0,1.61289175,#f3af84,,left_orange.png,q,,,,,,w,left_blue.png,left_orange.png,q,left,5d4a41890e604c00011ade8b,001,2021-08-09_09h44.54.572,arrow_simon_norep,2021.1.2,Win32,60.0240096,,,,,,,,,,,,,,,,,,,,,q,1,1.541,38,FALSE,FALSE,9,1,37,2,1,,,,,,,
,,,,,,0,2.028679164,#a3d0fb,,left_blue.png,w,,,,,,w,left_blue.png,left_orange.png,q,left,5d4a41890e604c00011ade8b,001,2021-08-09_09h44.54.572,arrow_simon_norep,2021.1.2,Win32,60.0240096,,,,,,,,,,,,,,,,,,,,,w,1,1.517,39,FALSE,FALSE,9,2,38,2,1,,,,,,,
,,,,,,0,1.555512855,#f3af84,,left_orange.png,q,,,,,,w,left_blue.png,left_orange.png,q,left,5d4a41890e604c00011ade8b,001,2021-08-09_09h44.54.572,arrow_simon_norep,2021.1.2,Win32,60.0240096,,,,,,,,,,,,,,,,,,,,,q,1,1.471,40,FALSE,FALSE,9,3,39,2,1,,,,,,,
,,,,,,0,2.195911182,#a3d0fb,,right_blue.png,o,,,,,,o,right_blue.png,right_orange.png,p,right,5d4a41890e604c00011ade8b,001,2021-08-09_09h44.54.572,arrow_simon_norep,2021.1.2,Win32,60.0240096,,,,,,,,,,,,,,,,,,,,,o,1,1.49,41,FALSE,FALSE,10,0,40,1,1,,,,,,,
,,,,,,0,2.174683972,#f3af84,,left_orange.png,q,,,,,,w,left_blue.png,left_orange.png,q,left,5d4a41890e604c00011ade8b,001,2021-08-09_09h44.54.572,arrow_simon_norep,2021.1.2,Win32,60.0240096,,,,,,,,,,,,,,,,,,,,,q,1,1.603,42,TRUE,FALSE,10,1,41,2,1,,,,,,,
,,,,,,0,2.301920273,#a3d0fb,,left_blue.png,w,,,,,,w,left_blue.png,left_orange.png,q,left,5d4a41890e604c00011ade8b,001,2021-08-09_09h44.54.572,arrow_simon_norep,2021.1.2,Win32,60.0240096,,,,,,,,,,,,,,,,,,,,,w,1,1.771,43,TRUE,FALSE,10,2,42,2,1,,,,,,,
,,,,,,0,2.049192576,#f3af84,,left_orange.png,q,,,,,,w,left_blue.png,left_orange.png,q,left,5d4a41890e604c00011ade8b,001,2021-08-09_09h44.54.572,arrow_simon_norep,2021.1.2,Win32,60.0240096,,,,,,,,,,,,,,,,,,,,,q,1,1.439,44,FALSE,FALSE,10,3,43,2,1,,,,,,,
,,,,,,0,2.038013855,#a3d0fb,,right_blue.png,o,,,,,,o,right_blue.png,right_orange.png,p,right,5d4a41890e604c00011ade8b,001,2021-08-09_09h44.54.572,arrow_simon_norep,2021.1.2,Win32,60.0240096,,,,,,,,,,,,,,,,,,,,,o,1,1.541,45,FALSE,FALSE,11,0,44,1,1,,,,,,,
,,,,,,0,2.208357213,#f3af84,,left_orange.png,q,,,,,,w,left_blue.png,left_orange.png,q,right,5d4a41890e604c00011ade8b,001,2021-08-09_09h44.54.572,arrow_simon_norep,2021.1.2,Win32,60.0240096,,,,,,,,,,,,,,,,,,,,,q,1,1.743,46,TRUE,FALSE,11,1,45,3,1,,,,,,,
,,,,,,0,1.759916481,#a3d0fb,,left_blue.png,w,,,,,,w,left_blue.png,left_orange.png,q,right,5d4a41890e604c00011ade8b,001,2021-08-09_09h44.54.572,arrow_simon_norep,2021.1.2,Win32,60.0240096,,,,,,,,,,,,,,,,,,,,,w,1,1.471,47,FALSE,FALSE,11,2,46,3,1,,,,,,,
,,,,,,0,2.403975829,#f3af84,,right_orange.png,p,,,,,,o,right_blue.png,right_orange.png,p,left,5d4a41890e604c00011ade8b,001,2021-08-09_09h44.54.572,arrow_simon_norep,2021.1.2,Win32,60.0240096,,,,,,,,,,,,,,,,,,,,,q,0,1.73,48,TRUE,FALSE,11,3,47,0,1,,,,,,,
,,,,,,1,1.706961845,#a3d0fb,,right_blue.png,o,,,,,,o,right_blue.png,right_orange.png,p,right,5d4a41890e604c00011ade8b,001,2021-08-09_09h44.54.572,arrow_simon_norep,2021.1.2,Win32,60.0240096,,,,,,,,,,,,,,,,,,,,,p,0,1.521,49,FALSE,FALSE,12,0,48,1,1,,,,,,,
,,,,,,0,1.682376594,#f3af84,,right_orange.png,p,,,,,,o,right_blue.png,right_orange.png,p,left,5d4a41890e604c00011ade8b,001,2021-08-09_09h44.54.572,arrow_simon_norep,2021.1.2,Win32,60.0240096,,,,,,,,,,,,,,,,,,,,,p,1,1.566,50,FALSE,FALSE,12,1,49,0,1,,,,,,,
,,,,,,0,2.447778047,#a3d0fb,,right_blue.png,o,,,,,,o,right_blue.png,right_orange.png,p,left,5d4a41890e604c00011ade8b,001,2021-08-09_09h44.54.572,arrow_simon_norep,2021.1.2,Win32,60.0240096,,,,,,,,,,,,,,,,,,,,,w,0,1.908,51,TRUE,FALSE,12,2,50,0,1,,,,,,,
,,,,,,0,1.895455474,#f3af84,,left_orange.png,q,,,,,,w,left_blue.png,left_orange.png,q,left,5d4a41890e604c00011ade8b,001,2021-08-09_09h44.54.572,arrow_simon_norep,2021.1.2,Win32,60.0240096,,,,,,,,,,,,,,,,,,,,,q,1,1.547,52,FALSE,FALSE,12,3,51,2,1,,,,,,,
,,,,,,0,1.992971898,#a3d0fb,,left_blue.png,w,,,,,,w,left_blue.png,left_orange.png,q,right,5d4a41890e604c00011ade8b,001,2021-08-09_09h44.54.572,arrow_simon_norep,2021.1.2,Win32,60.0240096,,,,,,,,,,,,,,,,,,,,,w,1,1.512,53,FALSE,FALSE,13,0,52,3,1,,,,,,,
,,,,,,0,2.251063665,#f3af84,,left_orange.png,q,,,,,,w,left_blue.png,left_orange.png,q,left,5d4a41890e604c00011ade8b,001,2021-08-09_09h44.54.572,arrow_simon_norep,2021.1.2,Win32,60.0240096,,,,,,,,,,,,,,,,,,,,,q,1,1.628,54,TRUE,FALSE,13,1,53,2,1,,,,,,,
,,,,,,0,1.922931598,#a3d0fb,,right_blue.png,o,,,,,,o,right_blue.png,right_orange.png,p,right,5d4a41890e604c00011ade8b,001,2021-08-09_09h44.54.572,arrow_simon_norep,2021.1.2,Win32,60.0240096,,,,,,,,,,,,,,,,,,,,,o,1,1.477,55,FALSE,FALSE,13,2,54,1,1,,,,,,,
,,,,,,0,2.28202927,#f3af84,,left_orange.png,q,,,,,,w,left_blue.png,left_orange.png,q,left,5d4a41890e604c00011ade8b,001,2021-08-09_09h44.54.572,arrow_simon_norep,2021.1.2,Win32,60.0240096,,,,,,,,,,,,,,,,,,,,,q,1,1.639,56,TRUE,FALSE,13,3,55,2,1,,,,,,,
,,,,,,0,2.217852518,#a3d0fb,,left_blue.png,w,,,,,,w,left_blue.png,left_orange.png,q,right,5d4a41890e604c00011ade8b,001,2021-08-09_09h44.54.572,arrow_simon_norep,2021.1.2,Win32,60.0240096,,,,,,,,,,,,,,,,,,,,,o,0,1.629,57,TRUE,FALSE,14,0,56,3,1,,,,,,,
,,,,,,0,2.273581398,#f3af84,,right_orange.png,p,,,,,,o,right_blue.png,right_orange.png,p,right,5d4a41890e604c00011ade8b,001,2021-08-09_09h44.54.572,arrow_simon_norep,2021.1.2,Win32,60.0240096,,,,,,,,,,,,,,,,,,,,,p,1,1.799,58,TRUE,FALSE,14,1,57,1,1,,,,,,,
,,,,,,1,2.303265211,#a3d0fb,,right_blue.png,o,,,,,,o,right_blue.png,right_orange.png,p,left,5d4a41890e604c00011ade8b,001,2021-08-09_09h44.54.572,arrow_simon_norep,2021.1.2,Win32,60.0240096,,,,,,,,,,,,,,,,,,,,,w,0,1.58,59,FALSE,FALSE,14,2,58,0,1,,,,,,,
,,,,,,1,2.443079563,#f3af84,,right_orange.png,p,,,,,,o,right_blue.png,right_orange.png,p,right,5d4a41890e604c00011ade8b,001,2021-08-09_09h44.54.572,arrow_simon_norep,2021.1.2,Win32,60.0240096,,,,,,,,,,,,,,,,,,,,,q,0,1.607,60,TRUE,FALSE,14,3,59,1,1,,,,,,,
,,,,,,,,,,,,,,,,,,,,,,5d4a41890e604c00011ade8b,001,2021-08-09_09h44.54.572,arrow_simon_norep,2021.1.2,Win32,60.0240096,,,,,,,,,,,,,,,,,,,,,,,,,,,,,,,,space,25.054,1,0,1,0,1
,,,,,,0,2.011116089,#a3d0fb,,left_blue.png,w,,,,,,w,left_blue.png,left_orange.png,q,right,5d4a41890e604c00011ade8b,001,2021-08-09_09h44.54.572,arrow_simon_norep,2021.1.2,Win32,60.0240096,,,,,,,,,,,,,,,,,,,,,w,1,1.533,1,FALSE,FALSE,0,0,0,3,1,,,,,,,
,,,,,,0,1.587657386,#f3af84,,left_orange.png,q,,,,,,w,left_blue.png,left_orange.png,q,right,5d4a41890e604c00011ade8b,001,2021-08-09_09h44.54.572,arrow_simon_norep,2021.1.2,Win32,60.0240096,,,,,,,,,,,,,,,,,,,,,q,1,1.222,2,FALSE,TRUE,0,1,1,3,1,,,,,,,
,,,,,,0,1.904071182,#a3d0fb,,right_blue.png,o,,,,,,o,right_blue.png,right_orange.png,p,left,5d4a41890e604c00011ade8b,001,2021-08-09_09h44.54.572,arrow_simon_norep,2021.1.2,Win32,60.0240096,,,,,,,,,,,,,,,,,,,,,o,1,1.552,3,FALSE,FALSE,0,2,2,0,1,,,,,,,
,,,,,,1,2.323432117,#f3af84,,left_orange.png,q,,,,,,w,left_blue.png,left_orange.png,q,right,5d4a41890e604c00011ade8b,001,2021-08-09_09h44.54.572,arrow_simon_norep,2021.1.2,Win32,60.0240096,,,,,,,,,,,,,,,,,,,,,p,0,1.562,4,FALSE,FALSE,0,3,3,3,1,,,,,,,
,,,,,,1,2.295636198,#a3d0fb,,left_blue.png,w,,,,,,w,left_blue.png,left_orange.png,q,left,5d4a41890e604c00011ade8b,001,2021-08-09_09h44.54.572,arrow_simon_norep,2021.1.2,Win32,60.0240096,,,,,,,,,,,,,,,,,,,,,q,0,1.672,5,TRUE,FALSE,1,0,4,2,1,,,,,,,
,,,,,,1,2.067852265,#f3af84,,left_orange.png,q,,,,,,w,left_blue.png,left_orange.png,q,left,5d4a41890e604c00011ade8b,001,2021-08-09_09h44.54.572,arrow_simon_norep,2021.1.2,Win32,60.0240096,,,,,,,,,,,,,,,,,,,,,q,1,1.624,6,TRUE,FALSE,1,1,5,2,1,,,,,,,
,,,,,,0,2.287051156,#a3d0fb,,right_blue.png,o,,,,,,o,right_blue.png,right_orange.png,p,right,5d4a41890e604c00011ade8b,001,2021-08-09_09h44.54.572,arrow_simon_norep,2021.1.2,Win32,60.0240096,,,,,,,,,,,,,,,,,,,,,o,1,1.562,7,FALSE,FALSE,1,2,6,1,1,,,,,,,
,,,,,,0,1.592355905,#f3af84,,right_orange.png,p,,,,,,o,right_blue.png,right_orange.png,p,left,5d4a41890e604c00011ade8b,001,2021-08-09_09h44.54.572,arrow_simon_norep,2021.1.2,Win32,60.0240096,,,,,,,,,,,,,,,,,,,,,p,1,1.544,8,FALSE,FALSE,1,3,7,0,1,,,,,,,
,,,,,,0,2.014598077,#a3d0fb,,left_blue.png,w,,,,,,w,left_blue.png,left_orange.png,q,left,5d4a41890e604c00011ade8b,001,2021-08-09_09h44.54.572,arrow_simon_norep,2021.1.2,Win32,60.0240096,,,,,,,,,,,,,,,,,,,,,w,1,1.613,9,TRUE,FALSE,2,0,8,2,1,,,,,,,
,,,,,,0,1.64637691,#f3af84,,left_orange.png,q,,,,,,w,left_blue.png,left_orange.png,q,left,5d4a41890e604c00011ade8b,001,2021-08-09_09h44.54.572,arrow_simon_norep,2021.1.2,Win32,60.0240096,,,,,,,,,,,,,,,,,,,,,q,1,1.536,10,FALSE,FALSE,2,1,9,2,1,,,,,,,
,,,,,,0,1.752957553,#a3d0fb,,left_blue.png,w,,,,,,w,left_blue.png,left_orange.png,q,right,5d4a41890e604c00011ade8b,001,2021-08-09_09h44.54.572,arrow_simon_norep,2021.1.2,Win32,60.0240096,,,,,,,,,,,,,,,,,,,,,w,1,1.522,11,FALSE,FALSE,2,2,10,3,1,,,,,,,
,,,,,,1,2.148710512,#f3af84,,left_orange.png,q,,,,,,w,left_blue.png,left_orange.png,q,right,5d4a41890e604c00011ade8b,001,2021-08-09_09h44.54.572,arrow_simon_norep,2021.1.2,Win32,60.0240096,,,,,,,,,,,,,,,,,,,,,p,0,1.553,12,FALSE,FALSE,2,3,11,3,1,,,,,,,
,,,,,,0,1.781121442,#a3d0fb,,right_blue.png,o,,,,,,o,right_blue.png,right_orange.png,p,left,5d4a41890e604c00011ade8b,001,2021-08-09_09h44.54.572,arrow_simon_norep,2021.1.2,Win32,60.0240096,,,,,,,,,,,,,,,,,,,,,o,1,1.541,13,FALSE,FALSE,3,0,12,0,1,,,,,,,
,,,,,,0,1.821823351,#f3af84,,left_orange.png,q,,,,,,w,left_blue.png,left_orange.png,q,right,5d4a41890e604c00011ade8b,001,2021-08-09_09h44.54.572,arrow_simon_norep,2021.1.2,Win32,60.0240096,,,,,,,,,,,,,,,,,,,,,q,1,1.41,14,FALSE,FALSE,3,1,13,3,1,,,,,,,
,,,,,,0,2.273874044,#a3d0fb,,right_blue.png,o,,,,,,o,right_blue.png,right_orange.png,p,left,5d4a41890e604c00011ade8b,001,2021-08-09_09h44.54.572,arrow_simon_norep,2021.1.2,Win32,60.0240096,,,,,,,,,,,,,,,,,,,,,o,1,1.518,15,FALSE,FALSE,3,2,14,0,1,,,,,,,
,,,,,,0,1.693940267,#f3af84,,right_orange.png,p,,,,,,o,right_blue.png,right_orange.png,p,right,5d4a41890e604c00011ade8b,001,2021-08-09_09h44.54.572,arrow_simon_norep,2021.1.2,Win32,60.0240096,,,,,,,,,,,,,,,,,,,,,p,1,1.472,16,FALSE,FALSE,3,3,15,1,1,,,,,,,
,,,,,,0,1.542150224,#a3d0fb,,right_blue.png,o,,,,,,o,right_blue.png,right_orange.png,p,left,5d4a41890e604c00011ade8b,001,2021-08-09_09h44.54.572,arrow_simon_norep,2021.1.2,Win32,60.0240096,,,,,,,,,,,,,,,,,,,,,o,1,1.457,17,FALSE,FALSE,4,0,16,0,1,,,,,,,
,,,,,,0,2.05741887,#f3af84,,left_orange.png,q,,,,,,w,left_blue.png,left_orange.png,q,left,5d4a41890e604c00011ade8b,001,2021-08-09_09h44.54.572,arrow_simon_norep,2021.1.2,Win32,60.0240096,,,,,,,,,,,,,,,,,,,,,q,1,1.543,18,FALSE,FALSE,4,1,17,2,1,,,,,,,
,,,,,,0,2.407260809,#a3d0fb,,right_blue.png,o,,,,,,o,right_blue.png,right_orange.png,p,right,5d4a41890e604c00011ade8b,001,2021-08-09_09h44.54.572,arrow_simon_norep,2021.1.2,Win32,60.0240096,,,,,,,,,,,,,,,,,,,,,o,1,1.578,19,FALSE,FALSE,4,2,18,1,1,,,,,,,
,,,,,,0,2.103517201,#f3af84,,left_orange.png,q,,,,,,w,left_blue.png,left_orange.png,q,right,5d4a41890e604c00011ade8b,001,2021-08-09_09h44.54.572,arrow_simon_norep,2021.1.2,Win32,60.0240096,,,,,,,,,,,,,,,,,,,,,q,1,1.646,20,TRUE,FALSE,4,3,19,3,1,,,,,,,
,,,,,,0,1.879369547,#a3d0fb,,left_blue.png,w,,,,,,w,left_blue.png,left_orange.png,q,right,5d4a41890e604c00011ade8b,001,2021-08-09_09h44.54.572,arrow_simon_norep,2021.1.2,Win32,60.0240096,,,,,,,,,,,,,,,,,,,,,w,1,1.62,21,TRUE,FALSE,5,0,20,3,1,,,,,,,
,,,,,,0,1.550898333,#f3af84,,right_orange.png,p,,,,,,o,right_blue.png,right_orange.png,p,right,5d4a41890e604c00011ade8b,001,2021-08-09_09h44.54.572,arrow_simon_norep,2021.1.2,Win32,60.0240096,,,,,,,,,,,,,,,,,,,,,p,1,1.492,22,FALSE,FALSE,5,1,21,1,1,,,,,,,
,,,,,,0,1.581821442,#a3d0fb,,left_blue.png,w,,,,,,w,left_blue.png,left_orange.png,q,left,5d4a41890e604c00011ade8b,001,2021-08-09_09h44.54.572,arrow_simon_norep,2021.1.2,Win32,60.0240096,,,,,,,,,,,,,,,,,,,,,w,1,1.498,23,FALSE,FALSE,5,2,22,2,1,,,,,,,
,,,,,,1,2.385219195,#f3af84,,right_orange.png,p,,,,,,o,right_blue.png,right_orange.png,p,left,5d4a41890e604c00011ade8b,001,2021-08-09_09h44.54.572,arrow_simon_norep,2021.1.2,Win32,60.0240096,,,,,,,,,,,,,,,,,,,,,q,0,1.558,24,FALSE,FALSE,5,3,23,0,1,,,,,,,
,,,,,,0,2.041445283,#a3d0fb,,left_blue.png,w,,,,,,w,left_blue.png,left_orange.png,q,left,5d4a41890e604c00011ade8b,001,2021-08-09_09h44.54.572,arrow_simon_norep,2021.1.2,Win32,60.0240096,,,,,,,,,,,,,,,,,,,,,w,1,1.593,25,FALSE,FALSE,6,0,24,2,1,,,,,,,
,,,,,,0,1.704582884,#f3af84,,left_orange.png,q,,,,,,w,left_blue.png,left_orange.png,q,right,5d4a41890e604c00011ade8b,001,2021-08-09_09h44.54.572,arrow_simon_norep,2021.1.2,Win32,60.0240096,,,,,,,,,,,,,,,,,,,,,q,1,1.507,26,FALSE,FALSE,6,1,25,3,1,,,,,,,
,,,,,,0,2.40370463,#a3d0fb,,left_blue.png,w,,,,,,w,left_blue.png,left_orange.png,q,right,5d4a41890e604c00011ade8b,001,2021-08-09_09h44.54.572,arrow_simon_norep,2021.1.2,Win32,60.0240096,,,,,,,,,,,,,,,,,,,,,w,1,1.895,27,TRUE,FALSE,6,2,26,3,1,,,,,,,
,,,,,,0,1.513247553,#f3af84,,right_orange.png,p,,,,,,o,right_blue.png,right_orange.png,p,right,5d4a41890e604c00011ade8b,001,2021-08-09_09h44.54.572,arrow_simon_norep,2021.1.2,Win32,60.0240096,,,,,,,,,,,,,,,,,,,,,o,0,1.285,28,FALSE,TRUE,6,3,27,1,1,,,,,,,
,,,,,,0,1.535024242,#a3d0fb,,right_blue.png,o,,,,,,o,right_blue.png,right_orange.png,p,left,5d4a41890e604c00011ade8b,001,2021-08-09_09h44.54.572,arrow_simon_norep,2021.1.2,Win32,60.0240096,,,,,,,,,,,,,,,,,,,,,o,1,1.037,29,FALSE,TRUE,7,0,28,0,1,,,,,,,
,,,,,,0,1.884753615,#f3af84,,left_orange.png,q,,,,,,w,left_blue.png,left_orange.png,q,right,5d4a41890e604c00011ade8b,001,2021-08-09_09h44.54.572,arrow_simon_norep,2021.1.2,Win32,60.0240096,,,,,,,,,,,,,,,,,,,,,q,1,1.473,30,FALSE,FALSE,7,1,29,3,1,,,,,,,
,,,,,,0,2.110803059,#a3d0fb,,right_blue.png,o,,,,,,o,right_blue.png,right_orange.png,p,right,5d4a41890e604c00011ade8b,001,2021-08-09_09h44.54.572,arrow_simon_norep,2021.1.2,Win32,60.0240096,,,,,,,,,,,,,,,,,,,,,o,1,1.704,31,TRUE,FALSE,7,2,30,1,1,,,,,,,
,,,,,,0,2.487734355,#f3af84,,right_orange.png,p,,,,,,o,right_blue.png,right_orange.png,p,right,5d4a41890e604c00011ade8b,001,2021-08-09_09h44.54.572,arrow_simon_norep,2021.1.2,Win32,60.0240096,,,,,,,,,,,,,,,,,,,,,p,1,1.978,32,TRUE,FALSE,7,3,31,1,1,,,,,,,
,,,,,,0,2.20856072,#a3d0fb,,right_blue.png,o,,,,,,o,right_blue.png,right_orange.png,p,right,5d4a41890e604c00011ade8b,001,2021-08-09_09h44.54.572,arrow_simon_norep,2021.1.2,Win32,60.0240096,,,,,,,,,,,,,,,,,,,,,o,1,1.66,33,TRUE,FALSE,8,0,32,1,1,,,,,,,
,,,,,,0,1.922189738,#f3af84,,right_orange.png,p,,,,,,o,right_blue.png,right_orange.png,p,left,5d4a41890e604c00011ade8b,001,2021-08-09_09h44.54.572,arrow_simon_norep,2021.1.2,Win32,60.0240096,,,,,,,,,,,,,,,,,,,,,p,1,1.62,34,TRUE,FALSE,8,1,33,0,1,,,,,,,
,,,,,,0,2.403152682,#a3d0fb,,right_blue.png,o,,,,,,o,right_blue.png,right_orange.png,p,right,5d4a41890e604c00011ade8b,001,2021-08-09_09h44.54.572,arrow_simon_norep,2021.1.2,Win32,60.0240096,,,,,,,,,,,,,,,,,,,,,o,1,1.518,35,FALSE,FALSE,8,2,34,1,1,,,,,,,
,,,,,,0,1.83694998,#f3af84,,right_orange.png,p,,,,,,o,right_blue.png,right_orange.png,p,left,5d4a41890e604c00011ade8b,001,2021-08-09_09h44.54.572,arrow_simon_norep,2021.1.2,Win32,60.0240096,,,,,,,,,,,,,,,,,,,,,p,1,1.61,36,TRUE,FALSE,8,3,35,0,1,,,,,,,
,,,,,,1,2.030603511,#a3d0fb,,right_blue.png,o,,,,,,o,right_blue.png,right_orange.png,p,right,5d4a41890e604c00011ade8b,001,2021-08-09_09h44.54.572,arrow_simon_norep,2021.1.2,Win32,60.0240096,,,,,,,,,,,,,,,,,,,,,p,0,1.541,37,FALSE,FALSE,9,0,36,1,1,,,,,,,
,,,,,,0,2.218764398,#f3af84,,left_orange.png,q,,,,,,w,left_blue.png,left_orange.png,q,left,5d4a41890e604c00011ade8b,001,2021-08-09_09h44.54.572,arrow_simon_norep,2021.1.2,Win32,60.0240096,,,,,,,,,,,,,,,,,,,,,q,1,1.6,38,FALSE,FALSE,9,1,37,2,1,,,,,,,
,,,,,,0,1.74751826,#a3d0fb,,right_blue.png,o,,,,,,o,right_blue.png,right_orange.png,p,left,5d4a41890e604c00011ade8b,001,2021-08-09_09h44.54.572,arrow_simon_norep,2021.1.2,Win32,60.0240096,,,,,,,,,,,,,,,,,,,,,o,1,1.544,39,FALSE,FALSE,9,2,38,0,1,,,,,,,
,,,,,,1,2.422155502,#f3af84,,left_orange.png,q,,,,,,w,left_blue.png,left_orange.png,q,left,5d4a41890e604c00011ade8b,001,2021-08-09_09h44.54.572,arrow_simon_norep,2021.1.2,Win32,60.0240096,,,,,,,,,,,,,,,,,,,,,p,0,1.528,40,FALSE,FALSE,9,3,39,2,1,,,,,,,
,,,,,,0,1.88496712,#a3d0fb,,left_blue.png,w,,,,,,w,left_blue.png,left_orange.png,q,left,5d4a41890e604c00011ade8b,001,2021-08-09_09h44.54.572,arrow_simon_norep,2021.1.2,Win32,60.0240096,,,,,,,,,,,,,,,,,,,,,w,1,1.505,41,FALSE,FALSE,10,0,40,2,1,,,,,,,
,,,,,,0,2.087556625,#f3af84,,right_orange.png,p,,,,,,o,right_blue.png,right_orange.png,p,right,5d4a41890e604c00011ade8b,001,2021-08-09_09h44.54.572,arrow_simon_norep,2021.1.2,Win32,60.0240096,,,,,,,,,,,,,,,,,,,,,p,1,1.523,42,FALSE,FALSE,10,1,41,1,1,,,,,,,
,,,,,,0,2.084961631,#a3d0fb,,left_blue.png,w,,,,,,w,left_blue.png,left_orange.png,q,right,5d4a41890e604c00011ade8b,001,2021-08-09_09h44.54.572,arrow_simon_norep,2021.1.2,Win32,60.0240096,,,,,,,,,,,,,,,,,,,,,w,1,1.553,43,FALSE,FALSE,10,2,42,3,1,,,,,,,
,,,,,,0,1.778944134,#f3af84,,right_orange.png,p,,,,,,o,right_blue.png,right_orange.png,p,left,5d4a41890e604c00011ade8b,001,2021-08-09_09h44.54.572,arrow_simon_norep,2021.1.2,Win32,60.0240096,,,,,,,,,,,,,,,,,,,,,p,1,1.406,44,FALSE,FALSE,10,3,43,0,1,,,,,,,
,,,,,,0,2.231470094,#a3d0fb,,left_blue.png,w,,,,,,w,left_blue.png,left_orange.png,q,left,5d4a41890e604c00011ade8b,001,2021-08-09_09h44.54.572,arrow_simon_norep,2021.1.2,Win32,60.0240096,,,,,,,,,,,,,,,,,,,,,w,1,1.593,45,FALSE,FALSE,11,0,44,2,1,,,,,,,
,,,,,,0,1.665406096,#f3af84,,right_orange.png,p,,,,,,o,right_blue.png,right_orange.png,p,right,5d4a41890e604c00011ade8b,001,2021-08-09_09h44.54.572,arrow_simon_norep,2021.1.2,Win32,60.0240096,,,,,,,,,,,,,,,,,,,,,p,1,1.461,46,FALSE,FALSE,11,1,45,1,1,,,,,,,
,,,,,,0,2.050048607,#a3d0fb,,right_blue.png,o,,,,,,o,right_blue.png,right_orange.png,p,left,5d4a41890e604c00011ade8b,001,2021-08-09_09h44.54.572,arrow_simon_norep,2021.1.2,Win32,60.0240096,,,,,,,,,,,,,,,,,,,,,o,1,1.528,47,FALSE,FALSE,11,2,46,0,1,,,,,,,
,,,,,,0,2.29229003,#f3af84,,left_orange.png,q,,,,,,w,left_blue.png,left_orange.png,q,left,5d4a41890e604c00011ade8b,001,2021-08-09_09h44.54.572,arrow_simon_norep,2021.1.2,Win32,60.0240096,,,,,,,,,,,,,,,,,,,,,q,1,1.55,48,FALSE,FALSE,11,3,47,2,1,,,,,,,
,,,,,,0,2.381045427,#a3d0fb,,right_blue.png,o,,,,,,o,right_blue.png,right_orange.png,p,right,5d4a41890e604c00011ade8b,001,2021-08-09_09h44.54.572,arrow_simon_norep,2021.1.2,Win32,60.0240096,,,,,,,,,,,,,,,,,,,,,o,1,1.742,49,TRUE,FALSE,12,0,48,1,1,,,,,,,
,,,,,,0,2.269679557,#f3af84,,left_orange.png,q,,,,,,w,left_blue.png,left_orange.png,q,left,5d4a41890e604c00011ade8b,001,2021-08-09_09h44.54.572,arrow_simon_norep,2021.1.2,Win32,60.0240096,,,,,,,,,,,,,,,,,,,,,q,1,1.679,50,TRUE,FALSE,12,1,49,2,1,,,,,,,
,,,,,,0,1.940575128,#a3d0fb,,left_blue.png,w,,,,,,w,left_blue.png,left_orange.png,q,right,5d4a41890e604c00011ade8b,001,2021-08-09_09h44.54.572,arrow_simon_norep,2021.1.2,Win32,60.0240096,,,,,,,,,,,,,,,,,,,,,w,1,1.536,51,FALSE,FALSE,12,2,50,3,1,,,,,,,
,,,,,,0,1.744882605,#f3af84,,left_orange.png,q,,,,,,w,left_blue.png,left_orange.png,q,right,5d4a41890e604c00011ade8b,001,2021-08-09_09h44.54.572,arrow_simon_norep,2021.1.2,Win32,60.0240096,,,,,,,,,,,,,,,,,,,,,q,1,1.471,52,FALSE,FALSE,12,3,51,3,1,,,,,,,
,,,,,,0,1.640894061,#a3d0fb,,right_blue.png,o,,,,,,o,right_blue.png,right_orange.png,p,left,5d4a41890e604c00011ade8b,001,2021-08-09_09h44.54.572,arrow_simon_norep,2021.1.2,Win32,60.0240096,,,,,,,,,,,,,,,,,,,,,o,1,1.273,53,FALSE,TRUE,13,0,52,0,1,,,,,,,
,,,,,,0,2.119354677,#f3af84,,left_orange.png,q,,,,,,w,left_blue.png,left_orange.png,q,right,5d4a41890e604c00011ade8b,001,2021-08-09_09h44.54.572,arrow_simon_norep,2021.1.2,Win32,60.0240096,,,,,,,,,,,,,,,,,,,,,q,1,1.546,54,FALSE,FALSE,13,1,53,3,1,,,,,,,
,,,,,,0,2.094441234,#a3d0fb,,right_blue.png,o,,,,,,o,right_blue.png,right_orange.png,p,right,5d4a41890e604c00011ade8b,001,2021-08-09_09h44.54.572,arrow_simon_norep,2021.1.2,Win32,60.0240096,,,,,,,,,,,,,,,,,,,,,o,1,1.601,55,TRUE,FALSE,13,2,54,1,1,,,,,,,
,,,,,,0,1.504052338,#f3af84,,left_orange.png,q,,,,,,w,left_blue.png,left_orange.png,q,left,5d4a41890e604c00011ade8b,001,2021-08-09_09h44.54.572,arrow_simon_norep,2021.1.2,Win32,60.0240096,,,,,,,,,,,,,,,,,,,,,q,1,1.174,56,FALSE,TRUE,13,3,55,2,1,,,,,,,
,,,,,,0,1.818801354,#a3d0fb,,right_blue.png,o,,,,,,o,right_blue.png,right_orange.png,p,left,5d4a41890e604c00011ade8b,001,2021-08-09_09h44.54.572,arrow_simon_norep,2021.1.2,Win32,60.0240096,,,,,,,,,,,,,,,,,,,,,o,1,1.95,57,TRUE,FALSE,14,0,56,0,1,,,,,,,
,,,,,,0,2.225815397,#f3af84,,left_orange.png,q,,,,,,w,left_blue.png,left_orange.png,q,left,5d4a41890e604c00011ade8b,001,2021-08-09_09h44.54.572,arrow_simon_norep,2021.1.2,Win32,60.0240096,,,,,,,,,,,,,,,,,,,,,q,1,1.49,58,FALSE,FALSE,14,1,57,2,1,,,,,,,
,,,,,,0,1.779493218,#a3d0fb,,right_blue.png,o,,,,,,o,right_blue.png,right_orange.png,p,left,5d4a41890e604c00011ade8b,001,2021-08-09_09h44.54.572,arrow_simon_norep,2021.1.2,Win32,60.0240096,,,,,,,,,,,,,,,,,,,,,o,1,1.553,59,FALSE,FALSE,14,2,58,0,1,,,,,,,
,,,,,,0,1.944148441,#f3af84,,right_orange.png,p,,,,,,o,right_blue.png,right_orange.png,p,right,5d4a41890e604c00011ade8b,001,2021-08-09_09h44.54.572,arrow_simon_norep,2021.1.2,Win32,60.0240096,,,,,,,,,,,,,,,,,,,,,p,1,1.542,60,FALSE,FALSE,14,3,59,1,1,,,,,,,
,,,,,,,,,,,,,,,,,,,,,,5d4a41890e604c00011ade8b,001,2021-08-09_09h44.54.572,arrow_simon_norep,2021.1.2,Win32,60.0240096,,,,,,,,,,,,,,,,,,,,,,,,,,,,,,,,space,1.364,2,0,2,0,1
,,,,,,1,2.088277889,#a3d0fb,,left_blue.png,w,,,,,,w,left_blue.png,left_orange.png,q,left,5d4a41890e604c00011ade8b,001,2021-08-09_09h44.54.572,arrow_simon_norep,2021.1.2,Win32,60.0240096,,,,,,,,,,,,,,,,,,,,,q,0,1.551,1,FALSE,FALSE,0,0,0,2,1,,,,,,,
,,,,,,1,2.355348275,#f3af84,,left_orange.png,q,,,,,,w,left_blue.png,left_orange.png,q,right,5d4a41890e604c00011ade8b,001,2021-08-09_09h44.54.572,arrow_simon_norep,2021.1.2,Win32,60.0240096,,,,,,,,,,,,,,,,,,,,,q,1,1.913,2,TRUE,FALSE,0,1,1,3,1,,,,,,,
,,,,,,1,2.279276659,#a3d0fb,,left_blue.png,w,,,,,,w,left_blue.png,left_orange.png,q,left,5d4a41890e604c00011ade8b,001,2021-08-09_09h44.54.572,arrow_simon_norep,2021.1.2,Win32,60.0240096,,,,,,,,,,,,,,,,,,,,,w,1,1.724,3,TRUE,FALSE,0,2,2,2,1,,,,,,,
,,,,,,0,1.92349935,#f3af84,,left_orange.png,q,,,,,,w,left_blue.png,left_orange.png,q,right,5d4a41890e604c00011ade8b,001,2021-08-09_09h44.54.572,arrow_simon_norep,2021.1.2,Win32,60.0240096,,,,,,,,,,,,,,,,,,,,,q,1,1.526,4,FALSE,FALSE,0,3,3,3,1,,,,,,,
,,,,,,0,1.651721383,#a3d0fb,,left_blue.png,w,,,,,,w,left_blue.png,left_orange.png,q,right,5d4a41890e604c00011ade8b,001,2021-08-09_09h44.54.572,arrow_simon_norep,2021.1.2,Win32,60.0240096,,,,,,,,,,,,,,,,,,,,,w,1,1.48,5,FALSE,FALSE,1,0,4,3,1,,,,,,,
,,,,,,0,2.271635047,#f3af84,,right_orange.png,p,,,,,,o,right_blue.png,right_orange.png,p,left,5d4a41890e604c00011ade8b,001,2021-08-09_09h44.54.572,arrow_simon_norep,2021.1.2,Win32,60.0240096,,,,,,,,,,,,,,,,,,,,,q,0,1.61,6,TRUE,FALSE,1,1,5,0,1,,,,,,,
,,,,,,1,2.409924433,#a3d0fb,,right_blue.png,o,,,,,,o,right_blue.png,right_orange.png,p,right,5d4a41890e604c00011ade8b,001,2021-08-09_09h44.54.572,arrow_simon_norep,2021.1.2,Win32,60.0240096,,,,,,,,,,,,,,,,,,,,,w,0,1.551,7,FALSE,FALSE,1,2,6,1,1,,,,,,,
,,,,,,1,1.927190826,#f3af84,,left_orange.png,q,,,,,,w,left_blue.png,left_orange.png,q,left,5d4a41890e604c00011ade8b,001,2021-08-09_09h44.54.572,arrow_simon_norep,2021.1.2,Win32,60.0240096,,,,,,,,,,,,,,,,,,,,,q,1,1.895,8,TRUE,FALSE,1,3,7,2,1,,,,,,,
,,,,,,1,1.607217794,#a3d0fb,,right_blue.png,o,,,,,,o,right_blue.png,right_orange.png,p,left,5d4a41890e604c00011ade8b,001,2021-08-09_09h44.54.572,arrow_simon_norep,2021.1.2,Win32,60.0240096,,,,,,,,,,,,,,,,,,,,,o,1,1.22,9,FALSE,TRUE,2,0,8,0,1,,,,,,,
,,,,,,1,2.385142854,#f3af84,,right_orange.png,p,,,,,,o,right_blue.png,right_orange.png,p,left,5d4a41890e604c00011ade8b,001,2021-08-09_09h44.54.572,arrow_simon_norep,2021.1.2,Win32,60.0240096,,,,,,,,,,,,,,,,,,,,,p,1,1.763,10,TRUE,FALSE,2,1,9,0,1,,,,,,,
,,,,,,1,2.323711398,#a3d0fb,,left_blue.png,w,,,,,,w,left_blue.png,left_orange.png,q,left,5d4a41890e604c00011ade8b,001,2021-08-09_09h44.54.572,arrow_simon_norep,2021.1.2,Win32,60.0240096,,,,,,,,,,,,,,,,,,,,,w,1,1.727,11,TRUE,FALSE,2,2,10,2,1,,,,,,,
,,,,,,1,2.496106102,#f3af84,,right_orange.png,p,,,,,,o,right_blue.png,right_orange.png,p,left,5d4a41890e604c00011ade8b,001,2021-08-09_09h44.54.572,arrow_simon_norep,2021.1.2,Win32,60.0240096,,,,,,,,,,,,,,,,,,,,,q,0,1.543,12,FALSE,FALSE,2,3,11,0,1,,,,,,,
,,,,,,0,2.055977735,#a3d0fb,,left_blue.png,w,,,,,,w,left_blue.png,left_orange.png,q,left,5d4a41890e604c00011ade8b,001,2021-08-09_09h44.54.572,arrow_simon_norep,2021.1.2,Win32,60.0240096,,,,,,,,,,,,,,,,,,,,,w,1,1.52,13,FALSE,FALSE,3,0,12,2,1,,,,,,,
,,,,,,1,2.199877821,#f3af84,,left_orange.png,q,,,,,,w,left_blue.png,left_orange.png,q,right,5d4a41890e604c00011ade8b,001,2021-08-09_09h44.54.572,arrow_simon_norep,2021.1.2,Win32,60.0240096,,,,,,,,,,,,,,,,,,,,,p,0,1.518,14,FALSE,FALSE,3,1,13,3,1,,,,,,,
,,,,,,1,1.917771648,#a3d0fb,,left_blue.png,w,,,,,,w,left_blue.png,left_orange.png,q,right,5d4a41890e604c00011ade8b,001,2021-08-09_09h44.54.572,arrow_simon_norep,2021.1.2,Win32,60.0240096,,,,,,,,,,,,,,,,,,,,,w,1,1.616,15,TRUE,FALSE,3,2,14,3,1,,,,,,,
,,,,,,0,1.759097186,#f3af84,,left_orange.png,q,,,,,,w,left_blue.png,left_orange.png,q,left,5d4a41890e604c00011ade8b,001,2021-08-09_09h44.54.572,arrow_simon_norep,2021.1.2,Win32,60.0240096,,,,,,,,,,,,,,,,,,,,,q,1,1.418,16,FALSE,FALSE,3,3,15,2,1,,,,,,,
,,,,,,0,2.186867274,#a3d0fb,,right_blue.png,o,,,,,,o,right_blue.png,right_orange.png,p,right,5d4a41890e604c00011ade8b,001,2021-08-09_09h44.54.572,arrow_simon_norep,2021.1.2,Win32,60.0240096,,,,,,,,,,,,,,,,,,,,,o,1,1.674,17,TRUE,FALSE,4,0,16,1,1,,,,,,,
,,,,,,0,1.52634568,#f3af84,,left_orange.png,q,,,,,,w,left_blue.png,left_orange.png,q,left,5d4a41890e604c00011ade8b,001,2021-08-09_09h44.54.572,arrow_simon_norep,2021.1.2,Win32,60.0240096,,,,,,,,,,,,,,,,,,,,,q,1,1.606,18,TRUE,FALSE,4,1,17,2,1,,,,,,,
,,,,,,0,2.050237852,#a3d0fb,,right_blue.png,o,,,,,,o,right_blue.png,right_orange.png,p,left,5d4a41890e604c00011ade8b,001,2021-08-09_09h44.54.572,arrow_simon_norep,2021.1.2,Win32,60.0240096,,,,,,,,,,,,,,,,,,,,,o,1,1.538,19,FALSE,FALSE,4,2,18,0,1,,,,,,,
,,,,,,0,2.055082739,#f3af84,,left_orange.png,q,,,,,,w,left_blue.png,left_orange.png,q,right,5d4a41890e604c00011ade8b,001,2021-08-09_09h44.54.572,arrow_simon_norep,2021.1.2,Win32,60.0240096,,,,,,,,,,,,,,,,,,,,,q,1,1.58,20,FALSE,FALSE,4,3,19,3,1,,,,,,,
,,,,,,1,2.305385342,#a3d0fb,,left_blue.png,w,,,,,,w,left_blue.png,left_orange.png,q,right,5d4a41890e604c00011ade8b,001,2021-08-09_09h44.54.572,arrow_simon_norep,2021.1.2,Win32,60.0240096,,,,,,,,,,,,,,,,,,,,,o,0,1.598,21,FALSE,FALSE,5,0,20,3,1,,,,,,,
,,,,,,1,2.494158468,#f3af84,,right_orange.png,p,,,,,,o,right_blue.png,right_orange.png,p,left,5d4a41890e604c00011ade8b,001,2021-08-09_09h44.54.572,arrow_simon_norep,2021.1.2,Win32,60.0240096,,,,,,,,,,,,,,,,,,,,,q,0,1.605,22,TRUE,FALSE,5,1,21,0,1,,,,,,,
,,,,,,0,1.826317599,#a3d0fb,,left_blue.png,w,,,,,,w,left_blue.png,left_orange.png,q,right,5d4a41890e604c00011ade8b,001,2021-08-09_09h44.54.572,arrow_simon_norep,2021.1.2,Win32,60.0240096,,,,,,,,,,,,,,,,,,,,,w,1,1.5,23,FALSE,FALSE,5,2,22,3,1,,,,,,,
,,,,,,0,1.992142961,#f3af84,,right_orange.png,p,,,,,,o,right_blue.png,right_orange.png,p,right,5d4a41890e604c00011ade8b,001,2021-08-09_09h44.54.572,arrow_simon_norep,2021.1.2,Win32,60.0240096,,,,,,,,,,,,,,,,,,,,,p,1,1.611,24,TRUE,FALSE,5,3,23,1,1,,,,,,,
,,,,,,0,2.285256097,#a3d0fb,,left_blue.png,w,,,,,,w,left_blue.png,left_orange.png,q,left,5d4a41890e604c00011ade8b,001,2021-08-09_09h44.54.572,arrow_simon_norep,2021.1.2,Win32,60.0240096,,,,,,,,,,,,,,,,,,,,,w,1,1.66,25,TRUE,FALSE,6,0,24,2,1,,,,,,,
,,,,,,0,2.20105658,#f3af84,,right_orange.png,p,,,,,,o,right_blue.png,right_orange.png,p,right,5d4a41890e604c00011ade8b,001,2021-08-09_09h44.54.572,arrow_simon_norep,2021.1.2,Win32,60.0240096,,,,,,,,,,,,,,,,,,,,,p,1,1.635,26,TRUE,FALSE,6,1,25,1,1,,,,,,,
,,,,,,0,2.468555857,#a3d0fb,,right_blue.png,o,,,,,,o,right_blue.png,right_orange.png,p,left,5d4a41890e604c00011ade8b,001,2021-08-09_09h44.54.572,arrow_simon_norep,2021.1.2,Win32,60.0240096,,,,,,,,,,,,,,,,,,,,,w,0,1.652,27,TRUE,FALSE,6,2,26,0,1,,,,,,,
,,,,,,0,2.119414786,#f3af84,,right_orange.png,p,,,,,,o,right_blue.png,right_orange.png,p,right,5d4a41890e604c00011ade8b,001,2021-08-09_09h44.54.572,arrow_simon_norep,2021.1.2,Win32,60.0240096,,,,,,,,,,,,,,,,,,,,,p,1,1.563,28,FALSE,FALSE,6,3,27,1,1,,,,,,,
,,,,,,0,2.442541712,#a3d0fb,,left_blue.png,w,,,,,,w,left_blue.png,left_orange.png,q,right,5d4a41890e604c00011ade8b,001,2021-08-09_09h44.54.572,arrow_simon_norep,2021.1.2,Win32,60.0240096,,,,,,,,,,,,,,,,,,,,,o,0,1.976,29,TRUE,FALSE,7,0,28,3,1,,,,,,,
,,,,,,0,2.356827372,#f3af84,,left_orange.png,q,,,,,,w,left_blue.png,left_orange.png,q,right,5d4a41890e604c00011ade8b,001,2021-08-09_09h44.54.572,arrow_simon_norep,2021.1.2,Win32,60.0240096,,,,,,,,,,,,,,,,,,,,,q,1,1.668,30,TRUE,FALSE,7,1,29,3,1,,,,,,,
,,,,,,0,1.762618895,#a3d0fb,,right_blue.png,o,,,,,,o,right_blue.png,right_orange.png,p,right,5d4a41890e604c00011ade8b,001,2021-08-09_09h44.54.572,arrow_simon_norep,2021.1.2,Win32,60.0240096,,,,,,,,,,,,,,,,,,,,,o,1,1.42,31,FALSE,FALSE,7,2,30,1,1,,,,,,,
,,,,,,1,2.350863069,#f3af84,,right_orange.png,p,,,,,,o,right_blue.png,right_orange.png,p,right,5d4a41890e604c00011ade8b,001,2021-08-09_09h44.54.572,arrow_simon_norep,2021.1.2,Win32,60.0240096,,,,,,,,,,,,,,,,,,,,,q,0,1.59,32,FALSE,FALSE,7,3,31,1,1,,,,,,,
,,,,,,0,1.597164012,#a3d0fb,,right_blue.png,o,,,,,,o,right_blue.png,right_orange.png,p,left,5d4a41890e604c00011ade8b,001,2021-08-09_09h44.54.572,arrow_simon_norep,2021.1.2,Win32,60.0240096,,,,,,,,,,,,,,,,,,,,,o,1,1.443,33,FALSE,FALSE,8,0,32,0,1,,,,,,,
,,,,,,0,1.572048613,#f3af84,,left_orange.png,q,,,,,,w,left_blue.png,left_orange.png,q,right,5d4a41890e604c00011ade8b,001,2021-08-09_09h44.54.572,arrow_simon_norep,2021.1.2,Win32,60.0240096,,,,,,,,,,,,,,,,,,,,,q,1,1.453,34,FALSE,FALSE,8,1,33,3,1,,,,,,,
,,,,,,0,2.132778379,#a3d0fb,,left_blue.png,w,,,,,,w,left_blue.png,left_orange.png,q,left,5d4a41890e604c00011ade8b,001,2021-08-09_09h44.54.572,arrow_simon_norep,2021.1.2,Win32,60.0240096,,,,,,,,,,,,,,,,,,,,,w,1,1.585,35,FALSE,FALSE,8,2,34,2,1,,,,,,,
,,,,,,0,1.753184588,#f3af84,,right_orange.png,p,,,,,,o,right_blue.png,right_orange.png,p,left,5d4a41890e604c00011ade8b,001,2021-08-09_09h44.54.572,arrow_simon_norep,2021.1.2,Win32,60.0240096,,,,,,,,,,,,,,,,,,,,,p,1,1.504,36,FALSE,FALSE,8,3,35,0,1,,,,,,,
,,,,,,0,1.58253381,#a3d0fb,,left_blue.png,w,,,,,,w,left_blue.png,left_orange.png,q,left,5d4a41890e604c00011ade8b,001,2021-08-09_09h44.54.572,arrow_simon_norep,2021.1.2,Win32,60.0240096,,,,,,,,,,,,,,,,,,,,,w,1,1.474,37,FALSE,FALSE,9,0,36,2,1,,,,,,,
,,,,,,0,2.313084947,#f3af84,,left_orange.png,q,,,,,,w,left_blue.png,left_orange.png,q,right,5d4a41890e604c00011ade8b,001,2021-08-09_09h44.54.572,arrow_simon_norep,2021.1.2,Win32,60.0240096,,,,,,,,,,,,,,,,,,,,,p,0,1.767,38,TRUE,FALSE,9,1,37,3,1,,,,,,,
,,,,,,0,1.906405549,#a3d0fb,,left_blue.png,w,,,,,,w,left_blue.png,left_orange.png,q,left,5d4a41890e604c00011ade8b,001,2021-08-09_09h44.54.572,arrow_simon_norep,2021.1.2,Win32,60.0240096,,,,,,,,,,,,,,,,,,,,,w,1,1.498,39,FALSE,FALSE,9,2,38,2,1,,,,,,,
,,,,,,0,2.398035494,#f3af84,,right_orange.png,p,,,,,,o,right_blue.png,right_orange.png,p,left,5d4a41890e604c00011ade8b,001,2021-08-09_09h44.54.572,arrow_simon_norep,2021.1.2,Win32,60.0240096,,,,,,,,,,,,,,,,,,,,,q,0,1.655,40,TRUE,FALSE,9,3,39,0,1,,,,,,,
,,,,,,0,2.100816503,#a3d0fb,,right_blue.png,o,,,,,,o,right_blue.png,right_orange.png,p,right,5d4a41890e604c00011ade8b,001,2021-08-09_09h44.54.572,arrow_simon_norep,2021.1.2,Win32,60.0240096,,,,,,,,,,,,,,,,,,,,,o,1,1.965,41,TRUE,FALSE,10,0,40,1,1,,,,,,,
,,,,,,0,2.465092104,#f3af84,,right_orange.png,p,,,,,,o,right_blue.png,right_orange.png,p,left,5d4a41890e604c00011ade8b,001,2021-08-09_09h44.54.572,arrow_simon_norep,2021.1.2,Win32,60.0240096,,,,,,,,,,,,,,,,,,,,,p,1,1.947,42,TRUE,FALSE,10,1,41,0,1,,,,,,,
,,,,,,0,2.496830349,#a3d0fb,,left_blue.png,w,,,,,,w,left_blue.png,left_orange.png,q,right,5d4a41890e604c00011ade8b,001,2021-08-09_09h44.54.572,arrow_simon_norep,2021.1.2,Win32,60.0240096,,,,,,,,,,,,,,,,,,,,,w,1,1.639,43,TRUE,FALSE,10,2,42,3,1,,,,,,,
,,,,,,0,1.790151172,#f3af84,,right_orange.png,p,,,,,,o,right_blue.png,right_orange.png,p,right,5d4a41890e604c00011ade8b,001,2021-08-09_09h44.54.572,arrow_simon_norep,2021.1.2,Win32,60.0240096,,,,,,,,,,,,,,,,,,,,,p,1,1.592,44,FALSE,FALSE,10,3,43,1,1,,,,,,,
,,,,,,0,1.906515604,#a3d0fb,,left_blue.png,w,,,,,,w,left_blue.png,left_orange.png,q,right,5d4a41890e604c00011ade8b,001,2021-08-09_09h44.54.572,arrow_simon_norep,2021.1.2,Win32,60.0240096,,,,,,,,,,,,,,,,,,,,,w,1,1.567,45,FALSE,FALSE,11,0,44,3,1,,,,,,,
,,,,,,0,1.522375004,#f3af84,,left_orange.png,q,,,,,,w,left_blue.png,left_orange.png,q,right,5d4a41890e604c00011ade8b,001,2021-08-09_09h44.54.572,arrow_simon_norep,2021.1.2,Win32,60.0240096,,,,,,,,,,,,,,,,,,,,,q,1,1.475,46,FALSE,FALSE,11,1,45,3,1,,,,,,,
,,,,,,0,1.77962607,#a3d0fb,,right_blue.png,o,,,,,,o,right_blue.png,right_orange.png,p,left,5d4a41890e604c00011ade8b,001,2021-08-09_09h44.54.572,arrow_simon_norep,2021.1.2,Win32,60.0240096,,,,,,,,,,,,,,,,,,,,,o,1,1.563,47,FALSE,FALSE,11,2,46,0,1,,,,,,,
,,,,,,0,2.014535193,#f3af84,,right_orange.png,p,,,,,,o,right_blue.png,right_orange.png,p,left,5d4a41890e604c00011ade8b,001,2021-08-09_09h44.54.572,arrow_simon_norep,2021.1.2,Win32,60.0240096,,,,,,,,,,,,,,,,,,,,,p,1,1.528,48,FALSE,FALSE,11,3,47,0,1,,,,,,,
,,,,,,0,1.921697516,#a3d0fb,,right_blue.png,o,,,,,,o,right_blue.png,right_orange.png,p,right,5d4a41890e604c00011ade8b,001,2021-08-09_09h44.54.572,arrow_simon_norep,2021.1.2,Win32,60.0240096,,,,,,,,,,,,,,,,,,,,,o,1,1.508,49,FALSE,FALSE,12,0,48,1,1,,,,,,,
,,,,,,0,2.284441586,#f3af84,,right_orange.png,p,,,,,,o,right_blue.png,right_orange.png,p,right,5d4a41890e604c00011ade8b,001,2021-08-09_09h44.54.572,arrow_simon_norep,2021.1.2,Win32,60.0240096,,,,,,,,,,,,,,,,,,,,,q,0,1.686,50,TRUE,FALSE,12,1,49,1,1,,,,,,,
,,,,,,0,2.003553545,#a3d0fb,,left_blue.png,w,,,,,,w,left_blue.png,left_orange.png,q,left,5d4a41890e604c00011ade8b,001,2021-08-09_09h44.54.572,arrow_simon_norep,2021.1.2,Win32,60.0240096,,,,,,,,,,,,,,,,,,,,,w,1,1.652,51,TRUE,FALSE,12,2,50,2,1,,,,,,,
,,,,,,0,1.936482422,#f3af84,,right_orange.png,p,,,,,,o,right_blue.png,right_orange.png,p,right,5d4a41890e604c00011ade8b,001,2021-08-09_09h44.54.572,arrow_simon_norep,2021.1.2,Win32,60.0240096,,,,,,,,,,,,,,,,,,,,,p,1,1.552,52,FALSE,FALSE,12,3,51,1,1,,,,,,,
,,,,,,0,1.988046988,#a3d0fb,,right_blue.png,o,,,,,,o,right_blue.png,right_orange.png,p,left,5d4a41890e604c00011ade8b,001,2021-08-09_09h44.54.572,arrow_simon_norep,2021.1.2,Win32,60.0240096,,,,,,,,,,,,,,,,,,,,,o,1,1.585,53,FALSE,FALSE,13,0,52,0,1,,,,,,,
,,,,,,0,2.05558537,#f3af84,,left_orange.png,q,,,,,,w,left_blue.png,left_orange.png,q,left,5d4a41890e604c00011ade8b,001,2021-08-09_09h44.54.572,arrow_simon_norep,2021.1.2,Win32,60.0240096,,,,,,,,,,,,,,,,,,,,,q,1,1.56,54,FALSE,FALSE,13,1,53,2,1,,,,,,,
