instruct_resp_simon.keys,instruct_resp_simon.corr,instruct_resp_simon.rt,trial_resp_simon.keys,trial_resp_simon.corr,trial_resp_simon.rt,kerr,target_onset,target_color,target_pos,target_file,target_resp,trials_train_simon.thisRepN,trials_train_simon.thisTrialN,trials_train_simon.thisN,trials_train_simon.thisIndex,trials_train_simon.ran,odd_target_resp,odd_target_file,even_target_file,even_target_resp,target_side,participant,session,date,expName,psychopyVersion,OS,frameRate,train_block_note_resp.keys,train_block_note_resp.rt,blocks_train.thisRepN,blocks_train.thisTrialN,blocks_train.thisN,blocks_train.thisIndex,blocks_train.ran,instruct_resp_timing.keys,instruct_resp_timing.corr,instruct_resp_timing.rt,trial_resp_timing.keys,trial_resp_timing.rt,trials_train_timing.thisRepN,trials_train_timing.thisTrialN,trials_train_timing.thisN,trials_train_timing.thisIndex,trials_train_timing.ran,instruct_resp.keys,instruct_resp.corr,instruct_resp.rt,trial_resp.keys,trial_resp.corr,trial_resp.rt,trial_num,too_slow,too_soon,trials.thisRepN,trials.thisTrialN,trials.thisN,trials.thisIndex,trials.ran,block_note_resp.keys,block_note_resp.rt,blocks.thisRepN,blocks.thisTrialN,blocks.thisN,blocks.thisIndex,blocks.ran
space,0,102.3666,w,1,1.8152,0,0.976103671,#a3d0fb,,left_blue.png,w,0,0,0,2,1,w,left_blue.png,left_orange.png,q,left,5f4c9e74da9c148b0d42ecbd,001,2021-08-09_11h05.51.826,arrow_simon_norep,2021.1.2,Win32,60.0024001,,,,,,,,,,,,,,,,,,,,,,,,,,,,,,,,,,,,,,
,,,o,0,1.606,1,0.237618375,#f3af84,,right_orange.png,p,0,1,1,0,1,o,right_blue.png,right_orange.png,p,left,5f4c9e74da9c148b0d42ecbd,001,2021-08-09_11h05.51.826,arrow_simon_norep,2021.1.2,Win32,60.0024001,,,,,,,,,,,,,,,,,,,,,,,,,,,,,,,,,,,,,,
,,,o,0,2.0864,1,0.807772509,#a3d0fb,,left_blue.png,w,0,2,2,3,1,w,left_blue.png,left_orange.png,q,right,5f4c9e74da9c148b0d42ecbd,001,2021-08-09_11h05.51.826,arrow_simon_norep,2021.1.2,Win32,60.0024001,,,,,,,,,,,,,,,,,,,,,,,,,,,,,,,,,,,,,,
,,,q,1,1.3992,0,0.199433411,#f3af84,,left_orange.png,q,0,3,3,3,1,w,left_blue.png,left_orange.png,q,right,5f4c9e74da9c148b0d42ecbd,001,2021-08-09_11h05.51.826,arrow_simon_norep,2021.1.2,Win32,60.0024001,,,,,,,,,,,,,,,,,,,,,,,,,,,,,,,,,,,,,,
,,,w,1,1.8653,0,0.711068156,#a3d0fb,,left_blue.png,w,1,0,4,2,1,w,left_blue.png,left_orange.png,q,left,5f4c9e74da9c148b0d42ecbd,001,2021-08-09_11h05.51.826,arrow_simon_norep,2021.1.2,Win32,60.0024001,,,,,,,,,,,,,,,,,,,,,,,,,,,,,,,,,,,,,,
,,,p,1,2.5325,0,0.625466301,#f3af84,,right_orange.png,p,1,1,5,1,1,o,right_blue.png,right_orange.png,p,right,5f4c9e74da9c148b0d42ecbd,001,2021-08-09_11h05.51.826,arrow_simon_norep,2021.1.2,Win32,60.0024001,,,,,,,,,,,,,,,,,,,,,,,,,,,,,,,,,,,,,,
,,,q,0,2.0535,1,0.86741522,#a3d0fb,,left_blue.png,w,1,2,6,3,1,w,left_blue.png,left_orange.png,q,right,5f4c9e74da9c148b0d42ecbd,001,2021-08-09_11h05.51.826,arrow_simon_norep,2021.1.2,Win32,60.0024001,,,,,,,,,,,,,,,,,,,,,,,,,,,,,,,,,,,,,,
,,,p,1,1.5492,0,0.282293768,#f3af84,,right_orange.png,p,1,3,7,1,1,o,right_blue.png,right_orange.png,p,right,5f4c9e74da9c148b0d42ecbd,001,2021-08-09_11h05.51.826,arrow_simon_norep,2021.1.2,Win32,60.0024001,,,,,,,,,,,,,,,,,,,,,,,,,,,,,,,,,,,,,,
,,,q,0,1.104,1,0.134967685,#a3d0fb,,left_blue.png,w,2,0,8,2,1,w,left_blue.png,left_orange.png,q,left,5f4c9e74da9c148b0d42ecbd,001,2021-08-09_11h05.51.826,arrow_simon_norep,2021.1.2,Win32,60.0024001,,,,,,,,,,,,,,,,,,,,,,,,,,,,,,,,,,,,,,
,,,p,1,2.0842,0,0.837819043,#f3af84,,right_orange.png,p,2,1,9,1,1,o,right_blue.png,right_orange.png,p,right,5f4c9e74da9c148b0d42ecbd,001,2021-08-09_11h05.51.826,arrow_simon_norep,2021.1.2,Win32,60.0024001,,,,,,,,,,,,,,,,,,,,,,,,,,,,,,,,,,,,,,
,,,w,0,1.4664,1,0.676621756,#a3d0fb,,right_blue.png,o,2,2,10,0,1,o,right_blue.png,right_orange.png,p,left,5f4c9e74da9c148b0d42ecbd,001,2021-08-09_11h05.51.826,arrow_simon_norep,2021.1.2,Win32,60.0024001,,,,,,,,,,,,,,,,,,,,,,,,,,,,,,,,,,,,,,
,,,o,0,1.6427,1,0.147376749,#f3af84,,left_orange.png,q,2,3,11,3,1,w,left_blue.png,left_orange.png,q,right,5f4c9e74da9c148b0d42ecbd,001,2021-08-09_11h05.51.826,arrow_simon_norep,2021.1.2,Win32,60.0024001,,,,,,,,,,,,,,,,,,,,,,,,,,,,,,,,,,,,,,
,,,w,0,2.2946,1,0.471932957,#a3d0fb,,right_blue.png,o,3,0,12,1,1,o,right_blue.png,right_orange.png,p,right,5f4c9e74da9c148b0d42ecbd,001,2021-08-09_11h05.51.826,arrow_simon_norep,2021.1.2,Win32,60.0024001,,,,,,,,,,,,,,,,,,,,,,,,,,,,,,,,,,,,,,
,,,p,1,1.7217,0,0.905640263,#f3af84,,right_orange.png,p,3,1,13,1,1,o,right_blue.png,right_orange.png,p,right,5f4c9e74da9c148b0d42ecbd,001,2021-08-09_11h05.51.826,arrow_simon_norep,2021.1.2,Win32,60.0024001,,,,,,,,,,,,,,,,,,,,,,,,,,,,,,,,,,,,,,
,,,o,0,6.5031,1,0.567528786,#a3d0fb,,left_blue.png,w,3,2,14,3,1,w,left_blue.png,left_orange.png,q,right,5f4c9e74da9c148b0d42ecbd,001,2021-08-09_11h05.51.826,arrow_simon_norep,2021.1.2,Win32,60.0024001,,,,,,,,,,,,,,,,,,,,,,,,,,,,,,,,,,,,,,
,,,q,1,6.448,0,0.085606939,#f3af84,,left_orange.png,q,3,3,15,2,1,w,left_blue.png,left_orange.png,q,left,5f4c9e74da9c148b0d42ecbd,001,2021-08-09_11h05.51.826,arrow_simon_norep,2021.1.2,Win32,60.0024001,,,,,,,,,,,,,,,,,,,,,,,,,,,,,,,,,,,,,,
,,,q,0,0.9677,1,0.190862372,#a3d0fb,,left_blue.png,w,4,0,16,2,1,w,left_blue.png,left_orange.png,q,left,5f4c9e74da9c148b0d42ecbd,001,2021-08-09_11h05.51.826,arrow_simon_norep,2021.1.2,Win32,60.0024001,,,,,,,,,,,,,,,,,,,,,,,,,,,,,,,,,,,,,,
,,,w,0,2.115,1,0.757540207,#f3af84,,right_orange.png,p,4,1,17,0,1,o,right_blue.png,right_orange.png,p,left,5f4c9e74da9c148b0d42ecbd,001,2021-08-09_11h05.51.826,arrow_simon_norep,2021.1.2,Win32,60.0024001,,,,,,,,,,,,,,,,,,,,,,,,,,,,,,,,,,,,,,
,,,w,0,1.6319,1,0.928723597,#a3d0fb,,right_blue.png,o,4,2,18,0,1,o,right_blue.png,right_orange.png,p,left,5f4c9e74da9c148b0d42ecbd,001,2021-08-09_11h05.51.826,arrow_simon_norep,2021.1.2,Win32,60.0024001,,,,,,,,,,,,,,,,,,,,,,,,,,,,,,,,,,,,,,
,,,p,1,6.4143,0,0.468336263,#f3af84,,right_orange.png,p,4,3,19,0,1,o,right_blue.png,right_orange.png,p,left,5f4c9e74da9c148b0d42ecbd,001,2021-08-09_11h05.51.826,arrow_simon_norep,2021.1.2,Win32,60.0024001,,,,,,,,,,,,,,,,,,,,,,,,,,,,,,,,,,,,,,
,,,q,0,2.9861,1,0.844186757,#a3d0fb,,left_blue.png,w,5,0,20,2,1,w,left_blue.png,left_orange.png,q,left,5f4c9e74da9c148b0d42ecbd,001,2021-08-09_11h05.51.826,arrow_simon_norep,2021.1.2,Win32,60.0024001,,,,,,,,,,,,,,,,,,,,,,,,,,,,,,,,,,,,,,
,,,q,1,1.6874,0,0.384555807,#f3af84,,left_orange.png,q,5,1,21,2,1,w,left_blue.png,left_orange.png,q,left,5f4c9e74da9c148b0d42ecbd,001,2021-08-09_11h05.51.826,arrow_simon_norep,2021.1.2,Win32,60.0024001,,,,,,,,,,,,,,,,,,,,,,,,,,,,,,,,,,,,,,
,,,o,1,7.5076,0,0.574524378,#a3d0fb,,right_blue.png,o,5,2,22,1,1,o,right_blue.png,right_orange.png,p,right,5f4c9e74da9c148b0d42ecbd,001,2021-08-09_11h05.51.826,arrow_simon_norep,2021.1.2,Win32,60.0024001,,,,,,,,,,,,,,,,,,,,,,,,,,,,,,,,,,,,,,
,,,w,0,2.2844,1,0.003097083,#f3af84,,left_orange.png,q,5,3,23,3,1,w,left_blue.png,left_orange.png,q,right,5f4c9e74da9c148b0d42ecbd,001,2021-08-09_11h05.51.826,arrow_simon_norep,2021.1.2,Win32,60.0024001,,,,,,,,,,,,,,,,,,,,,,,,,,,,,,,,,,,,,,
,,,w,0,5.714,1,0.432911501,#a3d0fb,,right_blue.png,o,6,0,24,0,1,o,right_blue.png,right_orange.png,p,left,5f4c9e74da9c148b0d42ecbd,001,2021-08-09_11h05.51.826,arrow_simon_norep,2021.1.2,Win32,60.0024001,,,,,,,,,,,,,,,,,,,,,,,,,,,,,,,,,,,,,,
,,,q,0,1.3188,1,0.424388871,#f3af84,,right_orange.png,p,6,1,25,0,1,o,right_blue.png,right_orange.png,p,left,5f4c9e74da9c148b0d42ecbd,001,2021-08-09_11h05.51.826,arrow_simon_norep,2021.1.2,Win32,60.0024001,,,,,,,,,,,,,,,,,,,,,,,,,,,,,,,,,,,,,,
,,,p,0,1.3089,1,0.153685562,#a3d0fb,,right_blue.png,o,6,2,26,0,1,o,right_blue.png,right_orange.png,p,left,5f4c9e74da9c148b0d42ecbd,001,2021-08-09_11h05.51.826,arrow_simon_norep,2021.1.2,Win32,60.0024001,,,,,,,,,,,,,,,,,,,,,,,,,,,,,,,,,,,,,,
,,,q,1,6.1227,0,0.173803186,#f3af84,,left_orange.png,q,6,3,27,2,1,w,left_blue.png,left_orange.png,q,left,5f4c9e74da9c148b0d42ecbd,001,2021-08-09_11h05.51.826,arrow_simon_norep,2021.1.2,Win32,60.0024001,,,,,,,,,,,,,,,,,,,,,,,,,,,,,,,,,,,,,,
,,,o,0,9.0193,1,0.298453614,#a3d0fb,,left_blue.png,w,7,0,28,3,1,w,left_blue.png,left_orange.png,q,right,5f4c9e74da9c148b0d42ecbd,001,2021-08-09_11h05.51.826,arrow_simon_norep,2021.1.2,Win32,60.0024001,,,,,,,,,,,,,,,,,,,,,,,,,,,,,,,,,,,,,,
,,,p,1,4.1333,0,0.726286764,#f3af84,,right_orange.png,p,7,1,29,0,1,o,right_blue.png,right_orange.png,p,left,5f4c9e74da9c148b0d42ecbd,001,2021-08-09_11h05.51.826,arrow_simon_norep,2021.1.2,Win32,60.0024001,,,,,,,,,,,,,,,,,,,,,,,,,,,,,,,,,,,,,,
,,,w,1,18.3096,0,0.659560286,#a3d0fb,,left_blue.png,w,7,2,30,2,1,w,left_blue.png,left_orange.png,q,left,5f4c9e74da9c148b0d42ecbd,001,2021-08-09_11h05.51.826,arrow_simon_norep,2021.1.2,Win32,60.0024001,,,,,,,,,,,,,,,,,,,,,,,,,,,,,,,,,,,,,,
,,,q,1,4.1642,0,0.677783579,#f3af84,,left_orange.png,q,7,3,31,2,1,w,left_blue.png,left_orange.png,q,left,5f4c9e74da9c148b0d42ecbd,001,2021-08-09_11h05.51.826,arrow_simon_norep,2021.1.2,Win32,60.0024001,,,,,,,,,,,,,,,,,,,,,,,,,,,,,,,,,,,,,,
,,,o,1,8.413,0,0.602913801,#a3d0fb,,right_blue.png,o,8,0,32,0,1,o,right_blue.png,right_orange.png,p,left,5f4c9e74da9c148b0d42ecbd,001,2021-08-09_11h05.51.826,arrow_simon_norep,2021.1.2,Win32,60.0024001,,,,,,,,,,,,,,,,,,,,,,,,,,,,,,,,,,,,,,
,,,p,1,7.4209,0,0.375406884,#f3af84,,right_orange.png,p,8,1,33,0,1,o,right_blue.png,right_orange.png,p,left,5f4c9e74da9c148b0d42ecbd,001,2021-08-09_11h05.51.826,arrow_simon_norep,2021.1.2,Win32,60.0024001,,,,,,,,,,,,,,,,,,,,,,,,,,,,,,,,,,,,,,
,,,w,1,7.5471,0,0.865234972,#a3d0fb,,left_blue.png,w,8,2,34,3,1,w,left_blue.png,left_orange.png,q,right,5f4c9e74da9c148b0d42ecbd,001,2021-08-09_11h05.51.826,arrow_simon_norep,2021.1.2,Win32,60.0024001,,,,,,,,,,,,,,,,,,,,,,,,,,,,,,,,,,,,,,
,,,q,1,3.5731,0,0.208137267,#f3af84,,left_orange.png,q,8,3,35,3,1,w,left_blue.png,left_orange.png,q,right,5f4c9e74da9c148b0d42ecbd,001,2021-08-09_11h05.51.826,arrow_simon_norep,2021.1.2,Win32,60.0024001,,,,,,,,,,,,,,,,,,,,,,,,,,,,,,,,,,,,,,
,,,w,1,3.0488,0,0.813892448,#a3d0fb,,left_blue.png,w,9,0,36,3,1,w,left_blue.png,left_orange.png,q,right,5f4c9e74da9c148b0d42ecbd,001,2021-08-09_11h05.51.826,arrow_simon_norep,2021.1.2,Win32,60.0024001,,,,,,,,,,,,,,,,,,,,,,,,,,,,,,,,,,,,,,
,,,q,1,3.4942,0,0.225964847,#f3af84,,left_orange.png,q,9,1,37,2,1,w,left_blue.png,left_orange.png,q,left,5f4c9e74da9c148b0d42ecbd,001,2021-08-09_11h05.51.826,arrow_simon_norep,2021.1.2,Win32,60.0024001,,,,,,,,,,,,,,,,,,,,,,,,,,,,,,,,,,,,,,
,,,q,0,1.581,1,0.529376689,#a3d0fb,,left_blue.png,w,9,2,38,3,1,w,left_blue.png,left_orange.png,q,right,5f4c9e74da9c148b0d42ecbd,001,2021-08-09_11h05.51.826,arrow_simon_norep,2021.1.2,Win32,60.0024001,,,,,,,,,,,,,,,,,,,,,,,,,,,,,,,,,,,,,,
,,,p,1,2.2452,0,0.345891211,#f3af84,,right_orange.png,p,9,3,39,1,1,o,right_blue.png,right_orange.png,p,right,5f4c9e74da9c148b0d42ecbd,001,2021-08-09_11h05.51.826,arrow_simon_norep,2021.1.2,Win32,60.0024001,,,,,,,,,,,,,,,,,,,,,,,,,,,,,,,,,,,,,,
,,,o,1,2.764,0,0.575600224,#a3d0fb,,right_blue.png,o,10,0,40,1,1,o,right_blue.png,right_orange.png,p,right,5f4c9e74da9c148b0d42ecbd,001,2021-08-09_11h05.51.826,arrow_simon_norep,2021.1.2,Win32,60.0024001,,,,,,,,,,,,,,,,,,,,,,,,,,,,,,,,,,,,,,
,,,q,1,3.6016,0,0.828858955,#f3af84,,left_orange.png,q,10,1,41,3,1,w,left_blue.png,left_orange.png,q,right,5f4c9e74da9c148b0d42ecbd,001,2021-08-09_11h05.51.826,arrow_simon_norep,2021.1.2,Win32,60.0024001,,,,,,,,,,,,,,,,,,,,,,,,,,,,,,,,,,,,,,
,,,o,1,2.5501,0,0.260172838,#a3d0fb,,right_blue.png,o,10,2,42,0,1,o,right_blue.png,right_orange.png,p,left,5f4c9e74da9c148b0d42ecbd,001,2021-08-09_11h05.51.826,arrow_simon_norep,2021.1.2,Win32,60.0024001,,,,,,,,,,,,,,,,,,,,,,,,,,,,,,,,,,,,,,
,,,p,1,2.5222,0,0.52781844,#f3af84,,right_orange.png,p,10,3,43,1,1,o,right_blue.png,right_orange.png,p,right,5f4c9e74da9c148b0d42ecbd,001,2021-08-09_11h05.51.826,arrow_simon_norep,2021.1.2,Win32,60.0024001,,,,,,,,,,,,,,,,,,,,,,,,,,,,,,,,,,,,,,
,,,o,1,1.9747,0,0.688536873,#a3d0fb,,right_blue.png,o,11,0,44,1,1,o,right_blue.png,right_orange.png,p,right,5f4c9e74da9c148b0d42ecbd,001,2021-08-09_11h05.51.826,arrow_simon_norep,2021.1.2,Win32,60.0024001,,,,,,,,,,,,,,,,,,,,,,,,,,,,,,,,,,,,,,
,,,p,1,1.7144,0,0.997924388,#f3af84,,right_orange.png,p,11,1,45,0,1,o,right_blue.png,right_orange.png,p,left,5f4c9e74da9c148b0d42ecbd,001,2021-08-09_11h05.51.826,arrow_simon_norep,2021.1.2,Win32,60.0024001,,,,,,,,,,,,,,,,,,,,,,,,,,,,,,,,,,,,,,
,,,w,1,5.4745,0,0.872203138,#a3d0fb,,left_blue.png,w,11,2,46,2,1,w,left_blue.png,left_orange.png,q,left,5f4c9e74da9c148b0d42ecbd,001,2021-08-09_11h05.51.826,arrow_simon_norep,2021.1.2,Win32,60.0024001,,,,,,,,,,,,,,,,,,,,,,,,,,,,,,,,,,,,,,
,,,q,1,4.7718,0,0.161831136,#f3af84,,left_orange.png,q,11,3,47,2,1,w,left_blue.png,left_orange.png,q,left,5f4c9e74da9c148b0d42ecbd,001,2021-08-09_11h05.51.826,arrow_simon_norep,2021.1.2,Win32,60.0024001,,,,,,,,,,,,,,,,,,,,,,,,,,,,,,,,,,,,,,
,,,w,1,1.5091,0,0.054252607,#a3d0fb,,left_blue.png,w,12,0,48,3,1,w,left_blue.png,left_orange.png,q,right,5f4c9e74da9c148b0d42ecbd,001,2021-08-09_11h05.51.826,arrow_simon_norep,2021.1.2,Win32,60.0024001,,,,,,,,,,,,,,,,,,,,,,,,,,,,,,,,,,,,,,
,,,p,1,5.5587,0,0.017625795,#f3af84,,right_orange.png,p,12,1,49,1,1,o,right_blue.png,right_orange.png,p,right,5f4c9e74da9c148b0d42ecbd,001,2021-08-09_11h05.51.826,arrow_simon_norep,2021.1.2,Win32,60.0024001,,,,,,,,,,,,,,,,,,,,,,,,,,,,,,,,,,,,,,
,,,o,1,1.5113,0,0.821981902,#a3d0fb,,right_blue.png,o,12,2,50,1,1,o,right_blue.png,right_orange.png,p,right,5f4c9e74da9c148b0d42ecbd,001,2021-08-09_11h05.51.826,arrow_simon_norep,2021.1.2,Win32,60.0024001,,,,,,,,,,,,,,,,,,,,,,,,,,,,,,,,,,,,,,
,,,p,1,2.3667,0,0.965380677,#f3af84,,right_orange.png,p,12,3,51,1,1,o,right_blue.png,right_orange.png,p,right,5f4c9e74da9c148b0d42ecbd,001,2021-08-09_11h05.51.826,arrow_simon_norep,2021.1.2,Win32,60.0024001,,,,,,,,,,,,,,,,,,,,,,,,,,,,,,,,,,,,,,
,,,w,1,3.5709,0,0.880886439,#a3d0fb,,left_blue.png,w,13,0,52,2,1,w,left_blue.png,left_orange.png,q,left,5f4c9e74da9c148b0d42ecbd,001,2021-08-09_11h05.51.826,arrow_simon_norep,2021.1.2,Win32,60.0024001,,,,,,,,,,,,,,,,,,,,,,,,,,,,,,,,,,,,,,
,,,q,0,5.9407,1,0.915202049,#f3af84,,right_orange.png,p,13,1,53,0,1,o,right_blue.png,right_orange.png,p,left,5f4c9e74da9c148b0d42ecbd,001,2021-08-09_11h05.51.826,arrow_simon_norep,2021.1.2,Win32,60.0024001,,,,,,,,,,,,,,,,,,,,,,,,,,,,,,,,,,,,,,
,,,o,1,3.5998,0,0.061844764,#a3d0fb,,right_blue.png,o,13,2,54,1,1,o,right_blue.png,right_orange.png,p,right,5f4c9e74da9c148b0d42ecbd,001,2021-08-09_11h05.51.826,arrow_simon_norep,2021.1.2,Win32,60.0024001,,,,,,,,,,,,,,,,,,,,,,,,,,,,,,,,,,,,,,
,,,q,1,4.9805,0,0.7164075,#f3af84,,left_orange.png,q,13,3,55,3,1,w,left_blue.png,left_orange.png,q,right,5f4c9e74da9c148b0d42ecbd,001,2021-08-09_11h05.51.826,arrow_simon_norep,2021.1.2,Win32,60.0024001,,,,,,,,,,,,,,,,,,,,,,,,,,,,,,,,,,,,,,
,,,w,1,1.0466,0,0.231409361,#a3d0fb,,left_blue.png,w,14,0,56,2,1,w,left_blue.png,left_orange.png,q,left,5f4c9e74da9c148b0d42ecbd,001,2021-08-09_11h05.51.826,arrow_simon_norep,2021.1.2,Win32,60.0024001,,,,,,,,,,,,,,,,,,,,,,,,,,,,,,,,,,,,,,
,,,p,1,2.7161,0,0.012916055,#f3af84,,right_orange.png,p,14,1,57,0,1,o,right_blue.png,right_orange.png,p,left,5f4c9e74da9c148b0d42ecbd,001,2021-08-09_11h05.51.826,arrow_simon_norep,2021.1.2,Win32,60.0024001,,,,,,,,,,,,,,,,,,,,,,,,,,,,,,,,,,,,,,
,,,w,1,3.9244,0,0.639344641,#a3d0fb,,left_blue.png,w,14,2,58,3,1,w,left_blue.png,left_orange.png,q,right,5f4c9e74da9c148b0d42ecbd,001,2021-08-09_11h05.51.826,arrow_simon_norep,2021.1.2,Win32,60.0024001,,,,,,,,,,,,,,,,,,,,,,,,,,,,,,,,,,,,,,
,,,p,1,3.1241,0,0.202312497,#f3af84,,right_orange.png,p,14,3,59,1,1,o,right_blue.png,right_orange.png,p,right,5f4c9e74da9c148b0d42ecbd,001,2021-08-09_11h05.51.826,arrow_simon_norep,2021.1.2,Win32,60.0024001,,,,,,,,,,,,,,,,,,,,,,,,,,,,,,,,,,,,,,
,,,,,,,,,,,,,,,,,,,,,,5f4c9e74da9c148b0d42ecbd,001,2021-08-09_11h05.51.826,arrow_simon_norep,2021.1.2,Win32,60.0024001,space,53.8171,0,0,0,0,1,,,,,,,,,,,,,,,,,,,,,,,,,,,,,,,
,,,o,0,4.0477,1,0.919943823,#a3d0fb,,left_blue.png,w,0,0,0,3,1,w,left_blue.png,left_orange.png,q,right,5f4c9e74da9c148b0d42ecbd,001,2021-08-09_11h05.51.826,arrow_simon_norep,2021.1.2,Win32,60.0024001,,,,,,,,,,,,,,,,,,,,,,,,,,,,,,,,,,,,,,
,,,p,1,5.4475,0,0.081240623,#f3af84,,right_orange.png,p,0,1,1,1,1,o,right_blue.png,right_orange.png,p,right,5f4c9e74da9c148b0d42ecbd,001,2021-08-09_11h05.51.826,arrow_simon_norep,2021.1.2,Win32,60.0024001,,,,,,,,,,,,,,,,,,,,,,,,,,,,,,,,,,,,,,
,,,o,1,2.7032,0,0.049421707,#a3d0fb,,right_blue.png,o,0,2,2,0,1,o,right_blue.png,right_orange.png,p,left,5f4c9e74da9c148b0d42ecbd,001,2021-08-09_11h05.51.826,arrow_simon_norep,2021.1.2,Win32,60.0024001,,,,,,,,,,,,,,,,,,,,,,,,,,,,,,,,,,,,,,
,,,q,1,4.2325,0,0.180297441,#f3af84,,left_orange.png,q,0,3,3,2,1,w,left_blue.png,left_orange.png,q,left,5f4c9e74da9c148b0d42ecbd,001,2021-08-09_11h05.51.826,arrow_simon_norep,2021.1.2,Win32,60.0024001,,,,,,,,,,,,,,,,,,,,,,,,,,,,,,,,,,,,,,
,,,o,1,2.6677,0,0.656855291,#a3d0fb,,right_blue.png,o,1,0,4,1,1,o,right_blue.png,right_orange.png,p,right,5f4c9e74da9c148b0d42ecbd,001,2021-08-09_11h05.51.826,arrow_simon_norep,2021.1.2,Win32,60.0024001,,,,,,,,,,,,,,,,,,,,,,,,,,,,,,,,,,,,,,
,,,p,1,2.5978,0,0.457756597,#f3af84,,right_orange.png,p,1,1,5,1,1,o,right_blue.png,right_orange.png,p,right,5f4c9e74da9c148b0d42ecbd,001,2021-08-09_11h05.51.826,arrow_simon_norep,2021.1.2,Win32,60.0024001,,,,,,,,,,,,,,,,,,,,,,,,,,,,,,,,,,,,,,
,,,w,1,4.515,0,0.363430563,#a3d0fb,,left_blue.png,w,1,2,6,3,1,w,left_blue.png,left_orange.png,q,right,5f4c9e74da9c148b0d42ecbd,001,2021-08-09_11h05.51.826,arrow_simon_norep,2021.1.2,Win32,60.0024001,,,,,,,,,,,,,,,,,,,,,,,,,,,,,,,,,,,,,,
,,,q,1,0.9347,0,0.160218461,#f3af84,,left_orange.png,q,1,3,7,3,1,w,left_blue.png,left_orange.png,q,right,5f4c9e74da9c148b0d42ecbd,001,2021-08-09_11h05.51.826,arrow_simon_norep,2021.1.2,Win32,60.0024001,,,,,,,,,,,,,,,,,,,,,,,,,,,,,,,,,,,,,,
,,,w,1,1.7818,0,0.693098845,#a3d0fb,,left_blue.png,w,2,0,8,2,1,w,left_blue.png,left_orange.png,q,left,5f4c9e74da9c148b0d42ecbd,001,2021-08-09_11h05.51.826,arrow_simon_norep,2021.1.2,Win32,60.0024001,,,,,,,,,,,,,,,,,,,,,,,,,,,,,,,,,,,,,,
,,,p,1,1.4661,0,0.249657559,#f3af84,,right_orange.png,p,2,1,9,0,1,o,right_blue.png,right_orange.png,p,left,5f4c9e74da9c148b0d42ecbd,001,2021-08-09_11h05.51.826,arrow_simon_norep,2021.1.2,Win32,60.0024001,,,,,,,,,,,,,,,,,,,,,,,,,,,,,,,,,,,,,,
,,,w,1,1.3157,0,0.278416475,#a3d0fb,,left_blue.png,w,2,2,10,3,1,w,left_blue.png,left_orange.png,q,right,5f4c9e74da9c148b0d42ecbd,001,2021-08-09_11h05.51.826,arrow_simon_norep,2021.1.2,Win32,60.0024001,,,,,,,,,,,,,,,,,,,,,,,,,,,,,,,,,,,,,,
,,,q,1,3.0483,0,0.932594065,#f3af84,,left_orange.png,q,2,3,11,3,1,w,left_blue.png,left_orange.png,q,right,5f4c9e74da9c148b0d42ecbd,001,2021-08-09_11h05.51.826,arrow_simon_norep,2021.1.2,Win32,60.0024001,,,,,,,,,,,,,,,,,,,,,,,,,,,,,,,,,,,,,,
,,,o,1,1.4977,0,0.220538872,#a3d0fb,,right_blue.png,o,3,0,12,0,1,o,right_blue.png,right_orange.png,p,left,5f4c9e74da9c148b0d42ecbd,001,2021-08-09_11h05.51.826,arrow_simon_norep,2021.1.2,Win32,60.0024001,,,,,,,,,,,,,,,,,,,,,,,,,,,,,,,,,,,,,,
,,,q,1,3.3885,0,0.711841499,#f3af84,,left_orange.png,q,3,1,13,2,1,w,left_blue.png,left_orange.png,q,left,5f4c9e74da9c148b0d42ecbd,001,2021-08-09_11h05.51.826,arrow_simon_norep,2021.1.2,Win32,60.0024001,,,,,,,,,,,,,,,,,,,,,,,,,,,,,,,,,,,,,,
,,,w,1,1.3181,0,0.407274753,#a3d0fb,,left_blue.png,w,3,2,14,3,1,w,left_blue.png,left_orange.png,q,right,5f4c9e74da9c148b0d42ecbd,001,2021-08-09_11h05.51.826,arrow_simon_norep,2021.1.2,Win32,60.0024001,,,,,,,,,,,,,,,,,,,,,,,,,,,,,,,,,,,,,,
,,,p,1,2.4076,0,0.75253163,#f3af84,,right_orange.png,p,3,3,15,0,1,o,right_blue.png,right_orange.png,p,left,5f4c9e74da9c148b0d42ecbd,001,2021-08-09_11h05.51.826,arrow_simon_norep,2021.1.2,Win32,60.0024001,,,,,,,,,,,,,,,,,,,,,,,,,,,,,,,,,,,,,,
,,,w,1,1.7044,0,0.948223952,#a3d0fb,,left_blue.png,w,4,0,16,2,1,w,left_blue.png,left_orange.png,q,left,5f4c9e74da9c148b0d42ecbd,001,2021-08-09_11h05.51.826,arrow_simon_norep,2021.1.2,Win32,60.0024001,,,,,,,,,,,,,,,,,,,,,,,,,,,,,,,,,,,,,,
,,,p,1,0.9995,0,0.218272666,#f3af84,,right_orange.png,p,4,1,17,0,1,o,right_blue.png,right_orange.png,p,left,5f4c9e74da9c148b0d42ecbd,001,2021-08-09_11h05.51.826,arrow_simon_norep,2021.1.2,Win32,60.0024001,,,,,,,,,,,,,,,,,,,,,,,,,,,,,,,,,,,,,,
,,,o,1,0.928,0,0.214801924,#a3d0fb,,right_blue.png,o,4,2,18,0,1,o,right_blue.png,right_orange.png,p,left,5f4c9e74da9c148b0d42ecbd,001,2021-08-09_11h05.51.826,arrow_simon_norep,2021.1.2,Win32,60.0024001,,,,,,,,,,,,,,,,,,,,,,,,,,,,,,,,,,,,,,
,,,q,1,1.6609,0,0.959653412,#f3af84,,left_orange.png,q,4,3,19,2,1,w,left_blue.png,left_orange.png,q,left,5f4c9e74da9c148b0d42ecbd,001,2021-08-09_11h05.51.826,arrow_simon_norep,2021.1.2,Win32,60.0024001,,,,,,,,,,,,,,,,,,,,,,,,,,,,,,,,,,,,,,
,,,w,1,0.9478,0,0.253046823,#a3d0fb,,left_blue.png,w,5,0,20,2,1,w,left_blue.png,left_orange.png,q,left,5f4c9e74da9c148b0d42ecbd,001,2021-08-09_11h05.51.826,arrow_simon_norep,2021.1.2,Win32,60.0024001,,,,,,,,,,,,,,,,,,,,,,,,,,,,,,,,,,,,,,
,,,p,1,1.3913,0,0.631209682,#f3af84,,right_orange.png,p,5,1,21,0,1,o,right_blue.png,right_orange.png,p,left,5f4c9e74da9c148b0d42ecbd,001,2021-08-09_11h05.51.826,arrow_simon_norep,2021.1.2,Win32,60.0024001,,,,,,,,,,,,,,,,,,,,,,,,,,,,,,,,,,,,,,
,,,o,1,1.5283,0,0.878031687,#a3d0fb,,right_blue.png,o,5,2,22,1,1,o,right_blue.png,right_orange.png,p,right,5f4c9e74da9c148b0d42ecbd,001,2021-08-09_11h05.51.826,arrow_simon_norep,2021.1.2,Win32,60.0024001,,,,,,,,,,,,,,,,,,,,,,,,,,,,,,,,,,,,,,
,,,o,0,1.1146,1,0.457777283,#f3af84,,right_orange.png,p,5,3,23,1,1,o,right_blue.png,right_orange.png,p,right,5f4c9e74da9c148b0d42ecbd,001,2021-08-09_11h05.51.826,arrow_simon_norep,2021.1.2,Win32,60.0024001,,,,,,,,,,,,,,,,,,,,,,,,,,,,,,,,,,,,,,
,,,w,0,1.3195,1,0.596067594,#a3d0fb,,right_blue.png,o,6,0,24,0,1,o,right_blue.png,right_orange.png,p,left,5f4c9e74da9c148b0d42ecbd,001,2021-08-09_11h05.51.826,arrow_simon_norep,2021.1.2,Win32,60.0024001,,,,,,,,,,,,,,,,,,,,,,,,,,,,,,,,,,,,,,
,,,q,1,4.9815,0,0.505103468,#f3af84,,left_orange.png,q,6,1,25,3,1,w,left_blue.png,left_orange.png,q,right,5f4c9e74da9c148b0d42ecbd,001,2021-08-09_11h05.51.826,arrow_simon_norep,2021.1.2,Win32,60.0024001,,,,,,,,,,,,,,,,,,,,,,,,,,,,,,,,,,,,,,
,,,o,1,1.7673,0,0.155126073,#a3d0fb,,right_blue.png,o,6,2,26,0,1,o,right_blue.png,right_orange.png,p,left,5f4c9e74da9c148b0d42ecbd,001,2021-08-09_11h05.51.826,arrow_simon_norep,2021.1.2,Win32,60.0024001,,,,,,,,,,,,,,,,,,,,,,,,,,,,,,,,,,,,,,
,,,q,1,2.2985,0,0.003871777,#f3af84,,left_orange.png,q,6,3,27,3,1,w,left_blue.png,left_orange.png,q,right,5f4c9e74da9c148b0d42ecbd,001,2021-08-09_11h05.51.826,arrow_simon_norep,2021.1.2,Win32,60.0024001,,,,,,,,,,,,,,,,,,,,,,,,,,,,,,,,,,,,,,
,,,w,1,1.3323,0,0.405428146,#a3d0fb,,left_blue.png,w,7,0,28,2,1,w,left_blue.png,left_orange.png,q,left,5f4c9e74da9c148b0d42ecbd,001,2021-08-09_11h05.51.826,arrow_simon_norep,2021.1.2,Win32,60.0024001,,,,,,,,,,,,,,,,,,,,,,,,,,,,,,,,,,,,,,
,,,p,1,1.1871,0,0.164366458,#f3af84,,right_orange.png,p,7,1,29,0,1,o,right_blue.png,right_orange.png,p,left,5f4c9e74da9c148b0d42ecbd,001,2021-08-09_11h05.51.826,arrow_simon_norep,2021.1.2,Win32,60.0024001,,,,,,,,,,,,,,,,,,,,,,,,,,,,,,,,,,,,,,
,,,o,0,1.2488,1,0.490231859,#a3d0fb,,left_blue.png,w,7,2,30,3,1,w,left_blue.png,left_orange.png,q,right,5f4c9e74da9c148b0d42ecbd,001,2021-08-09_11h05.51.826,arrow_simon_norep,2021.1.2,Win32,60.0024001,,,,,,,,,,,,,,,,,,,,,,,,,,,,,,,,,,,,,,
,,,p,1,1.121,0,0.07405224,#f3af84,,right_orange.png,p,7,3,31,1,1,o,right_blue.png,right_orange.png,p,right,5f4c9e74da9c148b0d42ecbd,001,2021-08-09_11h05.51.826,arrow_simon_norep,2021.1.2,Win32,60.0024001,,,,,,,,,,,,,,,,,,,,,,,,,,,,,,,,,,,,,,
,,,w,1,2.1554,0,0.767024726,#a3d0fb,,left_blue.png,w,8,0,32,2,1,w,left_blue.png,left_orange.png,q,left,5f4c9e74da9c148b0d42ecbd,001,2021-08-09_11h05.51.826,arrow_simon_norep,2021.1.2,Win32,60.0024001,,,,,,,,,,,,,,,,,,,,,,,,,,,,,,,,,,,,,,
,,,p,1,1.6697,0,0.930795507,#f3af84,,right_orange.png,p,8,1,33,0,1,o,right_blue.png,right_orange.png,p,left,5f4c9e74da9c148b0d42ecbd,001,2021-08-09_11h05.51.826,arrow_simon_norep,2021.1.2,Win32,60.0024001,,,,,,,,,,,,,,,,,,,,,,,,,,,,,,,,,,,,,,
,,,w,0,1.9036,1,0.284127973,#a3d0fb,,right_blue.png,o,8,2,34,0,1,o,right_blue.png,right_orange.png,p,left,5f4c9e74da9c148b0d42ecbd,001,2021-08-09_11h05.51.826,arrow_simon_norep,2021.1.2,Win32,60.0024001,,,,,,,,,,,,,,,,,,,,,,,,,,,,,,,,,,,,,,
,,,q,1,1.7142,0,0.723035802,#f3af84,,left_orange.png,q,8,3,35,3,1,w,left_blue.png,left_orange.png,q,right,5f4c9e74da9c148b0d42ecbd,001,2021-08-09_11h05.51.826,arrow_simon_norep,2021.1.2,Win32,60.0024001,,,,,,,,,,,,,,,,,,,,,,,,,,,,,,,,,,,,,,
,,,w,1,1.7158,0,0.595400947,#a3d0fb,,left_blue.png,w,9,0,36,2,1,w,left_blue.png,left_orange.png,q,left,5f4c9e74da9c148b0d42ecbd,001,2021-08-09_11h05.51.826,arrow_simon_norep,2021.1.2,Win32,60.0024001,,,,,,,,,,,,,,,,,,,,,,,,,,,,,,,,,,,,,,
,,,p,1,1.1231,0,0.411071717,#f3af84,,right_orange.png,p,9,1,37,1,1,o,right_blue.png,right_orange.png,p,right,5f4c9e74da9c148b0d42ecbd,001,2021-08-09_11h05.51.826,arrow_simon_norep,2021.1.2,Win32,60.0024001,,,,,,,,,,,,,,,,,,,,,,,,,,,,,,,,,,,,,,
,,,w,1,1.3994,0,0.180880231,#a3d0fb,,left_blue.png,w,9,2,38,3,1,w,left_blue.png,left_orange.png,q,right,5f4c9e74da9c148b0d42ecbd,001,2021-08-09_11h05.51.826,arrow_simon_norep,2021.1.2,Win32,60.0024001,,,,,,,,,,,,,,,,,,,,,,,,,,,,,,,,,,,,,,
,,,p,1,0.8117,0,0.084501106,#f3af84,,right_orange.png,p,9,3,39,0,1,o,right_blue.png,right_orange.png,p,left,5f4c9e74da9c148b0d42ecbd,001,2021-08-09_11h05.51.826,arrow_simon_norep,2021.1.2,Win32,60.0024001,,,,,,,,,,,,,,,,,,,,,,,,,,,,,,,,,,,,,,
,,,w,1,1.3662,0,0.258058003,#a3d0fb,,left_blue.png,w,10,0,40,2,1,w,left_blue.png,left_orange.png,q,left,5f4c9e74da9c148b0d42ecbd,001,2021-08-09_11h05.51.826,arrow_simon_norep,2021.1.2,Win32,60.0024001,,,,,,,,,,,,,,,,,,,,,,,,,,,,,,,,,,,,,,
,,,p,1,1.3572,0,0.700039428,#f3af84,,right_orange.png,p,10,1,41,1,1,o,right_blue.png,right_orange.png,p,right,5f4c9e74da9c148b0d42ecbd,001,2021-08-09_11h05.51.826,arrow_simon_norep,2021.1.2,Win32,60.0024001,,,,,,,,,,,,,,,,,,,,,,,,,,,,,,,,,,,,,,
,,,w,0,1.5014,1,0.690011186,#a3d0fb,,right_blue.png,o,10,2,42,0,1,o,right_blue.png,right_orange.png,p,left,5f4c9e74da9c148b0d42ecbd,001,2021-08-09_11h05.51.826,arrow_simon_norep,2021.1.2,Win32,60.0024001,,,,,,,,,,,,,,,,,,,,,,,,,,,,,,,,,,,,,,
,,,p,1,0.9581,0,0.071587168,#f3af84,,right_orange.png,p,10,3,43,1,1,o,right_blue.png,right_orange.png,p,right,5f4c9e74da9c148b0d42ecbd,001,2021-08-09_11h05.51.826,arrow_simon_norep,2021.1.2,Win32,60.0024001,,,,,,,,,,,,,,,,,,,,,,,,,,,,,,,,,,,,,,
,,,w,1,1.0564,0,0.331692126,#a3d0fb,,left_blue.png,w,11,0,44,2,1,w,left_blue.png,left_orange.png,q,left,5f4c9e74da9c148b0d42ecbd,001,2021-08-09_11h05.51.826,arrow_simon_norep,2021.1.2,Win32,60.0024001,,,,,,,,,,,,,,,,,,,,,,,,,,,,,,,,,,,,,,
,,,p,1,1.0238,0,0.338163564,#f3af84,,right_orange.png,p,11,1,45,0,1,o,right_blue.png,right_orange.png,p,left,5f4c9e74da9c148b0d42ecbd,001,2021-08-09_11h05.51.826,arrow_simon_norep,2021.1.2,Win32,60.0024001,,,,,,,,,,,,,,,,,,,,,,,,,,,,,,,,,,,,,,
,,,o,1,1.3772,0,0.542107153,#a3d0fb,,right_blue.png,o,11,2,46,1,1,o,right_blue.png,right_orange.png,p,right,5f4c9e74da9c148b0d42ecbd,001,2021-08-09_11h05.51.826,arrow_simon_norep,2021.1.2,Win32,60.0024001,,,,,,,,,,,,,,,,,,,,,,,,,,,,,,,,,,,,,,
,,,q,1,2.0998,0,0.556626069,#f3af84,,left_orange.png,q,11,3,47,3,1,w,left_blue.png,left_orange.png,q,right,5f4c9e74da9c148b0d42ecbd,001,2021-08-09_11h05.51.826,arrow_simon_norep,2021.1.2,Win32,60.0024001,,,,,,,,,,,,,,,,,,,,,,,,,,,,,,,,,,,,,,
,,,o,0,2.0667,1,0.912745068,#a3d0fb,,left_blue.png,w,12,0,48,2,1,w,left_blue.png,left_orange.png,q,left,5f4c9e74da9c148b0d42ecbd,001,2021-08-09_11h05.51.826,arrow_simon_norep,2021.1.2,Win32,60.0024001,,,,,,,,,,,,,,,,,,,,,,,,,,,,,,,,,,,,,,
,,,p,0,1.1976,1,0.037978371,#f3af84,,left_orange.png,q,12,1,49,3,1,w,left_blue.png,left_orange.png,q,right,5f4c9e74da9c148b0d42ecbd,001,2021-08-09_11h05.51.826,arrow_simon_norep,2021.1.2,Win32,60.0024001,,,,,,,,,,,,,,,,,,,,,,,,,,,,,,,,,,,,,,
,,,o,1,2.1982,0,0.270223029,#a3d0fb,,right_blue.png,o,12,2,50,1,1,o,right_blue.png,right_orange.png,p,right,5f4c9e74da9c148b0d42ecbd,001,2021-08-09_11h05.51.826,arrow_simon_norep,2021.1.2,Win32,60.0024001,,,,,,,,,,,,,,,,,,,,,,,,,,,,,,,,,,,,,,
,,,q,1,1.9513,0,0.975431021,#f3af84,,left_orange.png,q,12,3,51,2,1,w,left_blue.png,left_orange.png,q,left,5f4c9e74da9c148b0d42ecbd,001,2021-08-09_11h05.51.826,arrow_simon_norep,2021.1.2,Win32,60.0024001,,,,,,,,,,,,,,,,,,,,,,,,,,,,,,,,,,,,,,
,,,o,1,4.2991,0,0.287532365,#a3d0fb,,right_blue.png,o,13,0,52,1,1,o,right_blue.png,right_orange.png,p,right,5f4c9e74da9c148b0d42ecbd,001,2021-08-09_11h05.51.826,arrow_simon_norep,2021.1.2,Win32,60.0024001,,,,,,,,,,,,,,,,,,,,,,,,,,,,,,,,,,,,,,
,,,p,1,0.8355,0,0.177985455,#f3af84,,right_orange.png,p,13,1,53,1,1,o,right_blue.png,right_orange.png,p,right,5f4c9e74da9c148b0d42ecbd,001,2021-08-09_11h05.51.826,arrow_simon_norep,2021.1.2,Win32,60.0024001,,,,,,,,,,,,,,,,,,,,,,,,,,,,,,,,,,,,,,
,,,w,1,1.5157,0,0.677185615,#a3d0fb,,left_blue.png,w,13,2,54,2,1,w,left_blue.png,left_orange.png,q,left,5f4c9e74da9c148b0d42ecbd,001,2021-08-09_11h05.51.826,arrow_simon_norep,2021.1.2,Win32,60.0024001,,,,,,,,,,,,,,,,,,,,,,,,,,,,,,,,,,,,,,
,,,q,1,0.9573,0,0.069509587,#f3af84,,left_orange.png,q,13,3,55,3,1,w,left_blue.png,left_orange.png,q,right,5f4c9e74da9c148b0d42ecbd,001,2021-08-09_11h05.51.826,arrow_simon_norep,2021.1.2,Win32,60.0024001,,,,,,,,,,,,,,,,,,,,,,,,,,,,,,,,,,,,,,
,,,o,1,0.9933,0,0.145351215,#a3d0fb,,right_blue.png,o,14,0,56,1,1,o,right_blue.png,right_orange.png,p,right,5f4c9e74da9c148b0d42ecbd,001,2021-08-09_11h05.51.826,arrow_simon_norep,2021.1.2,Win32,60.0024001,,,,,,,,,,,,,,,,,,,,,,,,,,,,,,,,,,,,,,
,,,q,1,1.6902,0,0.795149888,#f3af84,,left_orange.png,q,14,1,57,2,1,w,left_blue.png,left_orange.png,q,left,5f4c9e74da9c148b0d42ecbd,001,2021-08-09_11h05.51.826,arrow_simon_norep,2021.1.2,Win32,60.0024001,,,,,,,,,,,,,,,,,,,,,,,,,,,,,,,,,,,,,,
,,,w,1,1.9715,0,0.436015467,#a3d0fb,,left_blue.png,w,14,2,58,3,1,w,left_blue.png,left_orange.png,q,right,5f4c9e74da9c148b0d42ecbd,001,2021-08-09_11h05.51.826,arrow_simon_norep,2021.1.2,Win32,60.0024001,,,,,,,,,,,,,,,,,,,,,,,,,,,,,,,,,,,,,,
,,,o,0,1.404,1,0.110400118,#f3af84,,right_orange.png,p,14,3,59,1,1,o,right_blue.png,right_orange.png,p,right,5f4c9e74da9c148b0d42ecbd,001,2021-08-09_11h05.51.826,arrow_simon_norep,2021.1.2,Win32,60.0024001,,,,,,,,,,,,,,,,,,,,,,,,,,,,,,,,,,,,,,
,,,,,,,,,,,,,,,,,,,,,,5f4c9e74da9c148b0d42ecbd,001,2021-08-09_11h05.51.826,arrow_simon_norep,2021.1.2,Win32,60.0024001,space,4.5685,1,0,1,0,1,,,,,,,,,,,,,,,,,,,,,,,,,,,,,,,
,,,,,,,,,,,,,,,,,,,,,,5f4c9e74da9c148b0d42ecbd,001,2021-08-09_11h05.51.826,arrow_simon_norep,2021.1.2,Win32,60.0024001,,,,,,,,space,0,67.1732,w,4.0983,0,0,0,0,1,,,,,,,,,,,,,,,,,,,,,
,,,,,,,,,,,,,,,,,,,,,,5f4c9e74da9c148b0d42ecbd,001,2021-08-09_11h05.51.826,arrow_simon_norep,2021.1.2,Win32,60.0024001,,,,,,,,,,,q,2.7985,1,0,1,0,1,,,,,,,,,,,,,,,,,,,,,
,,,,,,,,,,,,,,,,,,,,,,5f4c9e74da9c148b0d42ecbd,001,2021-08-09_11h05.51.826,arrow_simon_norep,2021.1.2,Win32,60.0024001,,,,,,,,,,,o,2.4557,2,0,2,0,1,,,,,,,,,,,,,,,,,,,,,
,,,,,,,,,,,,,,,,,,,,,,5f4c9e74da9c148b0d42ecbd,001,2021-08-09_11h05.51.826,arrow_simon_norep,2021.1.2,Win32,60.0024001,,,,,,,,,,,w,2.5152,3,0,3,0,1,,,,,,,,,,,,,,,,,,,,,
,,,,,,,,,,,,,,,,,,,,,,5f4c9e74da9c148b0d42ecbd,001,2021-08-09_11h05.51.826,arrow_simon_norep,2021.1.2,Win32,60.0024001,,,,,,,,,,,w,2.9653,4,0,4,0,1,,,,,,,,,,,,,,,,,,,,,
,,,,,,,,,,,,,,,,,,,,,,5f4c9e74da9c148b0d42ecbd,001,2021-08-09_11h05.51.826,arrow_simon_norep,2021.1.2,Win32,60.0024001,,,,,,,,,,,q,2.5158,5,0,5,0,1,,,,,,,,,,,,,,,,,,,,,
,,,,,,,,,,,,,,,,,,,,,,5f4c9e74da9c148b0d42ecbd,001,2021-08-09_11h05.51.826,arrow_simon_norep,2021.1.2,Win32,60.0024001,,,,,,,,,,,o,2.4839,6,0,6,0,1,,,,,,,,,,,,,,,,,,,,,
,,,,,,,,,,,,,,,,,,,,,,5f4c9e74da9c148b0d42ecbd,001,2021-08-09_11h05.51.826,arrow_simon_norep,2021.1.2,Win32,60.0024001,,,,,,,,,,,w,2.4984,7,0,7,0,1,,,,,,,,,,,,,,,,,,,,,
,,,,,,,,,,,,,,,,,,,,,,5f4c9e74da9c148b0d42ecbd,001,2021-08-09_11h05.51.826,arrow_simon_norep,2021.1.2,Win32,60.0024001,,,,,,,,,,,q,2.5169,8,0,8,0,1,,,,,,,,,,,,,,,,,,,,,
,,,,,,,,,,,,,,,,,,,,,,5f4c9e74da9c148b0d42ecbd,001,2021-08-09_11h05.51.826,arrow_simon_norep,2021.1.2,Win32,60.0024001,,,,,,,,,,,w,2.4841,9,0,9,0,1,,,,,,,,,,,,,,,,,,,,,
,,,,,,,,,,,,,,,,,,,,,,5f4c9e74da9c148b0d42ecbd,001,2021-08-09_11h05.51.826,arrow_simon_norep,2021.1.2,Win32,60.0024001,,,,,,,,,,,w,3.1607,10,0,10,0,1,,,,,,,,,,,,,,,,,,,,,
,,,,,,,,,,,,,,,,,,,,,,5f4c9e74da9c148b0d42ecbd,001,2021-08-09_11h05.51.826,arrow_simon_norep,2021.1.2,Win32,60.0024001,,,,,,,,,,,q,2.5315,11,0,11,0,1,,,,,,,,,,,,,,,,,,,,,
,,,,,,,,,,,,,,,,,,,,,,5f4c9e74da9c148b0d42ecbd,001,2021-08-09_11h05.51.826,arrow_simon_norep,2021.1.2,Win32,60.0024001,,,,,,,,,,,o,2.9986,12,0,12,0,1,,,,,,,,,,,,,,,,,,,,,
,,,,,,,,,,,,,,,,,,,,,,5f4c9e74da9c148b0d42ecbd,001,2021-08-09_11h05.51.826,arrow_simon_norep,2021.1.2,Win32,60.0024001,,,,,,,,,,,o,2.5572,13,0,13,0,1,,,,,,,,,,,,,,,,,,,,,
,,,,,,,,,,,,,,,,,,,,,,5f4c9e74da9c148b0d42ecbd,001,2021-08-09_11h05.51.826,arrow_simon_norep,2021.1.2,Win32,60.0024001,,,,,,,,,,,p,2.5573,14,0,14,0,1,,,,,,,,,,,,,,,,,,,,,
,,,,,,,,,,,,,,,,,,,,,,5f4c9e74da9c148b0d42ecbd,001,2021-08-09_11h05.51.826,arrow_simon_norep,2021.1.2,Win32,60.0024001,,,,,,,,,,,w,2.5173,15,0,15,0,1,,,,,,,,,,,,,,,,,,,,,
,,,,,,,,,,,,,,,,,,,,,,5f4c9e74da9c148b0d42ecbd,001,2021-08-09_11h05.51.826,arrow_simon_norep,2021.1.2,Win32,60.0024001,,,,,,,,,,,w,2.4818,16,0,16,0,1,,,,,,,,,,,,,,,,,,,,,
,,,,,,,,,,,,,,,,,,,,,,5f4c9e74da9c148b0d42ecbd,001,2021-08-09_11h05.51.826,arrow_simon_norep,2021.1.2,Win32,60.0024001,,,,,,,,,,,o,2.5366,17,0,17,0,1,,,,,,,,,,,,,,,,,,,,,
,,,,,,,,,,,,,,,,,,,,,,5f4c9e74da9c148b0d42ecbd,001,2021-08-09_11h05.51.826,arrow_simon_norep,2021.1.2,Win32,60.0024001,,,,,,,,,,,q,2.5355,18,0,18,0,1,,,,,,,,,,,,,,,,,,,,,
,,,,,,,,,,,,,,,,,,,,,,5f4c9e74da9c148b0d42ecbd,001,2021-08-09_11h05.51.826,arrow_simon_norep,2021.1.2,Win32,60.0024001,,,,,,,,,,,p,2.5391,19,0,19,0,1,,,,,,,,,,,,,,,,,,,,,
,,,,,,,,,,,,,,,,,,,,,,5f4c9e74da9c148b0d42ecbd,001,2021-08-09_11h05.51.826,arrow_simon_norep,2021.1.2,Win32,60.0024001,,,,,,,,,,,w,2.5549,20,0,20,0,1,,,,,,,,,,,,,,,,,,,,,
,,,,,,,,,,,,,,,,,,,,,,5f4c9e74da9c148b0d42ecbd,001,2021-08-09_11h05.51.826,arrow_simon_norep,2021.1.2,Win32,60.0024001,,,,,,,,,,,q,2.4894,21,0,21,0,1,,,,,,,,,,,,,,,,,,,,,
,,,,,,,,,,,,,,,,,,,,,,5f4c9e74da9c148b0d42ecbd,001,2021-08-09_11h05.51.826,arrow_simon_norep,2021.1.2,Win32,60.0024001,,,,,,,,,,,w,2.5157,22,0,22,0,1,,,,,,,,,,,,,,,,,,,,,
,,,,,,,,,,,,,,,,,,,,,,5f4c9e74da9c148b0d42ecbd,001,2021-08-09_11h05.51.826,arrow_simon_norep,2021.1.2,Win32,60.0024001,,,,,,,,,,,o,2.5694,23,0,23,0,1,,,,,,,,,,,,,,,,,,,,,
,,,,,,,,,,,,,,,,,,,,,,5f4c9e74da9c148b0d42ecbd,001,2021-08-09_11h05.51.826,arrow_simon_norep,2021.1.2,Win32,60.0024001,,,,,,,,,,,w,2.4693,24,0,24,0,1,,,,,,,,,,,,,,,,,,,,,
,,,,,,,,,,,,,,,,,,,,,,5f4c9e74da9c148b0d42ecbd,001,2021-08-09_11h05.51.826,arrow_simon_norep,2021.1.2,Win32,60.0024001,,,,,,,,,,,p,2.4734,25,0,25,0,1,,,,,,,,,,,,,,,,,,,,,
,,,,,,,,,,,,,,,,,,,,,,5f4c9e74da9c148b0d42ecbd,001,2021-08-09_11h05.51.826,arrow_simon_norep,2021.1.2,Win32,60.0024001,,,,,,,,,,,o,2.582,26,0,26,0,1,,,,,,,,,,,,,,,,,,,,,
,,,,,,,,,,,,,,,,,,,,,,5f4c9e74da9c148b0d42ecbd,001,2021-08-09_11h05.51.826,arrow_simon_norep,2021.1.2,Win32,60.0024001,,,,,,,,,,,q,2.5491,27,0,27,0,1,,,,,,,,,,,,,,,,,,,,,
,,,,,,,,,,,,,,,,,,,,,,5f4c9e74da9c148b0d42ecbd,001,2021-08-09_11h05.51.826,arrow_simon_norep,2021.1.2,Win32,60.0024001,,,,,,,,,,,w,2.5648,28,0,28,0,1,,,,,,,,,,,,,,,,,,,,,
,,,,,,,,,,,,,,,,,,,,,,5f4c9e74da9c148b0d42ecbd,001,2021-08-09_11h05.51.826,arrow_simon_norep,2021.1.2,Win32,60.0024001,,,,,,,,,,,o,2.5511,29,0,29,0,1,,,,,,,,,,,,,,,,,,,,,
,,,,,,,,,,,,,,,,,,,,,,5f4c9e74da9c148b0d42ecbd,001,2021-08-09_11h05.51.826,arrow_simon_norep,2021.1.2,Win32,60.0024001,,,,,,,,,,,w,2.4334,30,0,30,0,1,,,,,,,,,,,,,,,,,,,,,
,,,,,,,,,,,,,,,,,,,,,,5f4c9e74da9c148b0d42ecbd,001,2021-08-09_11h05.51.826,arrow_simon_norep,2021.1.2,Win32,60.0024001,,,,,,,,,,,w,2.481,31,0,31,0,1,,,,,,,,,,,,,,,,,,,,,
,,,,,,,,,,,,,,,,,,,,,,5f4c9e74da9c148b0d42ecbd,001,2021-08-09_11h05.51.826,arrow_simon_norep,2021.1.2,Win32,60.0024001,,,,,,,,,,,o,2.432,32,0,32,0,1,,,,,,,,,,,,,,,,,,,,,
,,,,,,,,,,,,,,,,,,,,,,5f4c9e74da9c148b0d42ecbd,001,2021-08-09_11h05.51.826,arrow_simon_norep,2021.1.2,Win32,60.0024001,,,,,,,,,,,q,2.5358,33,0,33,0,1,,,,,,,,,,,,,,,,,,,,,
,,,,,,,,,,,,,,,,,,,,,,5f4c9e74da9c148b0d42ecbd,001,2021-08-09_11h05.51.826,arrow_simon_norep,2021.1.2,Win32,60.0024001,,,,,,,,,,,w,2.518,34,0,34,0,1,,,,,,,,,,,,,,,,,,,,,
,,,,,,,,,,,,,,,,,,,,,,5f4c9e74da9c148b0d42ecbd,001,2021-08-09_11h05.51.826,arrow_simon_norep,2021.1.2,Win32,60.0024001,,,,,,,,,,,o,2.9154,35,0,35,0,1,,,,,,,,,,,,,,,,,,,,,
,,,,,,,,,,,,,,,,,,,,,,5f4c9e74da9c148b0d42ecbd,001,2021-08-09_11h05.51.826,arrow_simon_norep,2021.1.2,Win32,60.0024001,,,,,,,,,,,o,2.4986,36,0,36,0,1,,,,,,,,,,,,,,,,,,,,,
,,,,,,,,,,,,,,,,,,,,,,5f4c9e74da9c148b0d42ecbd,001,2021-08-09_11h05.51.826,arrow_simon_norep,2021.1.2,Win32,60.0024001,,,,,,,,,,,q,2.9982,37,0,37,0,1,,,,,,,,,,,,,,,,,,,,,
,,,,,,,,,,,,,,,,,,,,,,5f4c9e74da9c148b0d42ecbd,001,2021-08-09_11h05.51.826,arrow_simon_norep,2021.1.2,Win32,60.0024001,,,,,,,,,,,w,2.4485,38,0,38,0,1,,,,,,,,,,,,,,,,,,,,,
,,,,,,,,,,,,,,,,,,,,,,5f4c9e74da9c148b0d42ecbd,001,2021-08-09_11h05.51.826,arrow_simon_norep,2021.1.2,Win32,60.0024001,,,,,,,,,,,o,2.1156,39,0,39,0,1,,,,,,,,,,,,,,,,,,,,,
,,,,,,,,,,,,,,,,,,,,,,5f4c9e74da9c148b0d42ecbd,001,2021-08-09_11h05.51.826,arrow_simon_norep,2021.1.2,Win32,60.0024001,,,,,,,,,,,q,2.5319,40,0,40,0,1,,,,,,,,,,,,,,,,,,,,,
,,,,,,,,,,,,,,,,,,,,,,5f4c9e74da9c148b0d42ecbd,001,2021-08-09_11h05.51.826,arrow_simon_norep,2021.1.2,Win32,60.0024001,,,,,,,,,,,o,1.9473,41,0,41,0,1,,,,,,,,,,,,,,,,,,,,,
,,,,,,,,,,,,,,,,,,,,,,5f4c9e74da9c148b0d42ecbd,001,2021-08-09_11h05.51.826,arrow_simon_norep,2021.1.2,Win32,60.0024001,,,,,,,,,,,o,1.932,42,0,42,0,1,,,,,,,,,,,,,,,,,,,,,
,,,,,,,,,,,,,,,,,,,,,,5f4c9e74da9c148b0d42ecbd,001,2021-08-09_11h05.51.826,arrow_simon_norep,2021.1.2,Win32,60.0024001,,,,,,,,,,,p,2.1351,43,0,43,0,1,,,,,,,,,,,,,,,,,,,,,
,,,,,,,,,,,,,,,,,,,,,,5f4c9e74da9c148b0d42ecbd,001,2021-08-09_11h05.51.826,arrow_simon_norep,2021.1.2,Win32,60.0024001,,,,,,,,,,,p,2.4819,44,0,44,0,1,,,,,,,,,,,,,,,,,,,,,
,,,,,,,,,,,,,,,,,,,,,,5f4c9e74da9c148b0d42ecbd,001,2021-08-09_11h05.51.826,arrow_simon_norep,2021.1.2,Win32,60.0024001,,,,,,,,,,,q,2.4995,45,0,45,0,1,,,,,,,,,,,,,,,,,,,,,
,,,,,,,,,,,,,,,,,,,,,,5f4c9e74da9c148b0d42ecbd,001,2021-08-09_11h05.51.826,arrow_simon_norep,2021.1.2,Win32,60.0024001,,,,,,,,,,,p,2.499,46,0,46,0,1,,,,,,,,,,,,,,,,,,,,,
,,,,,,,,,,,,,,,,,,,,,,5f4c9e74da9c148b0d42ecbd,001,2021-08-09_11h05.51.826,arrow_simon_norep,2021.1.2,Win32,60.0024001,,,,,,,,,,,w,2.5527,47,0,47,0,1,,,,,,,,,,,,,,,,,,,,,
,,,,,,,,,,,,,,,,,,,,,,5f4c9e74da9c148b0d42ecbd,001,2021-08-09_11h05.51.826,arrow_simon_norep,2021.1.2,Win32,60.0024001,,,,,,,,,,,q,2.5322,48,0,48,0,1,,,,,,,,,,,,,,,,,,,,,
,,,,,,,,,,,,,,,,,,,,,,5f4c9e74da9c148b0d42ecbd,001,2021-08-09_11h05.51.826,arrow_simon_norep,2021.1.2,Win32,60.0024001,,,,,,,,,,,w,2.499,49,0,49,0,1,,,,,,,,,,,,,,,,,,,,,
,,,,,,,,,,,,,,,,,,,,,,5f4c9e74da9c148b0d42ecbd,001,2021-08-09_11h05.51.826,arrow_simon_norep,2021.1.2,Win32,60.0024001,,,,,,,,,,,w,2.5653,50,0,50,0,1,,,,,,,,,,,,,,,,,,,,,
,,,,,,,,,,,,,,,,,,,,,,5f4c9e74da9c148b0d42ecbd,001,2021-08-09_11h05.51.826,arrow_simon_norep,2021.1.2,Win32,60.0024001,,,,,,,,,,,p,2.486,51,0,51,0,1,,,,,,,,,,,,,,,,,,,,,
,,,,,,,,,,,,,,,,,,,,,,5f4c9e74da9c148b0d42ecbd,001,2021-08-09_11h05.51.826,arrow_simon_norep,2021.1.2,Win32,60.0024001,,,,,,,,,,,q,2.5257,52,0,52,0,1,,,,,,,,,,,,,,,,,,,,,
,,,,,,,,,,,,,,,,,,,,,,5f4c9e74da9c148b0d42ecbd,001,2021-08-09_11h05.51.826,arrow_simon_norep,2021.1.2,Win32,60.0024001,,,,,,,,,,,w,2.4821,53,0,53,0,1,,,,,,,,,,,,,,,,,,,,,
,,,,,,,,,,,,,,,,,,,,,,5f4c9e74da9c148b0d42ecbd,001,2021-08-09_11h05.51.826,arrow_simon_norep,2021.1.2,Win32,60.0024001,,,,,,,,,,,q,2.5655,54,0,54,0,1,,,,,,,,,,,,,,,,,,,,,
,,,,,,,,,,,,,,,,,,,,,,5f4c9e74da9c148b0d42ecbd,001,2021-08-09_11h05.51.826,arrow_simon_norep,2021.1.2,Win32,60.0024001,,,,,,,,,,,o,2.4891,55,0,55,0,1,,,,,,,,,,,,,,,,,,,,,
,,,,,,,,,,,,,,,,,,,,,,5f4c9e74da9c148b0d42ecbd,001,2021-08-09_11h05.51.826,arrow_simon_norep,2021.1.2,Win32,60.0024001,,,,,,,,,,,p,2.4821,56,0,56,0,1,,,,,,,,,,,,,,,,,,,,,
,,,,,,,,,,,,,,,,,,,,,,5f4c9e74da9c148b0d42ecbd,001,2021-08-09_11h05.51.826,arrow_simon_norep,2021.1.2,Win32,60.0024001,,,,,,,,,,,w,2.5369,57,0,57,0,1,,,,,,,,,,,,,,,,,,,,,
,,,,,,,,,,,,,,,,,,,,,,5f4c9e74da9c148b0d42ecbd,001,2021-08-09_11h05.51.826,arrow_simon_norep,2021.1.2,Win32,60.0024001,,,,,,,,,,,o,2.4812,58,0,58,0,1,,,,,,,,,,,,,,,,,,,,,
,,,,,,,,,,,,,,,,,,,,,,5f4c9e74da9c148b0d42ecbd,001,2021-08-09_11h05.51.826,arrow_simon_norep,2021.1.2,Win32,60.0024001,,,,,,,,,,,q,2.9991,59,0,59,0,1,,,,,,,,,,,,,,,,,,,,,
,,,,,,1,2.360250042,#a3d0fb,,left_blue.png,w,,,,,,w,left_blue.png,left_orange.png,q,left,5f4c9e74da9c148b0d42ecbd,001,2021-08-09_11h05.51.826,arrow_simon_norep,2021.1.2,Win32,60.0024001,,,,,,,,,,,,,,,,,,space,0,94.407,w,1,2.0742,1,TRUE,FALSE,0,0,0,2,1,,,,,,,
,,,,,,1,1.807850215,#f3af84,,right_orange.png,p,,,,,,o,right_blue.png,right_orange.png,p,right,5f4c9e74da9c148b0d42ecbd,001,2021-08-09_11h05.51.826,arrow_simon_norep,2021.1.2,Win32,60.0024001,,,,,,,,,,,,,,,,,,,,,p,1,1.3614,2,FALSE,TRUE,0,1,1,1,1,,,,,,,
,,,,,,1,2.427869826,#a3d0fb,,right_blue.png,o,,,,,,o,right_blue.png,right_orange.png,p,left,5f4c9e74da9c148b0d42ecbd,001,2021-08-09_11h05.51.826,arrow_simon_norep,2021.1.2,Win32,60.0024001,,,,,,,,,,,,,,,,,,,,,w,0,1.9012,3,TRUE,FALSE,0,2,2,0,1,,,,,,,
,,,,,,1,1.571894934,#f3af84,,left_orange.png,q,,,,,,w,left_blue.png,left_orange.png,q,right,5f4c9e74da9c148b0d42ecbd,001,2021-08-09_11h05.51.826,arrow_simon_norep,2021.1.2,Win32,60.0024001,,,,,,,,,,,,,,,,,,,,,o,0,1.3118,4,FALSE,TRUE,0,3,3,3,1,,,,,,,
,,,,,,0,1.918564807,#a3d0fb,,right_blue.png,o,,,,,,o,right_blue.png,right_orange.png,p,left,5f4c9e74da9c148b0d42ecbd,001,2021-08-09_11h05.51.826,arrow_simon_norep,2021.1.2,Win32,60.0024001,,,,,,,,,,,,,,,,,,,,,o,1,1.5376,5,FALSE,FALSE,1,0,4,0,1,,,,,,,
,,,,,,0,2.314439969,#f3af84,,right_orange.png,p,,,,,,o,right_blue.png,right_orange.png,p,right,5f4c9e74da9c148b0d42ecbd,001,2021-08-09_11h05.51.826,arrow_simon_norep,2021.1.2,Win32,60.0024001,,,,,,,,,,,,,,,,,,,,,p,1,1.843,6,TRUE,FALSE,1,1,5,1,1,,,,,,,
,,,,,,0,2.428673549,#a3d0fb,,left_blue.png,w,,,,,,w,left_blue.png,left_orange.png,q,right,5f4c9e74da9c148b0d42ecbd,001,2021-08-09_11h05.51.826,arrow_simon_norep,2021.1.2,Win32,60.0024001,,,,,,,,,,,,,,,,,,,,,o,0,1.8393,7,TRUE,FALSE,1,2,6,3,1,,,,,,,
,,,,,,0,2.401932356,#f3af84,,left_orange.png,q,,,,,,w,left_blue.png,left_orange.png,q,right,5f4c9e74da9c148b0d42ecbd,001,2021-08-09_11h05.51.826,arrow_simon_norep,2021.1.2,Win32,60.0024001,,,,,,,,,,,,,,,,,,,,,o,0,1.7737,8,TRUE,FALSE,1,3,7,3,1,,,,,,,
,,,,,,0,1.67131624,#a3d0fb,,left_blue.png,w,,,,,,w,left_blue.png,left_orange.png,q,right,5f4c9e74da9c148b0d42ecbd,001,2021-08-09_11h05.51.826,arrow_simon_norep,2021.1.2,Win32,60.0024001,,,,,,,,,,,,,,,,,,,,,w,1,1.4382,9,FALSE,FALSE,2,0,8,3,1,,,,,,,
,,,,,,0,1.58663816,#f3af84,,left_orange.png,q,,,,,,w,left_blue.png,left_orange.png,q,left,5f4c9e74da9c148b0d42ecbd,001,2021-08-09_11h05.51.826,arrow_simon_norep,2021.1.2,Win32,60.0024001,,,,,,,,,,,,,,,,,,,,,q,1,1.4512,10,FALSE,FALSE,2,1,9,2,1,,,,,,,
,,,,,,0,2.035457773,#a3d0fb,,left_blue.png,w,,,,,,w,left_blue.png,left_orange.png,q,right,5f4c9e74da9c148b0d42ecbd,001,2021-08-09_11h05.51.826,arrow_simon_norep,2021.1.2,Win32,60.0024001,,,,,,,,,,,,,,,,,,,,,w,1,1.6718,11,TRUE,FALSE,2,2,10,3,1,,,,,,,
,,,,,,0,1.776611098,#f3af84,,left_orange.png,q,,,,,,w,left_blue.png,left_orange.png,q,left,5f4c9e74da9c148b0d42ecbd,001,2021-08-09_11h05.51.826,arrow_simon_norep,2021.1.2,Win32,60.0024001,,,,,,,,,,,,,,,,,,,,,q,1,1.8182,12,TRUE,FALSE,2,3,11,2,1,,,,,,,
,,,,,,0,2.495782799,#a3d0fb,,right_blue.png,o,,,,,,o,right_blue.png,right_orange.png,p,right,5f4c9e74da9c148b0d42ecbd,001,2021-08-09_11h05.51.826,arrow_simon_norep,2021.1.2,Win32,60.0024001,,,,,,,,,,,,,,,,,,,,,o,1,1.9917,13,TRUE,FALSE,3,0,12,1,1,,,,,,,
,,,,,,0,2.1111179,#f3af84,,left_orange.png,q,,,,,,w,left_blue.png,left_orange.png,q,right,5f4c9e74da9c148b0d42ecbd,001,2021-08-09_11h05.51.826,arrow_simon_norep,2021.1.2,Win32,60.0024001,,,,,,,,,,,,,,,,,,,,,w,0,1.7229,14,TRUE,FALSE,3,1,13,3,1,,,,,,,
,,,,,,0,1.869858479,#a3d0fb,,left_blue.png,w,,,,,,w,left_blue.png,left_orange.png,q,right,5f4c9e74da9c148b0d42ecbd,001,2021-08-09_11h05.51.826,arrow_simon_norep,2021.1.2,Win32,60.0024001,,,,,,,,,,,,,,,,,,,,,w,1,1.4496,15,FALSE,FALSE,3,2,14,3,1,,,,,,,
,,,,,,0,1.940551308,#f3af84,,right_orange.png,p,,,,,,o,right_blue.png,right_orange.png,p,right,5f4c9e74da9c148b0d42ecbd,001,2021-08-09_11h05.51.826,arrow_simon_norep,2021.1.2,Win32,60.0024001,,,,,,,,,,,,,,,,,,,,,p,1,1.4596,16,FALSE,FALSE,3,3,15,1,1,,,,,,,
,,,,,,0,1.552810589,#a3d0fb,,left_blue.png,w,,,,,,w,left_blue.png,left_orange.png,q,right,5f4c9e74da9c148b0d42ecbd,001,2021-08-09_11h05.51.826,arrow_simon_norep,2021.1.2,Win32,60.0024001,,,,,,,,,,,,,,,,,,,,,w,1,1.5053,17,FALSE,FALSE,4,0,16,3,1,,,,,,,
,,,,,,0,1.616937576,#f3af84,,left_orange.png,q,,,,,,w,left_blue.png,left_orange.png,q,right,5f4c9e74da9c148b0d42ecbd,001,2021-08-09_11h05.51.826,arrow_simon_norep,2021.1.2,Win32,60.0024001,,,,,,,,,,,,,,,,,,,,,q,1,1.3369,18,FALSE,TRUE,4,1,17,3,1,,,,,,,
,,,,,,0,2.282318288,#a3d0fb,,right_blue.png,o,,,,,,o,right_blue.png,right_orange.png,p,right,5f4c9e74da9c148b0d42ecbd,001,2021-08-09_11h05.51.826,arrow_simon_norep,2021.1.2,Win32,60.0024001,,,,,,,,,,,,,,,,,,,,,o,1,1.7835,19,TRUE,FALSE,4,2,18,1,1,,,,,,,
,,,,,,0,1.980675057,#f3af84,,left_orange.png,q,,,,,,w,left_blue.png,left_orange.png,q,left,5f4c9e74da9c148b0d42ecbd,001,2021-08-09_11h05.51.826,arrow_simon_norep,2021.1.2,Win32,60.0024001,,,,,,,,,,,,,,,,,,,,,q,1,1.738,20,TRUE,FALSE,4,3,19,2,1,,,,,,,
,,,,,,0,1.911076938,#a3d0fb,,left_blue.png,w,,,,,,w,left_blue.png,left_orange.png,q,left,5f4c9e74da9c148b0d42ecbd,001,2021-08-09_11h05.51.826,arrow_simon_norep,2021.1.2,Win32,60.0024001,,,,,,,,,,,,,,,,,,,,,w,1,1.4879,21,FALSE,FALSE,5,0,20,2,1,,,,,,,
,,,,,,0,2.010533029,#f3af84,,left_orange.png,q,,,,,,w,left_blue.png,left_orange.png,q,right,5f4c9e74da9c148b0d42ecbd,001,2021-08-09_11h05.51.826,arrow_simon_norep,2021.1.2,Win32,60.0024001,,,,,,,,,,,,,,,,,,,,,q,1,1.7338,22,TRUE,FALSE,5,1,21,3,1,,,,,,,
,,,,,,0,2.259799166,#a3d0fb,,right_blue.png,o,,,,,,o,right_blue.png,right_orange.png,p,right,5f4c9e74da9c148b0d42ecbd,001,2021-08-09_11h05.51.826,arrow_simon_norep,2021.1.2,Win32,60.0024001,,,,,,,,,,,,,,,,,,,,,o,1,1.7421,23,TRUE,FALSE,5,2,22,1,1,,,,,,,
,,,,,,0,2.157554984,#f3af84,,left_orange.png,q,,,,,,w,left_blue.png,left_orange.png,q,right,5f4c9e74da9c148b0d42ecbd,001,2021-08-09_11h05.51.826,arrow_simon_norep,2021.1.2,Win32,60.0024001,,,,,,,,,,,,,,,,,,,,,w,0,1.7701,24,TRUE,FALSE,5,3,23,3,1,,,,,,,
,,,,,,0,2.074811611,#a3d0fb,,left_blue.png,w,,,,,,w,left_blue.png,left_orange.png,q,left,5f4c9e74da9c148b0d42ecbd,001,2021-08-09_11h05.51.826,arrow_simon_norep,2021.1.2,Win32,60.0024001,,,,,,,,,,,,,,,,,,,,,w,1,1.7385,25,TRUE,FALSE,6,0,24,2,1,,,,,,,
,,,,,,0,2.05213463,#f3af84,,right_orange.png,p,,,,,,o,right_blue.png,right_orange.png,p,left,5f4c9e74da9c148b0d42ecbd,001,2021-08-09_11h05.51.826,arrow_simon_norep,2021.1.2,Win32,60.0024001,,,,,,,,,,,,,,,,,,,,,o,0,1.66,26,TRUE,FALSE,6,1,25,0,1,,,,,,,
,,,,,,0,2.302939625,#a3d0fb,,left_blue.png,w,,,,,,w,left_blue.png,left_orange.png,q,right,5f4c9e74da9c148b0d42ecbd,001,2021-08-09_11h05.51.826,arrow_simon_norep,2021.1.2,Win32,60.0024001,,,,,,,,,,,,,,,,,,,,,o,0,1.8708,27,TRUE,FALSE,6,2,26,3,1,,,,,,,
,,,,,,0,2.471165903,#f3af84,,right_orange.png,p,,,,,,o,right_blue.png,right_orange.png,p,right,5f4c9e74da9c148b0d42ecbd,001,2021-08-09_11h05.51.826,arrow_simon_norep,2021.1.2,Win32,60.0024001,,,,,,,,,,,,,,,,,,,,,p,1,2.0911,28,TRUE,FALSE,6,3,27,1,1,,,,,,,
,,,,,,0,2.141670183,#a3d0fb,,right_blue.png,o,,,,,,o,right_blue.png,right_orange.png,p,right,5f4c9e74da9c148b0d42ecbd,001,2021-08-09_11h05.51.826,arrow_simon_norep,2021.1.2,Win32,60.0024001,,,,,,,,,,,,,,,,,,,,,o,1,1.667,29,TRUE,FALSE,7,0,28,1,1,,,,,,,
,,,,,,0,2.2566528,#f3af84,,right_orange.png,p,,,,,,o,right_blue.png,right_orange.png,p,left,5f4c9e74da9c148b0d42ecbd,001,2021-08-09_11h05.51.826,arrow_simon_norep,2021.1.2,Win32,60.0024001,,,,,,,,,,,,,,,,,,,,,w,0,1.934,30,TRUE,FALSE,7,1,29,0,1,,,,,,,
,,,,,,0,1.550227115,#a3d0fb,,right_blue.png,o,,,,,,o,right_blue.png,right_orange.png,p,left,5f4c9e74da9c148b0d42ecbd,001,2021-08-09_11h05.51.826,arrow_simon_norep,2021.1.2,Win32,60.0024001,,,,,,,,,,,,,,,,,,,,,o,1,1.3672,31,FALSE,TRUE,7,2,30,0,1,,,,,,,
,,,,,,1,2.032142817,#f3af84,,left_orange.png,q,,,,,,w,left_blue.png,left_orange.png,q,right,5f4c9e74da9c148b0d42ecbd,001,2021-08-09_11h05.51.826,arrow_simon_norep,2021.1.2,Win32,60.0024001,,,,,,,,,,,,,,,,,,,,,w,0,1.5708,32,FALSE,FALSE,7,3,31,3,1,,,,,,,
,,,,,,1,1.983359437,#a3d0fb,,right_blue.png,o,,,,,,o,right_blue.png,right_orange.png,p,left,5f4c9e74da9c148b0d42ecbd,001,2021-08-09_11h05.51.826,arrow_simon_norep,2021.1.2,Win32,60.0024001,,,,,,,,,,,,,,,,,,,,,o,1,1.6229,33,TRUE,FALSE,8,0,32,0,1,,,,,,,
,,,,,,1,1.950925751,#f3af84,,left_orange.png,q,,,,,,w,left_blue.png,left_orange.png,q,left,5f4c9e74da9c148b0d42ecbd,001,2021-08-09_11h05.51.826,arrow_simon_norep,2021.1.2,Win32,60.0024001,,,,,,,,,,,,,,,,,,,,,q,1,1.8037,34,TRUE,FALSE,8,1,33,2,1,,,,,,,
,,,,,,0,2.01080032,#a3d0fb,,left_blue.png,w,,,,,,w,left_blue.png,left_orange.png,q,left,5f4c9e74da9c148b0d42ecbd,001,2021-08-09_11h05.51.826,arrow_simon_norep,2021.1.2,Win32,60.0024001,,,,,,,,,,,,,,,,,,,,,w,1,1.4738,35,FALSE,FALSE,8,2,34,2,1,,,,,,,
,,,,,,0,2.465990778,#f3af84,,right_orange.png,p,,,,,,o,right_blue.png,right_orange.png,p,right,5f4c9e74da9c148b0d42ecbd,001,2021-08-09_11h05.51.826,arrow_simon_norep,2021.1.2,Win32,60.0024001,,,,,,,,,,,,,,,,,,,,,p,1,2.0339,36,TRUE,FALSE,8,3,35,1,1,,,,,,,
,,,,,,0,1.613552354,#a3d0fb,,right_blue.png,o,,,,,,o,right_blue.png,right_orange.png,p,right,5f4c9e74da9c148b0d42ecbd,001,2021-08-09_11h05.51.826,arrow_simon_norep,2021.1.2,Win32,60.0024001,,,,,,,,,,,,,,,,,,,,,o,1,1.4481,37,FALSE,FALSE,9,0,36,1,1,,,,,,,
,,,,,,0,2.484173582,#f3af84,,left_orange.png,q,,,,,,w,left_blue.png,left_orange.png,q,right,5f4c9e74da9c148b0d42ecbd,001,2021-08-09_11h05.51.826,arrow_simon_norep,2021.1.2,Win32,60.0024001,,,,,,,,,,,,,,,,,,,,,q,1,1.9375,38,TRUE,FALSE,9,1,37,3,1,,,,,,,
,,,,,,0,1.870376106,#a3d0fb,,left_blue.png,w,,,,,,w,left_blue.png,left_orange.png,q,left,5f4c9e74da9c148b0d42ecbd,001,2021-08-09_11h05.51.826,arrow_simon_norep,2021.1.2,Win32,60.0024001,,,,,,,,,,,,,,,,,,,,,w,1,1.4211,39,FALSE,FALSE,9,2,38,2,1,,,,,,,
,,,,,,0,2.442978562,#f3af84,,left_orange.png,q,,,,,,w,left_blue.png,left_orange.png,q,left,5f4c9e74da9c148b0d42ecbd,001,2021-08-09_11h05.51.826,arrow_simon_norep,2021.1.2,Win32,60.0024001,,,,,,,,,,,,,,,,,,,,,q,1,1.976,40,TRUE,FALSE,9,3,39,2,1,,,,,,,
,,,,,,0,2.247438529,#a3d0fb,,right_blue.png,o,,,,,,o,right_blue.png,right_orange.png,p,right,5f4c9e74da9c148b0d42ecbd,001,2021-08-09_11h05.51.826,arrow_simon_norep,2021.1.2,Win32,60.0024001,,,,,,,,,,,,,,,,,,,,,p,0,1.6864,41,TRUE,FALSE,10,0,40,1,1,,,,,,,
,,,,,,1,2.453611497,#f3af84,,right_orange.png,p,,,,,,o,right_blue.png,right_orange.png,p,left,5f4c9e74da9c148b0d42ecbd,001,2021-08-09_11h05.51.826,arrow_simon_norep,2021.1.2,Win32,60.0024001,,,,,,,,,,,,,,,,,,,,,w,0,1.5696,42,FALSE,FALSE,10,1,41,0,1,,,,,,,
,,,,,,1,1.700600134,#a3d0fb,,left_blue.png,w,,,,,,w,left_blue.png,left_orange.png,q,right,5f4c9e74da9c148b0d42ecbd,001,2021-08-09_11h05.51.826,arrow_simon_norep,2021.1.2,Win32,60.0024001,,,,,,,,,,,,,,,,,,,,,o,0,1.4446,43,FALSE,FALSE,10,2,42,3,1,,,,,,,
,,,,,,1,1.760756701,#f3af84,,right_orange.png,p,,,,,,o,right_blue.png,right_orange.png,p,left,5f4c9e74da9c148b0d42ecbd,001,2021-08-09_11h05.51.826,arrow_simon_norep,2021.1.2,Win32,60.0024001,,,,,,,,,,,,,,,,,,,,,q,0,1.4237,44,FALSE,FALSE,10,3,43,0,1,,,,,,,
,,,,,,1,1.846846884,#a3d0fb,,right_blue.png,o,,,,,,o,right_blue.png,right_orange.png,p,left,5f4c9e74da9c148b0d42ecbd,001,2021-08-09_11h05.51.826,arrow_simon_norep,2021.1.2,Win32,60.0024001,,,,,,,,,,,,,,,,,,,,,w,0,1.4849,45,FALSE,FALSE,11,0,44,0,1,,,,,,,
,,,,,,1,1.965802482,#f3af84,,right_orange.png,p,,,,,,o,right_blue.png,right_orange.png,p,right,5f4c9e74da9c148b0d42ecbd,001,2021-08-09_11h05.51.826,arrow_simon_norep,2021.1.2,Win32,60.0024001,,,,,,,,,,,,,,,,,,,,,p,1,1.7607,46,TRUE,FALSE,11,1,45,1,1,,,,,,,
,,,,,,1,1.534779967,#a3d0fb,,right_blue.png,o,,,,,,o,right_blue.png,right_orange.png,p,left,5f4c9e74da9c148b0d42ecbd,001,2021-08-09_11h05.51.826,arrow_simon_norep,2021.1.2,Win32,60.0024001,,,,,,,,,,,,,,,,,,,,,o,1,1.2751,47,FALSE,TRUE,11,2,46,0,1,,,,,,,
,,,,,,1,2.11121667,#f3af84,,right_orange.png,p,,,,,,o,right_blue.png,right_orange.png,p,left,5f4c9e74da9c148b0d42ecbd,001,2021-08-09_11h05.51.826,arrow_simon_norep,2021.1.2,Win32,60.0024001,,,,,,,,,,,,,,,,,,,,,w,0,1.6081,48,TRUE,FALSE,11,3,47,0,1,,,,,,,
,,,,,,0,1.846254944,#a3d0fb,,right_blue.png,o,,,,,,o,right_blue.png,right_orange.png,p,left,5f4c9e74da9c148b0d42ecbd,001,2021-08-09_11h05.51.826,arrow_simon_norep,2021.1.2,Win32,60.0024001,,,,,,,,,,,,,,,,,,,,,o,1,1.5233,49,FALSE,FALSE,12,0,48,0,1,,,,,,,
,,,,,,0,1.772386653,#f3af84,,left_orange.png,q,,,,,,w,left_blue.png,left_orange.png,q,left,5f4c9e74da9c148b0d42ecbd,001,2021-08-09_11h05.51.826,arrow_simon_norep,2021.1.2,Win32,60.0024001,,,,,,,,,,,,,,,,,,,,,q,1,1.5395,50,FALSE,FALSE,12,1,49,2,1,,,,,,,
,,,,,,0,2.474795398,#a3d0fb,,left_blue.png,w,,,,,,w,left_blue.png,left_orange.png,q,left,5f4c9e74da9c148b0d42ecbd,001,2021-08-09_11h05.51.826,arrow_simon_norep,2021.1.2,Win32,60.0024001,,,,,,,,,,,,,,,,,,,,,w,1,2.038,51,TRUE,FALSE,12,2,50,2,1,,,,,,,
,,,,,,0,2.318878154,#f3af84,,right_orange.png,p,,,,,,o,right_blue.png,right_orange.png,p,left,5f4c9e74da9c148b0d42ecbd,001,2021-08-09_11h05.51.826,arrow_simon_norep,2021.1.2,Win32,60.0024001,,,,,,,,,,,,,,,,,,,,,q,0,1.97,52,TRUE,FALSE,12,3,51,0,1,,,,,,,
,,,,,,1,1.507951791,#a3d0fb,,left_blue.png,w,,,,,,w,left_blue.png,left_orange.png,q,left,5f4c9e74da9c148b0d42ecbd,001,2021-08-09_11h05.51.826,arrow_simon_norep,2021.1.2,Win32,60.0024001,,,,,,,,,,,,,,,,,,,,,o,0,1.5741,53,FALSE,FALSE,13,0,52,2,1,,,,,,,
,,,,,,1,2.290998585,#f3af84,,left_orange.png,q,,,,,,w,left_blue.png,left_orange.png,q,left,5f4c9e74da9c148b0d42ecbd,001,2021-08-09_11h05.51.826,arrow_simon_norep,2021.1.2,Win32,60.0024001,,,,,,,,,,,,,,,,,,,,,q,1,1.8342,54,TRUE,FALSE,13,1,53,2,1,,,,,,,
,,,,,,1,2.184035346,#a3d0fb,,right_blue.png,o,,,,,,o,right_blue.png,right_orange.png,p,right,5f4c9e74da9c148b0d42ecbd,001,2021-08-09_11h05.51.826,arrow_simon_norep,2021.1.2,Win32,60.0024001,,,,,,,,,,,,,,,,,,,,,o,1,1.7022,55,TRUE,FALSE,13,2,54,1,1,,,,,,,
,,,,,,0,1.717459656,#f3af84,,right_orange.png,p,,,,,,o,right_blue.png,right_orange.png,p,left,5f4c9e74da9c148b0d42ecbd,001,2021-08-09_11h05.51.826,arrow_simon_norep,2021.1.2,Win32,60.0024001,,,,,,,,,,,,,,,,,,,,,p,1,1.5972,56,FALSE,FALSE,13,3,55,0,1,,,,,,,
,,,,,,0,1.868829227,#a3d0fb,,left_blue.png,w,,,,,,w,left_blue.png,left_orange.png,q,left,5f4c9e74da9c148b0d42ecbd,001,2021-08-09_11h05.51.826,arrow_simon_norep,2021.1.2,Win32,60.0024001,,,,,,,,,,,,,,,,,,,,,w,1,1.5274,57,FALSE,FALSE,14,0,56,2,1,,,,,,,
,,,,,,0,2.201165348,#f3af84,,right_orange.png,p,,,,,,o,right_blue.png,right_orange.png,p,right,5f4c9e74da9c148b0d42ecbd,001,2021-08-09_11h05.51.826,arrow_simon_norep,2021.1.2,Win32,60.0024001,,,,,,,,,,,,,,,,,,,,,p,1,1.6611,58,TRUE,FALSE,14,1,57,1,1,,,,,,,
,,,,,,0,2.416261237,#a3d0fb,,right_blue.png,o,,,,,,o,right_blue.png,right_orange.png,p,left,5f4c9e74da9c148b0d42ecbd,001,2021-08-09_11h05.51.826,arrow_simon_norep,2021.1.2,Win32,60.0024001,,,,,,,,,,,,,,,,,,,,,w,0,1.9538,59,TRUE,FALSE,14,2,58,0,1,,,,,,,
,,,,,,0,2.151952966,#f3af84,,right_orange.png,p,,,,,,o,right_blue.png,right_orange.png,p,right,5f4c9e74da9c148b0d42ecbd,001,2021-08-09_11h05.51.826,arrow_simon_norep,2021.1.2,Win32,60.0024001,,,,,,,,,,,,,,,,,,,,,p,1,1.7378,60,TRUE,FALSE,14,3,59,1,1,,,,,,,
,,,,,,,,,,,,,,,,,,,,,,5f4c9e74da9c148b0d42ecbd,001,2021-08-09_11h05.51.826,arrow_simon_norep,2021.1.2,Win32,60.0024001,,,,,,,,,,,,,,,,,,,,,,,,,,,,,,,,space,17.9463,0,0,0,0,1
,,,,,,1,1.603331599,#a3d0fb,,right_blue.png,o,,,,,,o,right_blue.png,right_orange.png,p,right,5f4c9e74da9c148b0d42ecbd,001,2021-08-09_11h05.51.826,arrow_simon_norep,2021.1.2,Win32,60.0024001,,,,,,,,,,,,,,,,,,,,,p,0,1.5174,1,FALSE,FALSE,0,0,0,1,1,,,,,,,
,,,,,,1,1.947605725,#f3af84,,left_orange.png,q,,,,,,w,left_blue.png,left_orange.png,q,left,5f4c9e74da9c148b0d42ecbd,001,2021-08-09_11h05.51.826,arrow_simon_norep,2021.1.2,Win32,60.0024001,,,,,,,,,,,,,,,,,,,,,w,0,1.6607,2,TRUE,FALSE,0,1,1,2,1,,,,,,,
,,,,,,1,2.058643835,#a3d0fb,,left_blue.png,w,,,,,,w,left_blue.png,left_orange.png,q,left,5f4c9e74da9c148b0d42ecbd,001,2021-08-09_11h05.51.826,arrow_simon_norep,2021.1.2,Win32,60.0024001,,,,,,,,,,,,,,,,,,,,,o,0,1.8578,3,TRUE,FALSE,0,2,2,2,1,,,,,,,
,,,,,,1,2.357111882,#f3af84,,left_orange.png,q,,,,,,w,left_blue.png,left_orange.png,q,left,5f4c9e74da9c148b0d42ecbd,001,2021-08-09_11h05.51.826,arrow_simon_norep,2021.1.2,Win32,60.0024001,,,,,,,,,,,,,,,,,,,,,q,1,2.1132,4,TRUE,FALSE,0,3,3,2,1,,,,,,,
,,,,,,0,1.860232227,#a3d0fb,,right_blue.png,o,,,,,,o,right_blue.png,right_orange.png,p,left,5f4c9e74da9c148b0d42ecbd,001,2021-08-09_11h05.51.826,arrow_simon_norep,2021.1.2,Win32,60.0024001,,,,,,,,,,,,,,,,,,,,,o,1,1.5546,5,FALSE,FALSE,1,0,4,0,1,,,,,,,
,,,,,,0,2.336777251,#f3af84,,left_orange.png,q,,,,,,w,left_blue.png,left_orange.png,q,right,5f4c9e74da9c148b0d42ecbd,001,2021-08-09_11h05.51.826,arrow_simon_norep,2021.1.2,Win32,60.0024001,,,,,,,,,,,,,,,,,,,,,p,0,1.9641,6,TRUE,FALSE,1,1,5,3,1,,,,,,,
,,,,,,0,1.984508452,#a3d0fb,,right_blue.png,o,,,,,,o,right_blue.png,right_orange.png,p,right,5f4c9e74da9c148b0d42ecbd,001,2021-08-09_11h05.51.826,arrow_simon_norep,2021.1.2,Win32,60.0024001,,,,,,,,,,,,,,,,,,,,,o,1,1.6123,7,TRUE,FALSE,1,2,6,1,1,,,,,,,
,,,,,,0,2.217757657,#f3af84,,left_orange.png,q,,,,,,w,left_blue.png,left_orange.png,q,right,5f4c9e74da9c148b0d42ecbd,001,2021-08-09_11h05.51.826,arrow_simon_norep,2021.1.2,Win32,60.0024001,,,,,,,,,,,,,,,,,,,,,q,1,1.8853,8,TRUE,FALSE,1,3,7,3,1,,,,,,,
,,,,,,0,1.626760527,#a3d0fb,,right_blue.png,o,,,,,,o,right_blue.png,right_orange.png,p,left,5f4c9e74da9c148b0d42ecbd,001,2021-08-09_11h05.51.826,arrow_simon_norep,2021.1.2,Win32,60.0024001,,,,,,,,,,,,,,,,,,,,,o,1,1.565,9,FALSE,FALSE,2,0,8,0,1,,,,,,,
,,,,,,0,1.834701795,#f3af84,,right_orange.png,p,,,,,,o,right_blue.png,right_orange.png,p,left,5f4c9e74da9c148b0d42ecbd,001,2021-08-09_11h05.51.826,arrow_simon_norep,2021.1.2,Win32,60.0024001,,,,,,,,,,,,,,,,,,,,,p,1,1.5448,10,FALSE,FALSE,2,1,9,0,1,,,,,,,
,,,,,,0,1.651414919,#a3d0fb,,left_blue.png,w,,,,,,w,left_blue.png,left_orange.png,q,right,5f4c9e74da9c148b0d42ecbd,001,2021-08-09_11h05.51.826,arrow_simon_norep,2021.1.2,Win32,60.0024001,,,,,,,,,,,,,,,,,,,,,w,1,1.4923,11,FALSE,FALSE,2,2,10,3,1,,,,,,,
,,,,,,0,2.177592887,#f3af84,,left_orange.png,q,,,,,,w,left_blue.png,left_orange.png,q,left,5f4c9e74da9c148b0d42ecbd,001,2021-08-09_11h05.51.826,arrow_simon_norep,2021.1.2,Win32,60.0024001,,,,,,,,,,,,,,,,,,,,,q,1,1.7864,12,TRUE,FALSE,2,3,11,2,1,,,,,,,
,,,,,,0,1.892509336,#a3d0fb,,right_blue.png,o,,,,,,o,right_blue.png,right_orange.png,p,right,5f4c9e74da9c148b0d42ecbd,001,2021-08-09_11h05.51.826,arrow_simon_norep,2021.1.2,Win32,60.0024001,,,,,,,,,,,,,,,,,,,,,o,1,1.3599,13,FALSE,TRUE,3,0,12,1,1,,,,,,,
,,,,,,0,1.570142139,#f3af84,,left_orange.png,q,,,,,,w,left_blue.png,left_orange.png,q,left,5f4c9e74da9c148b0d42ecbd,001,2021-08-09_11h05.51.826,arrow_simon_norep,2021.1.2,Win32,60.0024001,,,,,,,,,,,,,,,,,,,,,q,1,1.5673,14,FALSE,FALSE,3,1,13,2,1,,,,,,,
,,,,,,0,2.186717302,#a3d0fb,,left_blue.png,w,,,,,,w,left_blue.png,left_orange.png,q,left,5f4c9e74da9c148b0d42ecbd,001,2021-08-09_11h05.51.826,arrow_simon_norep,2021.1.2,Win32,60.0024001,,,,,,,,,,,,,,,,,,,,,w,1,1.7873,15,TRUE,FALSE,3,2,14,2,1,,,,,,,
,,,,,,0,1.83585206,#f3af84,,right_orange.png,p,,,,,,o,right_blue.png,right_orange.png,p,left,5f4c9e74da9c148b0d42ecbd,001,2021-08-09_11h05.51.826,arrow_simon_norep,2021.1.2,Win32,60.0024001,,,,,,,,,,,,,,,,,,,,,p,1,2.0099,16,TRUE,FALSE,3,3,15,0,1,,,,,,,
,,,,,,0,1.86231266,#a3d0fb,,left_blue.png,w,,,,,,w,left_blue.png,left_orange.png,q,left,5f4c9e74da9c148b0d42ecbd,001,2021-08-09_11h05.51.826,arrow_simon_norep,2021.1.2,Win32,60.0024001,,,,,,,,,,,,,,,,,,,,,w,1,1.5755,17,FALSE,FALSE,4,0,16,2,1,,,,,,,
,,,,,,0,1.952485972,#f3af84,,left_orange.png,q,,,,,,w,left_blue.png,left_orange.png,q,right,5f4c9e74da9c148b0d42ecbd,001,2021-08-09_11h05.51.826,arrow_simon_norep,2021.1.2,Win32,60.0024001,,,,,,,,,,,,,,,,,,,,,q,1,1.6712,18,TRUE,FALSE,4,1,17,3,1,,,,,,,
,,,,,,0,2.017862774,#a3d0fb,,right_blue.png,o,,,,,,o,right_blue.png,right_orange.png,p,right,5f4c9e74da9c148b0d42ecbd,001,2021-08-09_11h05.51.826,arrow_simon_norep,2021.1.2,Win32,60.0024001,,,,,,,,,,,,,,,,,,,,,o,1,1.5674,19,FALSE,FALSE,4,2,18,1,1,,,,,,,
,,,,,,0,1.65713275,#f3af84,,right_orange.png,p,,,,,,o,right_blue.png,right_orange.png,p,left,5f4c9e74da9c148b0d42ecbd,001,2021-08-09_11h05.51.826,arrow_simon_norep,2021.1.2,Win32,60.0024001,,,,,,,,,,,,,,,,,,,,,p,1,1.6374,20,TRUE,FALSE,4,3,19,0,1,,,,,,,
,,,,,,0,1.729343482,#a3d0fb,,right_blue.png,o,,,,,,o,right_blue.png,right_orange.png,p,left,5f4c9e74da9c148b0d42ecbd,001,2021-08-09_11h05.51.826,arrow_simon_norep,2021.1.2,Win32,60.0024001,,,,,,,,,,,,,,,,,,,,,o,1,1.4677,21,FALSE,FALSE,5,0,20,0,1,,,,,,,
,,,,,,0,2.394971219,#f3af84,,right_orange.png,p,,,,,,o,right_blue.png,right_orange.png,p,left,5f4c9e74da9c148b0d42ecbd,001,2021-08-09_11h05.51.826,arrow_simon_norep,2021.1.2,Win32,60.0024001,,,,,,,,,,,,,,,,,,,,,p,1,1.8173,22,TRUE,FALSE,5,1,21,0,1,,,,,,,
,,,,,,0,2.476577242,#a3d0fb,,left_blue.png,w,,,,,,w,left_blue.png,left_orange.png,q,left,5f4c9e74da9c148b0d42ecbd,001,2021-08-09_11h05.51.826,arrow_simon_norep,2021.1.2,Win32,60.0024001,,,,,,,,,,,,,,,,,,,,,w,1,1.934,23,TRUE,FALSE,5,2,22,2,1,,,,,,,
,,,,,,0,2.151804684,#f3af84,,left_orange.png,q,,,,,,w,left_blue.png,left_orange.png,q,right,5f4c9e74da9c148b0d42ecbd,001,2021-08-09_11h05.51.826,arrow_simon_norep,2021.1.2,Win32,60.0024001,,,,,,,,,,,,,,,,,,,,,q,1,2.0999,24,TRUE,FALSE,5,3,23,3,1,,,,,,,
,,,,,,0,2.230451222,#a3d0fb,,left_blue.png,w,,,,,,w,left_blue.png,left_orange.png,q,left,5f4c9e74da9c148b0d42ecbd,001,2021-08-09_11h05.51.826,arrow_simon_norep,2021.1.2,Win32,60.0024001,,,,,,,,,,,,,,,,,,,,,w,1,1.7673,25,TRUE,FALSE,6,0,24,2,1,,,,,,,
,,,,,,0,1.721571167,#f3af84,,right_orange.png,p,,,,,,o,right_blue.png,right_orange.png,p,left,5f4c9e74da9c148b0d42ecbd,001,2021-08-09_11h05.51.826,arrow_simon_norep,2021.1.2,Win32,60.0024001,,,,,,,,,,,,,,,,,,,,,p,1,1.5336,26,FALSE,FALSE,6,1,25,0,1,,,,,,,
,,,,,,0,2.205156541,#a3d0fb,,left_blue.png,w,,,,,,w,left_blue.png,left_orange.png,q,right,5f4c9e74da9c148b0d42ecbd,001,2021-08-09_11h05.51.826,arrow_simon_norep,2021.1.2,Win32,60.0024001,,,,,,,,,,,,,,,,,,,,,o,0,1.6338,27,TRUE,FALSE,6,2,26,3,1,,,,,,,
,,,,,,0,2.463181034,#f3af84,,left_orange.png,q,,,,,,w,left_blue.png,left_orange.png,q,right,5f4c9e74da9c148b0d42ecbd,001,2021-08-09_11h05.51.826,arrow_simon_norep,2021.1.2,Win32,60.0024001,,,,,,,,,,,,,,,,,,,,,o,0,1.92,28,TRUE,FALSE,6,3,27,3,1,,,,,,,
,,,,,,0,1.524722505,#a3d0fb,,right_blue.png,o,,,,,,o,right_blue.png,right_orange.png,p,right,5f4c9e74da9c148b0d42ecbd,001,2021-08-09_11h05.51.826,arrow_simon_norep,2021.1.2,Win32,60.0024001,,,,,,,,,,,,,,,,,,,,,o,1,1.5049,29,FALSE,FALSE,7,0,28,1,1,,,,,,,
,,,,,,0,1.626082827,#f3af84,,right_orange.png,p,,,,,,o,right_blue.png,right_orange.png,p,right,5f4c9e74da9c148b0d42ecbd,001,2021-08-09_11h05.51.826,arrow_simon_norep,2021.1.2,Win32,60.0024001,,,,,,,,,,,,,,,,,,,,,p,1,1.5195,30,FALSE,FALSE,7,1,29,1,1,,,,,,,
,,,,,,1,1.688278219,#a3d0fb,,right_blue.png,o,,,,,,o,right_blue.png,right_orange.png,p,left,5f4c9e74da9c148b0d42ecbd,001,2021-08-09_11h05.51.826,arrow_simon_norep,2021.1.2,Win32,60.0024001,,,,,,,,,,,,,,,,,,,,,w,0,1.5562,31,FALSE,FALSE,7,2,30,0,1,,,,,,,
,,,,,,0,1.847334318,#f3af84,,right_orange.png,p,,,,,,o,right_blue.png,right_orange.png,p,left,5f4c9e74da9c148b0d42ecbd,001,2021-08-09_11h05.51.826,arrow_simon_norep,2021.1.2,Win32,60.0024001,,,,,,,,,,,,,,,,,,,,,p,1,1.5744,32,FALSE,FALSE,7,3,31,0,1,,,,,,,
,,,,,,0,1.980532748,#a3d0fb,,right_blue.png,o,,,,,,o,right_blue.png,right_orange.png,p,right,5f4c9e74da9c148b0d42ecbd,001,2021-08-09_11h05.51.826,arrow_simon_norep,2021.1.2,Win32,60.0024001,,,,,,,,,,,,,,,,,,,,,o,1,1.5614,33,FALSE,FALSE,8,0,32,1,1,,,,,,,
,,,,,,0,2.377885456,#f3af84,,left_orange.png,q,,,,,,w,left_blue.png,left_orange.png,q,right,5f4c9e74da9c148b0d42ecbd,001,2021-08-09_11h05.51.826,arrow_simon_norep,2021.1.2,Win32,60.0024001,,,,,,,,,,,,,,,,,,,,,p,0,2.1624,34,TRUE,FALSE,8,1,33,3,1,,,,,,,
,,,,,,0,2.332223931,#a3d0fb,,left_blue.png,w,,,,,,w,left_blue.png,left_orange.png,q,left,5f4c9e74da9c148b0d42ecbd,001,2021-08-09_11h05.51.826,arrow_simon_norep,2021.1.2,Win32,60.0024001,,,,,,,,,,,,,,,,,,,,,w,1,1.6949,35,TRUE,FALSE,8,2,34,2,1,,,,,,,
,,,,,,0,2.464937855,#f3af84,,left_orange.png,q,,,,,,w,left_blue.png,left_orange.png,q,right,5f4c9e74da9c148b0d42ecbd,001,2021-08-09_11h05.51.826,arrow_simon_norep,2021.1.2,Win32,60.0024001,,,,,,,,,,,,,,,,,,,,,q,1,1.9516,36,TRUE,FALSE,8,3,35,3,1,,,,,,,
,,,,,,0,1.872105869,#a3d0fb,,left_blue.png,w,,,,,,w,left_blue.png,left_orange.png,q,left,5f4c9e74da9c148b0d42ecbd,001,2021-08-09_11h05.51.826,arrow_simon_norep,2021.1.2,Win32,60.0024001,,,,,,,,,,,,,,,,,,,,,w,1,1.5406,37,FALSE,FALSE,9,0,36,2,1,,,,,,,
,,,,,,0,1.523136159,#f3af84,,left_orange.png,q,,,,,,w,left_blue.png,left_orange.png,q,right,5f4c9e74da9c148b0d42ecbd,001,2021-08-09_11h05.51.826,arrow_simon_norep,2021.1.2,Win32,60.0024001,,,,,,,,,,,,,,,,,,,,,q,1,1.4884,38,FALSE,FALSE,9,1,37,3,1,,,,,,,
,,,,,,0,1.927057561,#a3d0fb,,left_blue.png,w,,,,,,w,left_blue.png,left_orange.png,q,left,5f4c9e74da9c148b0d42ecbd,001,2021-08-09_11h05.51.826,arrow_simon_norep,2021.1.2,Win32,60.0024001,,,,,,,,,,,,,,,,,,,,,w,1,1.551,39,FALSE,FALSE,9,2,38,2,1,,,,,,,
,,,,,,0,2.106880845,#f3af84,,right_orange.png,p,,,,,,o,right_blue.png,right_orange.png,p,right,5f4c9e74da9c148b0d42ecbd,001,2021-08-09_11h05.51.826,arrow_simon_norep,2021.1.2,Win32,60.0024001,,,,,,,,,,,,,,,,,,,,,p,1,1.5505,40,FALSE,FALSE,9,3,39,1,1,,,,,,,
,,,,,,0,1.920715043,#a3d0fb,,left_blue.png,w,,,,,,w,left_blue.png,left_orange.png,q,left,5f4c9e74da9c148b0d42ecbd,001,2021-08-09_11h05.51.826,arrow_simon_norep,2021.1.2,Win32,60.0024001,,,,,,,,,,,,,,,,,,,,,w,1,1.3842,41,FALSE,TRUE,10,0,40,2,1,,,,,,,
,,,,,,0,2.107860128,#f3af84,,left_orange.png,q,,,,,,w,left_blue.png,left_orange.png,q,left,5f4c9e74da9c148b0d42ecbd,001,2021-08-09_11h05.51.826,arrow_simon_norep,2021.1.2,Win32,60.0024001,,,,,,,,,,,,,,,,,,,,,q,1,1.5752,42,FALSE,FALSE,10,1,41,2,1,,,,,,,
,,,,,,0,1.752645427,#a3d0fb,,right_blue.png,o,,,,,,o,right_blue.png,right_orange.png,p,left,5f4c9e74da9c148b0d42ecbd,001,2021-08-09_11h05.51.826,arrow_simon_norep,2021.1.2,Win32,60.0024001,,,,,,,,,,,,,,,,,,,,,o,1,1.2896,43,FALSE,TRUE,10,2,42,0,1,,,,,,,
,,,,,,0,2.290279938,#f3af84,,right_orange.png,p,,,,,,o,right_blue.png,right_orange.png,p,right,5f4c9e74da9c148b0d42ecbd,001,2021-08-09_11h05.51.826,arrow_simon_norep,2021.1.2,Win32,60.0024001,,,,,,,,,,,,,,,,,,,,,p,1,1.609,44,TRUE,FALSE,10,3,43,1,1,,,,,,,
,,,,,,0,2.496117774,#a3d0fb,,right_blue.png,o,,,,,,o,right_blue.png,right_orange.png,p,left,5f4c9e74da9c148b0d42ecbd,001,2021-08-09_11h05.51.826,arrow_simon_norep,2021.1.2,Win32,60.0024001,,,,,,,,,,,,,,,,,,,,,w,0,1.7503,45,TRUE,FALSE,11,0,44,0,1,,,,,,,
,,,,,,0,2.183218972,#f3af84,,right_orange.png,p,,,,,,o,right_blue.png,right_orange.png,p,right,5f4c9e74da9c148b0d42ecbd,001,2021-08-09_11h05.51.826,arrow_simon_norep,2021.1.2,Win32,60.0024001,,,,,,,,,,,,,,,,,,,,,p,1,1.6029,46,TRUE,FALSE,11,1,45,1,1,,,,,,,
,,,,,,0,2.436622305,#a3d0fb,,right_blue.png,o,,,,,,o,right_blue.png,right_orange.png,p,right,5f4c9e74da9c148b0d42ecbd,001,2021-08-09_11h05.51.826,arrow_simon_norep,2021.1.2,Win32,60.0024001,,,,,,,,,,,,,,,,,,,,,o,1,1.804,47,TRUE,FALSE,11,2,46,1,1,,,,,,,
,,,,,,0,2.227652041,#f3af84,,left_orange.png,q,,,,,,w,left_blue.png,left_orange.png,q,right,5f4c9e74da9c148b0d42ecbd,001,2021-08-09_11h05.51.826,arrow_simon_norep,2021.1.2,Win32,60.0024001,,,,,,,,,,,,,,,,,,,,,o,0,1.6803,48,TRUE,FALSE,11,3,47,3,1,,,,,,,
,,,,,,0,1.763444972,#a3d0fb,,left_blue.png,w,,,,,,w,left_blue.png,left_orange.png,q,right,5f4c9e74da9c148b0d42ecbd,001,2021-08-09_11h05.51.826,arrow_simon_norep,2021.1.2,Win32,60.0024001,,,,,,,,,,,,,,,,,,,,,w,1,1.7437,49,TRUE,FALSE,12,0,48,3,1,,,,,,,
,,,,,,0,1.951246276,#f3af84,,left_orange.png,q,,,,,,w,left_blue.png,left_orange.png,q,left,5f4c9e74da9c148b0d42ecbd,001,2021-08-09_11h05.51.826,arrow_simon_norep,2021.1.2,Win32,60.0024001,,,,,,,,,,,,,,,,,,,,,q,1,1.6013,50,TRUE,FALSE,12,1,49,2,1,,,,,,,
,,,,,,0,2.438498684,#a3d0fb,,left_blue.png,w,,,,,,w,left_blue.png,left_orange.png,q,right,5f4c9e74da9c148b0d42ecbd,001,2021-08-09_11h05.51.826,arrow_simon_norep,2021.1.2,Win32,60.0024001,,,,,,,,,,,,,,,,,,,,,o,0,1.6031,51,TRUE,FALSE,12,2,50,3,1,,,,,,,
,,,,,,0,2.105619168,#f3af84,,right_orange.png,p,,,,,,o,right_blue.png,right_orange.png,p,right,5f4c9e74da9c148b0d42ecbd,001,2021-08-09_11h05.51.826,arrow_simon_norep,2021.1.2,Win32,60.0024001,,,,,,,,,,,,,,,,,,,,,p,1,1.4715,52,FALSE,FALSE,12,3,51,1,1,,,,,,,
,,,,,,0,1.810078855,#a3d0fb,,left_blue.png,w,,,,,,w,left_blue.png,left_orange.png,q,right,5f4c9e74da9c148b0d42ecbd,001,2021-08-09_11h05.51.826,arrow_simon_norep,2021.1.2,Win32,60.0024001,,,,,,,,,,,,,,,,,,,,,w,1,1.4998,53,FALSE,FALSE,13,0,52,3,1,,,,,,,
,,,,,,0,2.118730224,#f3af84,,right_orange.png,p,,,,,,o,right_blue.png,right_orange.png,p,left,5f4c9e74da9c148b0d42ecbd,001,2021-08-09_11h05.51.826,arrow_simon_norep,2021.1.2,Win32,60.0024001,,,,,,,,,,,,,,,,,,,,,p,1,1.6548,54,TRUE,FALSE,13,1,53,0,1,,,,,,,
,,,,,,0,1.525802647,#a3d0fb,,right_blue.png,o,,,,,,o,right_blue.png,right_orange.png,p,left,5f4c9e74da9c148b0d42ecbd,001,2021-08-09_11h05.51.826,arrow_simon_norep,2021.1.2,Win32,60.0024001,,,,,,,,,,,,,,,,,,,,,o,1,1.3568,55,FALSE,TRUE,13,2,54,0,1,,,,,,,
,,,,,,0,1.676086845,#f3af84,,right_orange.png,p,,,,,,o,right_blue.png,right_orange.png,p,right,5f4c9e74da9c148b0d42ecbd,001,2021-08-09_11h05.51.826,arrow_simon_norep,2021.1.2,Win32,60.0024001,,,,,,,,,,,,,,,,,,,,,p,1,1.5061,56,FALSE,FALSE,13,3,55,1,1,,,,,,,
,,,,,,0,1.512939064,#a3d0fb,,right_blue.png,o,,,,,,o,right_blue.png,right_orange.png,p,right,5f4c9e74da9c148b0d42ecbd,001,2021-08-09_11h05.51.826,arrow_simon_norep,2021.1.2,Win32,60.0024001,,,,,,,,,,,,,,,,,,,,,o,1,1.4837,57,FALSE,FALSE,14,0,56,1,1,,,,,,,
,,,,,,0,2.148382962,#f3af84,,right_orange.png,p,,,,,,o,right_blue.png,right_orange.png,p,right,5f4c9e74da9c148b0d42ecbd,001,2021-08-09_11h05.51.826,arrow_simon_norep,2021.1.2,Win32,60.0024001,,,,,,,,,,,,,,,,,,,,,p,1,1.5833,58,FALSE,FALSE,14,1,57,1,1,,,,,,,
,,,,,,0,2.178506665,#a3d0fb,,left_blue.png,w,,,,,,w,left_blue.png,left_orange.png,q,right,5f4c9e74da9c148b0d42ecbd,001,2021-08-09_11h05.51.826,arrow_simon_norep,2021.1.2,Win32,60.0024001,,,,,,,,,,,,,,,,,,,,,w,1,1.6059,59,TRUE,FALSE,14,2,58,3,1,,,,,,,
,,,,,,0,2.078587931,#f3af84,,right_orange.png,p,,,,,,o,right_blue.png,right_orange.png,p,left,5f4c9e74da9c148b0d42ecbd,001,2021-08-09_11h05.51.826,arrow_simon_norep,2021.1.2,Win32,60.0024001,,,,,,,,,,,,,,,,,,,,,w,0,1.7934,60,TRUE,FALSE,14,3,59,0,1,,,,,,,
,,,,,,,,,,,,,,,,,,,,,,5f4c9e74da9c148b0d42ecbd,001,2021-08-09_11h05.51.826,arrow_simon_norep,2021.1.2,Win32,60.0024001,,,,,,,,,,,,,,,,,,,,,,,,,,,,,,,,space,17.2642,1,0,1,0,1
,,,,,,1,1.946332818,#a3d0fb,,left_blue.png,w,,,,,,w,left_blue.png,left_orange.png,q,right,5f4c9e74da9c148b0d42ecbd,001,2021-08-09_11h05.51.826,arrow_simon_norep,2021.1.2,Win32,60.0024001,,,,,,,,,,,,,,,,,,,,,o,0,1.5605,1,FALSE,FALSE,0,0,0,3,1,,,,,,,
,,,,,,1,2.317571935,#f3af84,,right_orange.png,p,,,,,,o,right_blue.png,right_orange.png,p,right,5f4c9e74da9c148b0d42ecbd,001,2021-08-09_11h05.51.826,arrow_simon_norep,2021.1.2,Win32,60.0024001,,,,,,,,,,,,,,,,,,,,,p,1,1.8435,2,TRUE,FALSE,0,1,1,1,1,,,,,,,
,,,,,,1,1.968275948,#a3d0fb,,left_blue.png,w,,,,,,w,left_blue.png,left_orange.png,q,right,5f4c9e74da9c148b0d42ecbd,001,2021-08-09_11h05.51.826,arrow_simon_norep,2021.1.2,Win32,60.0024001,,,,,,,,,,,,,,,,,,,,,w,1,1.6183,3,TRUE,FALSE,0,2,2,3,1,,,,,,,
,,,,,,0,1.643312812,#f3af84,,right_orange.png,p,,,,,,o,right_blue.png,right_orange.png,p,right,5f4c9e74da9c148b0d42ecbd,001,2021-08-09_11h05.51.826,arrow_simon_norep,2021.1.2,Win32,60.0024001,,,,,,,,,,,,,,,,,,,,,p,1,1.4854,4,FALSE,FALSE,0,3,3,1,1,,,,,,,
,,,,,,0,1.976673552,#a3d0fb,,left_blue.png,w,,,,,,w,left_blue.png,left_orange.png,q,right,5f4c9e74da9c148b0d42ecbd,001,2021-08-09_11h05.51.826,arrow_simon_norep,2021.1.2,Win32,60.0024001,,,,,,,,,,,,,,,,,,,,,w,1,1.9915,5,TRUE,FALSE,1,0,4,3,1,,,,,,,
,,,,,,0,1.662636248,#f3af84,,right_orange.png,p,,,,,,o,right_blue.png,right_orange.png,p,right,5f4c9e74da9c148b0d42ecbd,001,2021-08-09_11h05.51.826,arrow_simon_norep,2021.1.2,Win32,60.0024001,,,,,,,,,,,,,,,,,,,,,p,1,1.5181,6,FALSE,FALSE,1,1,5,1,1,,,,,,,
,,,,,,1,2.369056036,#a3d0fb,,right_blue.png,o,,,,,,o,right_blue.png,right_orange.png,p,right,5f4c9e74da9c148b0d42ecbd,001,2021-08-09_11h05.51.826,arrow_simon_norep,2021.1.2,Win32,60.0024001,,,,,,,,,,,,,,,,,,,,,w,0,1.5674,7,FALSE,FALSE,1,2,6,1,1,,,,,,,
,,,,,,1,2.121040787,#f3af84,,right_orange.png,p,,,,,,o,right_blue.png,right_orange.png,p,left,5f4c9e74da9c148b0d42ecbd,001,2021-08-09_11h05.51.826,arrow_simon_norep,2021.1.2,Win32,60.0024001,,,,,,,,,,,,,,,,,,,,,p,1,1.617,8,TRUE,FALSE,1,3,7,0,1,,,,,,,
,,,,,,1,2.075407041,#a3d0fb,,left_blue.png,w,,,,,,w,left_blue.png,left_orange.png,q,left,5f4c9e74da9c148b0d42ecbd,001,2021-08-09_11h05.51.826,arrow_simon_norep,2021.1.2,Win32,60.0024001,,,,,,,,,,,,,,,,,,,,,w,1,1.6328,9,TRUE,FALSE,2,0,8,2,1,,,,,,,
,,,,,,0,2.010982277,#f3af84,,right_orange.png,p,,,,,,o,right_blue.png,right_orange.png,p,right,5f4c9e74da9c148b0d42ecbd,001,2021-08-09_11h05.51.826,arrow_simon_norep,2021.1.2,Win32,60.0024001,,,,,,,,,,,,,,,,,,,,,p,1,1.5833,10,FALSE,FALSE,2,1,9,1,1,,,,,,,
,,,,,,0,2.432291292,#a3d0fb,,left_blue.png,w,,,,,,w,left_blue.png,left_orange.png,q,left,5f4c9e74da9c148b0d42ecbd,001,2021-08-09_11h05.51.826,arrow_simon_norep,2021.1.2,Win32,60.0024001,,,,,,,,,,,,,,,,,,,,,w,1,1.7686,11,TRUE,FALSE,2,2,10,2,1,,,,,,,
,,,,,,0,1.740123565,#f3af84,,left_orange.png,q,,,,,,w,left_blue.png,left_orange.png,q,left,5f4c9e74da9c148b0d42ecbd,001,2021-08-09_11h05.51.826,arrow_simon_norep,2021.1.2,Win32,60.0024001,,,,,,,,,,,,,,,,,,,,,q,1,1.599,12,FALSE,FALSE,2,3,11,2,1,,,,,,,
,,,,,,0,1.817590257,#a3d0fb,,left_blue.png,w,,,,,,w,left_blue.png,left_orange.png,q,left,5f4c9e74da9c148b0d42ecbd,001,2021-08-09_11h05.51.826,arrow_simon_norep,2021.1.2,Win32,60.0024001,,,,,,,,,,,,,,,,,,,,,w,1,1.5506,13,FALSE,FALSE,3,0,12,2,1,,,,,,,
,,,,,,0,2.151880624,#f3af84,,right_orange.png,p,,,,,,o,right_blue.png,right_orange.png,p,left,5f4c9e74da9c148b0d42ecbd,001,2021-08-09_11h05.51.826,arrow_simon_norep,2021.1.2,Win32,60.0024001,,,,,,,,,,,,,,,,,,,,,o,0,1.6162,14,TRUE,FALSE,3,1,13,0,1,,,,,,,
,,,,,,0,1.603993372,#a3d0fb,,left_blue.png,w,,,,,,w,left_blue.png,left_orange.png,q,left,5f4c9e74da9c148b0d42ecbd,001,2021-08-09_11h05.51.826,arrow_simon_norep,2021.1.2,Win32,60.0024001,,,,,,,,,,,,,,,,,,,,,w,1,1.5517,15,FALSE,FALSE,3,2,14,2,1,,,,,,,
,,,,,,0,2.090792027,#f3af84,,left_orange.png,q,,,,,,w,left_blue.png,left_orange.png,q,right,5f4c9e74da9c148b0d42ecbd,001,2021-08-09_11h05.51.826,arrow_simon_norep,2021.1.2,Win32,60.0024001,,,,,,,,,,,,,,,,,,,,,q,1,1.5855,16,FALSE,FALSE,3,3,15,3,1,,,,,,,
,,,,,,0,2.002974765,#a3d0fb,,left_blue.png,w,,,,,,w,left_blue.png,left_orange.png,q,left,5f4c9e74da9c148b0d42ecbd,001,2021-08-09_11h05.51.826,arrow_simon_norep,2021.1.2,Win32,60.0024001,,,,,,,,,,,,,,,,,,,,,w,1,1.5693,17,FALSE,FALSE,4,0,16,2,1,,,,,,,
,,,,,,0,1.714972201,#f3af84,,left_orange.png,q,,,,,,w,left_blue.png,left_orange.png,q,left,5f4c9e74da9c148b0d42ecbd,001,2021-08-09_11h05.51.826,arrow_simon_norep,2021.1.2,Win32,60.0024001,,,,,,,,,,,,,,,,,,,,,q,1,1.5342,18,FALSE,FALSE,4,1,17,2,1,,,,,,,
,,,,,,0,1.695228844,#a3d0fb,,left_blue.png,w,,,,,,w,left_blue.png,left_orange.png,q,right,5f4c9e74da9c148b0d42ecbd,001,2021-08-09_11h05.51.826,arrow_simon_norep,2021.1.2,Win32,60.0024001,,,,,,,,,,,,,,,,,,,,,w,1,1.5001,19,FALSE,FALSE,4,2,18,3,1,,,,,,,
,,,,,,0,1.599059861,#f3af84,,right_orange.png,p,,,,,,o,right_blue.png,right_orange.png,p,left,5f4c9e74da9c148b0d42ecbd,001,2021-08-09_11h05.51.826,arrow_simon_norep,2021.1.2,Win32,60.0024001,,,,,,,,,,,,,,,,,,,,,p,1,1.5046,20,FALSE,FALSE,4,3,19,0,1,,,,,,,
,,,,,,1,2.363919107,#a3d0fb,,left_blue.png,w,,,,,,w,left_blue.png,left_orange.png,q,right,5f4c9e74da9c148b0d42ecbd,001,2021-08-09_11h05.51.826,arrow_simon_norep,2021.1.2,Win32,60.0024001,,,,,,,,,,,,,,,,,,,,,o,0,1.5827,21,FALSE,FALSE,5,0,20,3,1,,,,,,,
,,,,,,0,1.638261421,#f3af84,,left_orange.png,q,,,,,,w,left_blue.png,left_orange.png,q,right,5f4c9e74da9c148b0d42ecbd,001,2021-08-09_11h05.51.826,arrow_simon_norep,2021.1.2,Win32,60.0024001,,,,,,,,,,,,,,,,,,,,,q,1,1.518,22,FALSE,FALSE,5,1,21,3,1,,,,,,,
,,,,,,0,1.925530476,#a3d0fb,,left_blue.png,w,,,,,,w,left_blue.png,left_orange.png,q,right,5f4c9e74da9c148b0d42ecbd,001,2021-08-09_11h05.51.826,arrow_simon_norep,2021.1.2,Win32,60.0024001,,,,,,,,,,,,,,,,,,,,,w,1,1.5829,23,FALSE,FALSE,5,2,22,3,1,,,,,,,
,,,,,,0,2.112461437,#f3af84,,left_orange.png,q,,,,,,w,left_blue.png,left_orange.png,q,right,5f4c9e74da9c148b0d42ecbd,001,2021-08-09_11h05.51.826,arrow_simon_norep,2021.1.2,Win32,60.0024001,,,,,,,,,,,,,,,,,,,,,w,0,1.7362,24,TRUE,FALSE,5,3,23,3,1,,,,,,,
,,,,,,0,2.159943123,#a3d0fb,,right_blue.png,o,,,,,,o,right_blue.png,right_orange.png,p,right,5f4c9e74da9c148b0d42ecbd,001,2021-08-09_11h05.51.826,arrow_simon_norep,2021.1.2,Win32,60.0024001,,,,,,,,,,,,,,,,,,,,,o,1,1.7273,25,TRUE,FALSE,6,0,24,1,1,,,,,,,
,,,,,,0,2.052341416,#f3af84,,right_orange.png,p,,,,,,o,right_blue.png,right_orange.png,p,left,5f4c9e74da9c148b0d42ecbd,001,2021-08-09_11h05.51.826,arrow_simon_norep,2021.1.2,Win32,60.0024001,,,,,,,,,,,,,,,,,,,,,p,1,1.5407,26,FALSE,FALSE,6,1,25,0,1,,,,,,,
,,,,,,1,1.608712186,#a3d0fb,,right_blue.png,o,,,,,,o,right_blue.png,right_orange.png,p,left,5f4c9e74da9c148b0d42ecbd,001,2021-08-09_11h05.51.826,arrow_simon_norep,2021.1.2,Win32,60.0024001,,,,,,,,,,,,,,,,,,,,,p,0,1.5774,27,FALSE,FALSE,6,2,26,0,1,,,,,,,
,,,,,,1,2.42690846,#f3af84,,right_orange.png,p,,,,,,o,right_blue.png,right_orange.png,p,right,5f4c9e74da9c148b0d42ecbd,001,2021-08-09_11h05.51.826,arrow_simon_norep,2021.1.2,Win32,60.0024001,,,,,,,,,,,,,,,,,,,,,p,1,1.879,28,TRUE,FALSE,6,3,27,1,1,,,,,,,
,,,,,,1,1.512269955,#a3d0fb,,right_blue.png,o,,,,,,o,right_blue.png,right_orange.png,p,left,5f4c9e74da9c148b0d42ecbd,001,2021-08-09_11h05.51.826,arrow_simon_norep,2021.1.2,Win32,60.0024001,,,,,,,,,,,,,,,,,,,,,w,0,1.5008,29,FALSE,FALSE,7,0,28,0,1,,,,,,,
,,,,,,0,1.749742528,#f3af84,,right_orange.png,p,,,,,,o,right_blue.png,right_orange.png,p,left,5f4c9e74da9c148b0d42ecbd,001,2021-08-09_11h05.51.826,arrow_simon_norep,2021.1.2,Win32,60.0024001,,,,,,,,,,,,,,,,,,,,,p,1,1.5321,30,FALSE,FALSE,7,1,29,0,1,,,,,,,
,,,,,,0,2.052098769,#a3d0fb,,right_blue.png,o,,,,,,o,right_blue.png,right_orange.png,p,right,5f4c9e74da9c148b0d42ecbd,001,2021-08-09_11h05.51.826,arrow_simon_norep,2021.1.2,Win32,60.0024001,,,,,,,,,,,,,,,,,,,,,o,1,1.5747,31,FALSE,FALSE,7,2,30,1,1,,,,,,,
,,,,,,0,1.772096054,#f3af84,,left_orange.png,q,,,,,,w,left_blue.png,left_orange.png,q,right,5f4c9e74da9c148b0d42ecbd,001,2021-08-09_11h05.51.826,arrow_simon_norep,2021.1.2,Win32,60.0024001,,,,,,,,,,,,,,,,,,,,,q,1,1.5389,32,FALSE,FALSE,7,3,31,3,1,,,,,,,
,,,,,,0,2.493750178,#a3d0fb,,left_blue.png,w,,,,,,w,left_blue.png,left_orange.png,q,left,5f4c9e74da9c148b0d42ecbd,001,2021-08-09_11h05.51.826,arrow_simon_norep,2021.1.2,Win32,60.0024001,,,,,,,,,,,,,,,,,,,,,w,1,1.6603,33,TRUE,FALSE,8,0,32,2,1,,,,,,,
,,,,,,0,2.353262844,#f3af84,,right_orange.png,p,,,,,,o,right_blue.png,right_orange.png,p,left,5f4c9e74da9c148b0d42ecbd,001,2021-08-09_11h05.51.826,arrow_simon_norep,2021.1.2,Win32,60.0024001,,,,,,,,,,,,,,,,,,,,,p,1,1.787,34,TRUE,FALSE,8,1,33,0,1,,,,,,,
,,,,,,0,2.373620989,#a3d0fb,,left_blue.png,w,,,,,,w,left_blue.png,left_orange.png,q,right,5f4c9e74da9c148b0d42ecbd,001,2021-08-09_11h05.51.826,arrow_simon_norep,2021.1.2,Win32,60.0024001,,,,,,,,,,,,,,,,,,,,,w,1,1.7674,35,TRUE,FALSE,8,2,34,3,1,,,,,,,
,,,,,,0,2.091155881,#f3af84,,left_orange.png,q,,,,,,w,left_blue.png,left_orange.png,q,left,5f4c9e74da9c148b0d42ecbd,001,2021-08-09_11h05.51.826,arrow_simon_norep,2021.1.2,Win32,60.0024001,,,,,,,,,,,,,,,,,,,,,q,1,1.6848,36,TRUE,FALSE,8,3,35,2,1,,,,,,,
,,,,,,0,1.999164304,#a3d0fb,,left_blue.png,w,,,,,,w,left_blue.png,left_orange.png,q,right,5f4c9e74da9c148b0d42ecbd,001,2021-08-09_11h05.51.826,arrow_simon_norep,2021.1.2,Win32,60.0024001,,,,,,,,,,,,,,,,,,,,,w,1,1.6841,37,TRUE,FALSE,9,0,36,3,1,,,,,,,
,,,,,,0,2.195687207,#f3af84,,right_orange.png,p,,,,,,o,right_blue.png,right_orange.png,p,right,5f4c9e74da9c148b0d42ecbd,001,2021-08-09_11h05.51.826,arrow_simon_norep,2021.1.2,Win32,60.0024001,,,,,,,,,,,,,,,,,,,,,p,1,1.587,38,FALSE,FALSE,9,1,37,1,1,,,,,,,
,,,,,,0,1.532733441,#a3d0fb,,right_blue.png,o,,,,,,o,right_blue.png,right_orange.png,p,left,5f4c9e74da9c148b0d42ecbd,001,2021-08-09_11h05.51.826,arrow_simon_norep,2021.1.2,Win32,60.0024001,,,,,,,,,,,,,,,,,,,,,o,1,1.4752,39,FALSE,FALSE,9,2,38,0,1,,,,,,,
,,,,,,0,1.727556911,#f3af84,,right_orange.png,p,,,,,,o,right_blue.png,right_orange.png,p,right,5f4c9e74da9c148b0d42ecbd,001,2021-08-09_11h05.51.826,arrow_simon_norep,2021.1.2,Win32,60.0024001,,,,,,,,,,,,,,,,,,,,,p,1,1.5848,40,FALSE,FALSE,9,3,39,1,1,,,,,,,
,,,,,,1,1.996072181,#a3d0fb,,right_blue.png,o,,,,,,o,right_blue.png,right_orange.png,p,left,5f4c9e74da9c148b0d42ecbd,001,2021-08-09_11h05.51.826,arrow_simon_norep,2021.1.2,Win32,60.0024001,,,,,,,,,,,,,,,,,,,,,p,0,1.56,41,FALSE,FALSE,10,0,40,0,1,,,,,,,
,,,,,,0,1.824385653,#f3af84,,right_orange.png,p,,,,,,o,right_blue.png,right_orange.png,p,left,5f4c9e74da9c148b0d42ecbd,001,2021-08-09_11h05.51.826,arrow_simon_norep,2021.1.2,Win32,60.0024001,,,,,,,,,,,,,,,,,,,,,p,1,1.5154,42,FALSE,FALSE,10,1,41,0,1,,,,,,,
,,,,,,0,1.833000516,#a3d0fb,,right_blue.png,o,,,,,,o,right_blue.png,right_orange.png,p,right,5f4c9e74da9c148b0d42ecbd,001,2021-08-09_11h05.51.826,arrow_simon_norep,2021.1.2,Win32,60.0024001,,,,,,,,,,,,,,,,,,,,,o,1,1.5148,43,FALSE,FALSE,10,2,42,1,1,,,,,,,
,,,,,,1,2.415782148,#f3af84,,right_orange.png,p,,,,,,o,right_blue.png,right_orange.png,p,left,5f4c9e74da9c148b0d42ecbd,001,2021-08-09_11h05.51.826,arrow_simon_norep,2021.1.2,Win32,60.0024001,,,,,,,,,,,,,,,,,,,,,q,0,1.5557,44,FALSE,FALSE,10,3,43,0,1,,,,,,,
,,,,,,1,1.51582378,#a3d0fb,,right_blue.png,o,,,,,,o,right_blue.png,right_orange.png,p,right,5f4c9e74da9c148b0d42ecbd,001,2021-08-09_11h05.51.826,arrow_simon_norep,2021.1.2,Win32,60.0024001,,,,,,,,,,,,,,,,,,,,,o,1,1.8546,45,TRUE,FALSE,11,0,44,1,1,,,,,,,
,,,,,,0,1.532752475,#f3af84,,right_orange.png,p,,,,,,o,right_blue.png,right_orange.png,p,left,5f4c9e74da9c148b0d42ecbd,001,2021-08-09_11h05.51.826,arrow_simon_norep,2021.1.2,Win32,60.0024001,,,,,,,,,,,,,,,,,,,,,p,1,1.5075,46,FALSE,FALSE,11,1,45,0,1,,,,,,,
,,,,,,0,2.201408225,#a3d0fb,,right_blue.png,o,,,,,,o,right_blue.png,right_orange.png,p,left,5f4c9e74da9c148b0d42ecbd,001,2021-08-09_11h05.51.826,arrow_simon_norep,2021.1.2,Win32,60.0024001,,,,,,,,,,,,,,,,,,,,,o,1,1.5522,47,FALSE,FALSE,11,2,46,0,1,,,,,,,
,,,,,,0,2.048723918,#f3af84,,right_orange.png,p,,,,,,o,right_blue.png,right_orange.png,p,right,5f4c9e74da9c148b0d42ecbd,001,2021-08-09_11h05.51.826,arrow_simon_norep,2021.1.2,Win32,60.0024001,,,,,,,,,,,,,,,,,,,,,p,1,1.5132,48,FALSE,FALSE,11,3,47,1,1,,,,,,,
,,,,,,0,1.899879351,#a3d0fb,,right_blue.png,o,,,,,,o,right_blue.png,right_orange.png,p,right,5f4c9e74da9c148b0d42ecbd,001,2021-08-09_11h05.51.826,arrow_simon_norep,2021.1.2,Win32,60.0024001,,,,,,,,,,,,,,,,,,,,,o,1,1.5184,49,FALSE,FALSE,12,0,48,1,1,,,,,,,
,,,,,,0,1.701394774,#f3af84,,right_orange.png,p,,,,,,o,right_blue.png,right_orange.png,p,right,5f4c9e74da9c148b0d42ecbd,001,2021-08-09_11h05.51.826,arrow_simon_norep,2021.1.2,Win32,60.0024001,,,,,,,,,,,,,,,,,,,,,p,1,1.4558,50,FALSE,FALSE,12,1,49,1,1,,,,,,,
,,,,,,0,1.915811101,#a3d0fb,,left_blue.png,w,,,,,,w,left_blue.png,left_orange.png,q,left,5f4c9e74da9c148b0d42ecbd,001,2021-08-09_11h05.51.826,arrow_simon_norep,2021.1.2,Win32,60.0024001,,,,,,,,,,,,,,,,,,,,,w,1,1.5557,51,FALSE,FALSE,12,2,50,2,1,,,,,,,
,,,,,,0,2.212463839,#f3af84,,left_orange.png,q,,,,,,w,left_blue.png,left_orange.png,q,left,5f4c9e74da9c148b0d42ecbd,001,2021-08-09_11h05.51.826,arrow_simon_norep,2021.1.2,Win32,60.0024001,,,,,,,,,,,,,,,,,,,,,q,1,1.5295,52,FALSE,FALSE,12,3,51,2,1,,,,,,,
,,,,,,0,2.373291315,#a3d0fb,,left_blue.png,w,,,,,,w,left_blue.png,left_orange.png,q,right,5f4c9e74da9c148b0d42ecbd,001,2021-08-09_11h05.51.826,arrow_simon_norep,2021.1.2,Win32,60.0024001,,,,,,,,,,,,,,,,,,,,,o,0,1.6504,53,TRUE,FALSE,13,0,52,3,1,,,,,,,
,,,,,,0,2.259306492,#f3af84,,left_orange.png,q,,,,,,w,left_blue.png,left_orange.png,q,right,5f4c9e74da9c148b0d42ecbd,001,2021-08-09_11h05.51.826,arrow_simon_norep,2021.1.2,Win32,60.0024001,,,,,,,,,,,,,,,,,,,,,q,1,1.672,54,TRUE,FALSE,13,1,53,3,1,,,,,,,
,,,,,,0,2.024782427,#a3d0fb,,left_blue.png,w,,,,,,w,left_blue.png,left_orange.png,q,left,5f4c9e74da9c148b0d42ecbd,001,2021-08-09_11h05.51.826,arrow_simon_norep,2021.1.2,Win32,60.0024001,,,,,,,,,,,,,,,,,,,,,w,1,1.5569,55,FALSE,FALSE,13,2,54,2,1,,,,,,,
,,,,,,0,2.413629037,#f3af84,,left_orange.png,q,,,,,,w,left_blue.png,left_orange.png,q,left,5f4c9e74da9c148b0d42ecbd,001,2021-08-09_11h05.51.826,arrow_simon_norep,2021.1.2,Win32,60.0024001,,,,,,,,,,,,,,,,,,,,,w,0,1.9374,56,TRUE,FALSE,13,3,55,2,1,,,,,,,
,,,,,,0,1.633029606,#a3d0fb,,right_blue.png,o,,,,,,o,right_blue.png,right_orange.png,p,left,5f4c9e74da9c148b0d42ecbd,001,2021-08-09_11h05.51.826,arrow_simon_norep,2021.1.2,Win32,60.0024001,,,,,,,,,,,,,,,,,,,,,o,1,1.5466,57,FALSE,FALSE,14,0,56,0,1,,,,,,,
,,,,,,1,2.203556124,#f3af84,,left_orange.png,q,,,,,,w,left_blue.png,left_orange.png,q,left,5f4c9e74da9c148b0d42ecbd,001,2021-08-09_11h05.51.826,arrow_simon_norep,2021.1.2,Win32,60.0024001,,,,,,,,,,,,,,,,,,,,,p,0,1.5015,58,FALSE,FALSE,14,1,57,2,1,,,,,,,
,,,,,,1,2.45011458,#a3d0fb,,left_blue.png,w,,,,,,w,left_blue.png,left_orange.png,q,right,5f4c9e74da9c148b0d42ecbd,001,2021-08-09_11h05.51.826,arrow_simon_norep,2021.1.2,Win32,60.0024001,,,,,,,,,,,,,,,,,,,,,o,0,2.0351,59,TRUE,FALSE,14,2,58,3,1,,,,,,,
,,,,,,1,2.012988013,#f3af84,,left_orange.png,q,,,,,,w,left_blue.png,left_orange.png,q,left,5f4c9e74da9c148b0d42ecbd,001,2021-08-09_11h05.51.826,arrow_simon_norep,2021.1.2,Win32,60.0024001,,,,,,,,,,,,,,,,,,,,,w,0,1.6581,60,TRUE,FALSE,14,3,59,2,1,,,,,,,
,,,,,,,,,,,,,,,,,,,,,,5f4c9e74da9c148b0d42ecbd,001,2021-08-09_11h05.51.826,arrow_simon_norep,2021.1.2,Win32,60.0024001,,,,,,,,,,,,,,,,,,,,,,,,,,,,,,,,space,9.1263,2,0,2,0,1
,,,,,,0,1.929372492,#a3d0fb,,left_blue.png,w,,,,,,w,left_blue.png,left_orange.png,q,left,5f4c9e74da9c148b0d42ecbd,001,2021-08-09_11h05.51.826,arrow_simon_norep,2021.1.2,Win32,60.0024001,,,,,,,,,,,,,,,,,,,,,w,1,1.535,1,FALSE,FALSE,0,0,0,2,1,,,,,,,
,,,,,,0,2.010780507,#f3af84,,right_orange.png,p,,,,,,o,right_blue.png,right_orange.png,p,left,5f4c9e74da9c148b0d42ecbd,001,2021-08-09_11h05.51.826,arrow_simon_norep,2021.1.2,Win32,60.0024001,,,,,,,,,,,,,,,,,,,,,p,1,1.5991,2,FALSE,FALSE,0,1,1,0,1,,,,,,,
,,,,,,0,1.839578046,#a3d0fb,,left_blue.png,w,,,,,,w,left_blue.png,left_orange.png,q,left,5f4c9e74da9c148b0d42ecbd,001,2021-08-09_11h05.51.826,arrow_simon_norep,2021.1.2,Win32,60.0024001,,,,,,,,,,,,,,,,,,,,,w,1,1.5839,3,FALSE,FALSE,0,2,2,2,1,,,,,,,
,,,,,,0,2.196931073,#f3af84,,right_orange.png,p,,,,,,o,right_blue.png,right_orange.png,p,left,5f4c9e74da9c148b0d42ecbd,001,2021-08-09_11h05.51.826,arrow_simon_norep,2021.1.2,Win32,60.0024001,,,,,,,,,,,,,,,,,,,,,p,1,1.7098,4,TRUE,FALSE,0,3,3,0,1,,,,,,,
,,,,,,0,1.949483836,#a3d0fb,,right_blue.png,o,,,,,,o,right_blue.png,right_orange.png,p,right,5f4c9e74da9c148b0d42ecbd,001,2021-08-09_11h05.51.826,arrow_simon_norep,2021.1.2,Win32,60.0024001,,,,,,,,,,,,,,,,,,,,,w,0,1.6847,5,TRUE,FALSE,1,0,4,1,1,,,,,,,
,,,,,,0,2.271399715,#f3af84,,right_orange.png,p,,,,,,o,right_blue.png,right_orange.png,p,left,5f4c9e74da9c148b0d42ecbd,001,2021-08-09_11h05.51.826,arrow_simon_norep,2021.1.2,Win32,60.0024001,,,,,,,,,,,,,,,,,,,,,o,0,1.7718,6,TRUE,FALSE,1,1,5,0,1,,,,,,,
,,,,,,1,1.700310713,#a3d0fb,,right_blue.png,o,,,,,,o,right_blue.png,right_orange.png,p,left,5f4c9e74da9c148b0d42ecbd,001,2021-08-09_11h05.51.826,arrow_simon_norep,2021.1.2,Win32,60.0024001,,,,,,,,,,,,,,,,,,,,,p,0,1.5211,7,FALSE,FALSE,1,2,6,0,1,,,,,,,
,,,,,,0,1.5375173,#f3af84,,left_orange.png,q,,,,,,w,left_blue.png,left_orange.png,q,left,5f4c9e74da9c148b0d42ecbd,001,2021-08-09_11h05.51.826,arrow_simon_norep,2021.1.2,Win32,60.0024001,,,,,,,,,,,,,,,,,,,,,q,1,1.4463,8,FALSE,FALSE,1,3,7,2,1,,,,,,,
,,,,,,0,1.809889458,#a3d0fb,,left_blue.png,w,,,,,,w,left_blue.png,left_orange.png,q,right,5f4c9e74da9c148b0d42ecbd,001,2021-08-09_11h05.51.826,arrow_simon_norep,2021.1.2,Win32,60.0024001,,,,,,,,,,,,,,,,,,,,,w,1,1.4551,9,FALSE,FALSE,2,0,8,3,1,,,,,,,
,,,,,,0,1.554961456,#f3af84,,left_orange.png,q,,,,,,w,left_blue.png,left_orange.png,q,left,5f4c9e74da9c148b0d42ecbd,001,2021-08-09_11h05.51.826,arrow_simon_norep,2021.1.2,Win32,60.0024001,,,,,,,,,,,,,,,,,,,,,q,1,1.5513,10,FALSE,FALSE,2,1,9,2,1,,,,,,,
,,,,,,0,1.79999955,#a3d0fb,,left_blue.png,w,,,,,,w,left_blue.png,left_orange.png,q,right,5f4c9e74da9c148b0d42ecbd,001,2021-08-09_11h05.51.826,arrow_simon_norep,2021.1.2,Win32,60.0024001,,,,,,,,,,,,,,,,,,,,,w,1,1.5388,11,FALSE,FALSE,2,2,10,3,1,,,,,,,
,,,,,,0,2.270637112,#f3af84,,right_orange.png,p,,,,,,o,right_blue.png,right_orange.png,p,right,5f4c9e74da9c148b0d42ecbd,001,2021-08-09_11h05.51.826,arrow_simon_norep,2021.1.2,Win32,60.0024001,,,,,,,,,,,,,,,,,,,,,p,1,1.6676,12,TRUE,FALSE,2,3,11,1,1,,,,,,,
,,,,,,0,2.264010112,#a3d0fb,,right_blue.png,o,,,,,,o,right_blue.png,right_orange.png,p,right,5f4c9e74da9c148b0d42ecbd,001,2021-08-09_11h05.51.826,arrow_simon_norep,2021.1.2,Win32,60.0024001,,,,,,,,,,,,,,,,,,,,,o,1,1.6025,13,TRUE,FALSE,3,0,12,1,1,,,,,,,
,,,,,,0,2.34115052,#f3af84,,left_orange.png,q,,,,,,w,left_blue.png,left_orange.png,q,right,5f4c9e74da9c148b0d42ecbd,001,2021-08-09_11h05.51.826,arrow_simon_norep,2021.1.2,Win32,60.0024001,,,,,,,,,,,,,,,,,,,,,q,1,2.1932,14,TRUE,FALSE,3,1,13,3,1,,,,,,,
,,,,,,1,1.960306935,#a3d0fb,,right_blue.png,o,,,,,,o,right_blue.png,right_orange.png,p,right,5f4c9e74da9c148b0d42ecbd,001,2021-08-09_11h05.51.826,arrow_simon_norep,2021.1.2,Win32,60.0024001,,,,,,,,,,,,,,,,,,,,,p,0,1.5073,15,FALSE,FALSE,3,2,14,1,1,,,,,,,
,,,,,,0,1.737166677,#f3af84,,right_orange.png,p,,,,,,o,right_blue.png,right_orange.png,p,left,5f4c9e74da9c148b0d42ecbd,001,2021-08-09_11h05.51.826,arrow_simon_norep,2021.1.2,Win32,60.0024001,,,,,,,,,,,,,,,,,,,,,p,1,1.5128,16,FALSE,FALSE,3,3,15,0,1,,,,,,,
,,,,,,0,2.022578955,#a3d0fb,,right_blue.png,o,,,,,,o,right_blue.png,right_orange.png,p,right,5f4c9e74da9c148b0d42ecbd,001,2021-08-09_11h05.51.826,arrow_simon_norep,2021.1.2,Win32,60.0024001,,,,,,,,,,,,,,,,,,,,,o,1,1.5087,17,FALSE,FALSE,4,0,16,1,1,,,,,,,
,,,,,,0,1.51827378,#f3af84,,left_orange.png,q,,,,,,w,left_blue.png,left_orange.png,q,left,5f4c9e74da9c148b0d42ecbd,001,2021-08-09_11h05.51.826,arrow_simon_norep,2021.1.2,Win32,60.0024001,,,,,,,,,,,,,,,,,,,,,q,1,1.4114,18,FALSE,FALSE,4,1,17,2,1,,,,,,,
,,,,,,0,2.147594259,#a3d0fb,,left_blue.png,w,,,,,,w,left_blue.png,left_orange.png,q,right,5f4c9e74da9c148b0d42ecbd,001,2021-08-09_11h05.51.826,arrow_simon_norep,2021.1.2,Win32,60.0024001,,,,,,,,,,,,,,,,,,,,,o,0,1.7357,19,TRUE,FALSE,4,2,18,3,1,,,,,,,
,,,,,,0,1.940274955,#f3af84,,left_orange.png,q,,,,,,w,left_blue.png,left_orange.png,q,right,5f4c9e74da9c148b0d42ecbd,001,2021-08-09_11h05.51.826,arrow_simon_norep,2021.1.2,Win32,60.0024001,,,,,,,,,,,,,,,,,,,,,q,1,1.6449,20,TRUE,FALSE,4,3,19,3,1,,,,,,,
,,,,,,0,2.395181054,#a3d0fb,,right_blue.png,o,,,,,,o,right_blue.png,right_orange.png,p,left,5f4c9e74da9c148b0d42ecbd,001,2021-08-09_11h05.51.826,arrow_simon_norep,2021.1.2,Win32,60.0024001,,,,,,,,,,,,,,,,,,,,,o,1,1.8835,21,TRUE,FALSE,5,0,20,0,1,,,,,,,
,,,,,,0,1.694541621,#f3af84,,right_orange.png,p,,,,,,o,right_blue.png,right_orange.png,p,right,5f4c9e74da9c148b0d42ecbd,001,2021-08-09_11h05.51.826,arrow_simon_norep,2021.1.2,Win32,60.0024001,,,,,,,,,,,,,,,,,,,,,p,1,1.5188,22,FALSE,FALSE,5,1,21,1,1,,,,,,,
,,,,,,0,2.215002783,#a3d0fb,,left_blue.png,w,,,,,,w,left_blue.png,left_orange.png,q,left,5f4c9e74da9c148b0d42ecbd,001,2021-08-09_11h05.51.826,arrow_simon_norep,2021.1.2,Win32,60.0024001,,,,,,,,,,,,,,,,,,,,,w,1,1.7573,23,TRUE,FALSE,5,2,22,2,1,,,,,,,
,,,,,,0,2.259744219,#f3af84,,left_orange.png,q,,,,,,w,left_blue.png,left_orange.png,q,left,5f4c9e74da9c148b0d42ecbd,001,2021-08-09_11h05.51.826,arrow_simon_norep,2021.1.2,Win32,60.0024001,,,,,,,,,,,,,,,,,,,,,q,1,2.1125,24,TRUE,FALSE,5,3,23,2,1,,,,,,,
,,,,,,0,1.894203833,#a3d0fb,,right_blue.png,o,,,,,,o,right_blue.png,right_orange.png,p,right,5f4c9e74da9c148b0d42ecbd,001,2021-08-09_11h05.51.826,arrow_simon_norep,2021.1.2,Win32,60.0024001,,,,,,,,,,,,,,,,,,,,,o,1,1.284,25,FALSE,TRUE,6,0,24,1,1,,,,,,,
,,,,,,0,1.766231763,#f3af84,,right_orange.png,p,,,,,,o,right_blue.png,right_orange.png,p,left,5f4c9e74da9c148b0d42ecbd,001,2021-08-09_11h05.51.826,arrow_simon_norep,2021.1.2,Win32,60.0024001,,,,,,,,,,,,,,,,,,,,,p,1,1.599,26,FALSE,FALSE,6,1,25,0,1,,,,,,,
,,,,,,0,1.598772706,#a3d0fb,,right_blue.png,o,,,,,,o,right_blue.png,right_orange.png,p,left,5f4c9e74da9c148b0d42ecbd,001,2021-08-09_11h05.51.826,arrow_simon_norep,2021.1.2,Win32,60.0024001,,,,,,,,,,,,,,,,,,,,,o,1,1.5344,27,FALSE,FALSE,6,2,26,0,1,,,,,,,
,,,,,,0,1.876127256,#f3af84,,left_orange.png,q,,,,,,w,left_blue.png,left_orange.png,q,left,5f4c9e74da9c148b0d42ecbd,001,2021-08-09_11h05.51.826,arrow_simon_norep,2021.1.2,Win32,60.0024001,,,,,,,,,,,,,,,,,,,,,q,1,1.5173,28,FALSE,FALSE,6,3,27,2,1,,,,,,,
,,,,,,0,1.621456707,#a3d0fb,,right_blue.png,o,,,,,,o,right_blue.png,right_orange.png,p,right,5f4c9e74da9c148b0d42ecbd,001,2021-08-09_11h05.51.826,arrow_simon_norep,2021.1.2,Win32,60.0024001,,,,,,,,,,,,,,,,,,,,,o,1,1.5506,29,FALSE,FALSE,7,0,28,1,1,,,,,,,
,,,,,,0,1.957762875,#f3af84,,right_orange.png,p,,,,,,o,right_blue.png,right_orange.png,p,left,5f4c9e74da9c148b0d42ecbd,001,2021-08-09_11h05.51.826,arrow_simon_norep,2021.1.2,Win32,60.0024001,,,,,,,,,,,,,,,,,,,,,p,1,1.5507,30,FALSE,FALSE,7,1,29,0,1,,,,,,,
,,,,,,0,2.339074915,#a3d0fb,,left_blue.png,w,,,,,,w,left_blue.png,left_orange.png,q,left,5f4c9e74da9c148b0d42ecbd,001,2021-08-09_11h05.51.826,arrow_simon_norep,2021.1.2,Win32,60.0024001,,,,,,,,,,,,,,,,,,,,,w,1,1.6009,31,TRUE,FALSE,7,2,30,2,1,,,,,,,
,,,,,,0,2.472004314,#f3af84,,left_orange.png,q,,,,,,w,left_blue.png,left_orange.png,q,right,5f4c9e74da9c148b0d42ecbd,001,2021-08-09_11h05.51.826,arrow_simon_norep,2021.1.2,Win32,60.0024001,,,,,,,,,,,,,,,,,,,,,q,1,2.2072,32,TRUE,FALSE,7,3,31,3,1,,,,,,,
,,,,,,0,1.74162114,#a3d0fb,,right_blue.png,o,,,,,,o,right_blue.png,right_orange.png,p,right,5f4c9e74da9c148b0d42ecbd,001,2021-08-09_11h05.51.826,arrow_simon_norep,2021.1.2,Win32,60.0024001,,,,,,,,,,,,,,,,,,,,,o,1,1.5012,33,FALSE,FALSE,8,0,32,1,1,,,,,,,
,,,,,,0,2.188204254,#f3af84,,right_orange.png,p,,,,,,o,right_blue.png,right_orange.png,p,right,5f4c9e74da9c148b0d42ecbd,001,2021-08-09_11h05.51.826,arrow_simon_norep,2021.1.2,Win32,60.0024001,,,,,,,,,,,,,,,,,,,,,p,1,1.9736,34,TRUE,FALSE,8,1,33,1,1,,,,,,,
,,,,,,0,2.05637287,#a3d0fb,,right_blue.png,o,,,,,,o,right_blue.png,right_orange.png,p,left,5f4c9e74da9c148b0d42ecbd,001,2021-08-09_11h05.51.826,arrow_simon_norep,2021.1.2,Win32,60.0024001,,,,,,,,,,,,,,,,,,,,,w,0,1.7001,35,TRUE,FALSE,8,2,34,0,1,,,,,,,
,,,,,,0,1.729149792,#f3af84,,left_orange.png,q,,,,,,w,left_blue.png,left_orange.png,q,left,5f4c9e74da9c148b0d42ecbd,001,2021-08-09_11h05.51.826,arrow_simon_norep,2021.1.2,Win32,60.0024001,,,,,,,,,,,,,,,,,,,,,q,1,1.4719,36,FALSE,FALSE,8,3,35,2,1,,,,,,,
,,,,,,0,2.029417727,#a3d0fb,,right_blue.png,o,,,,,,o,right_blue.png,right_orange.png,p,right,5f4c9e74da9c148b0d42ecbd,001,2021-08-09_11h05.51.826,arrow_simon_norep,2021.1.2,Win32,60.0024001,,,,,,,,,,,,,,,,,,,,,o,1,1.5935,37,FALSE,FALSE,9,0,36,1,1,,,,,,,
,,,,,,0,2.425564544,#f3af84,,right_orange.png,p,,,,,,o,right_blue.png,right_orange.png,p,right,5f4c9e74da9c148b0d42ecbd,001,2021-08-09_11h05.51.826,arrow_simon_norep,2021.1.2,Win32,60.0024001,,,,,,,,,,,,,,,,,,,,,p,1,1.9676,38,TRUE,FALSE,9,1,37,1,1,,,,,,,
,,,,,,0,2.132538264,#a3d0fb,,left_blue.png,w,,,,,,w,left_blue.png,left_orange.png,q,right,5f4c9e74da9c148b0d42ecbd,001,2021-08-09_11h05.51.826,arrow_simon_norep,2021.1.2,Win32,60.0024001,,,,,,,,,,,,,,,,,,,,,w,1,1.9555,39,TRUE,FALSE,9,2,38,3,1,,,,,,,
,,,,,,0,1.564562765,#f3af84,,left_orange.png,q,,,,,,w,left_blue.png,left_orange.png,q,right,5f4c9e74da9c148b0d42ecbd,001,2021-08-09_11h05.51.826,arrow_simon_norep,2021.1.2,Win32,60.0024001,,,,,,,,,,,,,,,,,,,,,q,1,1.4355,40,FALSE,FALSE,9,3,39,3,1,,,,,,,
,,,,,,0,2.247792222,#a3d0fb,,left_blue.png,w,,,,,,w,left_blue.png,left_orange.png,q,right,5f4c9e74da9c148b0d42ecbd,001,2021-08-09_11h05.51.826,arrow_simon_norep,2021.1.2,Win32,60.0024001,,,,,,,,,,,,,,,,,,,,,w,1,1.9412,41,TRUE,FALSE,10,0,40,3,1,,,,,,,
,,,,,,0,1.907062031,#f3af84,,left_orange.png,q,,,,,,w,left_blue.png,left_orange.png,q,left,5f4c9e74da9c148b0d42ecbd,001,2021-08-09_11h05.51.826,arrow_simon_norep,2021.1.2,Win32,60.0024001,,,,,,,,,,,,,,,,,,,,,q,1,1.5642,42,FALSE,FALSE,10,1,41,2,1,,,,,,,
,,,,,,0,1.548781944,#a3d0fb,,left_blue.png,w,,,,,,w,left_blue.png,left_orange.png,q,left,5f4c9e74da9c148b0d42ecbd,001,2021-08-09_11h05.51.826,arrow_simon_norep,2021.1.2,Win32,60.0024001,,,,,,,,,,,,,,,,,,,,,w,1,1.5164,43,FALSE,FALSE,10,2,42,2,1,,,,,,,
,,,,,,0,1.68651501,#f3af84,,right_orange.png,p,,,,,,o,right_blue.png,right_orange.png,p,left,5f4c9e74da9c148b0d42ecbd,001,2021-08-09_11h05.51.826,arrow_simon_norep,2021.1.2,Win32,60.0024001,,,,,,,,,,,,,,,,,,,,,p,1,1.5763,44,FALSE,FALSE,10,3,43,0,1,,,,,,,
,,,,,,0,2.022706894,#a3d0fb,,left_blue.png,w,,,,,,w,left_blue.png,left_orange.png,q,left,5f4c9e74da9c148b0d42ecbd,001,2021-08-09_11h05.51.826,arrow_simon_norep,2021.1.2,Win32,60.0024001,,,,,,,,,,,,,,,,,,,,,w,1,1.6123,45,TRUE,FALSE,11,0,44,2,1,,,,,,,
,,,,,,1,1.659967889,#f3af84,,left_orange.png,q,,,,,,w,left_blue.png,left_orange.png,q,right,5f4c9e74da9c148b0d42ecbd,001,2021-08-09_11h05.51.826,arrow_simon_norep,2021.1.2,Win32,60.0024001,,,,,,,,,,,,,,,,,,,,,o,0,1.5442,46,FALSE,FALSE,11,1,45,3,1,,,,,,,
,,,,,,1,2.338494461,#a3d0fb,,left_blue.png,w,,,,,,w,left_blue.png,left_orange.png,q,right,5f4c9e74da9c148b0d42ecbd,001,2021-08-09_11h05.51.826,arrow_simon_norep,2021.1.2,Win32,60.0024001,,,,,,,,,,,,,,,,,,,,,w,1,2.3435,47,TRUE,FALSE,11,2,46,3,1,,,,,,,
,,,,,,1,2.040372163,#f3af84,,right_orange.png,p,,,,,,o,right_blue.png,right_orange.png,p,right,5f4c9e74da9c148b0d42ecbd,001,2021-08-09_11h05.51.826,arrow_simon_norep,2021.1.2,Win32,60.0024001,,,,,,,,,,,,,,,,,,,,,p,1,1.6665,48,TRUE,FALSE,11,3,47,1,1,,,,,,,
,,,,,,0,2.021323163,#a3d0fb,,left_blue.png,w,,,,,,w,left_blue.png,left_orange.png,q,right,5f4c9e74da9c148b0d42ecbd,001,2021-08-09_11h05.51.826,arrow_simon_norep,2021.1.2,Win32,60.0024001,,,,,,,,,,,,,,,,,,,,,w,1,1.5504,49,FALSE,FALSE,12,0,48,3,1,,,,,,,
,,,,,,0,2.440229112,#f3af84,,left_orange.png,q,,,,,,w,left_blue.png,left_orange.png,q,left,5f4c9e74da9c148b0d42ecbd,001,2021-08-09_11h05.51.826,arrow_simon_norep,2021.1.2,Win32,60.0024001,,,,,,,,,,,,,,,,,,,,,w,0,2.1563,50,TRUE,FALSE,12,1,49,2,1,,,,,,,
,,,,,,0,1.599291015,#a3d0fb,,right_blue.png,o,,,,,,o,right_blue.png,right_orange.png,p,left,5f4c9e74da9c148b0d42ecbd,001,2021-08-09_11h05.51.826,arrow_simon_norep,2021.1.2,Win32,60.0024001,,,,,,,,,,,,,,,,,,,,,o,1,1.4933,51,FALSE,FALSE,12,2,50,0,1,,,,,,,
,,,,,,0,1.975731783,#f3af84,,left_orange.png,q,,,,,,w,left_blue.png,left_orange.png,q,right,5f4c9e74da9c148b0d42ecbd,001,2021-08-09_11h05.51.826,arrow_simon_norep,2021.1.2,Win32,60.0024001,,,,,,,,,,,,,,,,,,,,,q,1,1.6472,52,TRUE,FALSE,12,3,51,3,1,,,,,,,
