instruct_resp_simon.keys,instruct_resp_simon.corr,instruct_resp_simon.rt,trial_resp_simon.keys,trial_resp_simon.corr,trial_resp_simon.rt,kerr,target_onset,target_color,target_pos,target_file,target_resp,trials_train_simon.thisRepN,trials_train_simon.thisTrialN,trials_train_simon.thisN,trials_train_simon.thisIndex,trials_train_simon.ran,odd_target_resp,odd_target_file,even_target_file,even_target_resp,target_side,participant,session,date,expName,psychopyVersion,OS,frameRate,train_block_note_resp.keys,train_block_note_resp.rt,blocks_train.thisRepN,blocks_train.thisTrialN,blocks_train.thisN,blocks_train.thisIndex,blocks_train.ran,instruct_resp_timing.keys,instruct_resp_timing.corr,instruct_resp_timing.rt,trial_resp_timing.keys,trial_resp_timing.rt,trials_train_timing.thisRepN,trials_train_timing.thisTrialN,trials_train_timing.thisN,trials_train_timing.thisIndex,trials_train_timing.ran,instruct_resp.keys,instruct_resp.corr,instruct_resp.rt,trial_resp.keys,trial_resp.corr,trial_resp.rt,trial_num,too_slow,too_soon,trials.thisRepN,trials.thisTrialN,trials.thisN,trials.thisIndex,trials.ran,block_note_resp.keys,block_note_resp.rt,blocks.thisRepN,blocks.thisTrialN,blocks.thisN,blocks.thisIndex,blocks.ran
space,0,679.2173,w,1,3.2866,0,0.806477046,#a3d0fb,,left_blue.png,w,0,0,0,3,1,w,left_blue.png,left_orange.png,q,right,6058bee6f83bac3e977d4c0b,001,2021-08-09_10h17.19.949,arrow_simon_norep,2021.1.2,Win32,60.58035985,,,,,,,,,,,,,,,,,,,,,,,,,,,,,,,,,,,,,,
,,,p,1,1.4012,0,0.350960902,#f3af84,,right_orange.png,p,0,1,1,1,1,o,right_blue.png,right_orange.png,p,right,6058bee6f83bac3e977d4c0b,001,2021-08-09_10h17.19.949,arrow_simon_norep,2021.1.2,Win32,60.58035985,,,,,,,,,,,,,,,,,,,,,,,,,,,,,,,,,,,,,,
,,,w,1,2.1918,0,0.071948341,#a3d0fb,,left_blue.png,w,0,2,2,2,1,w,left_blue.png,left_orange.png,q,left,6058bee6f83bac3e977d4c0b,001,2021-08-09_10h17.19.949,arrow_simon_norep,2021.1.2,Win32,60.58035985,,,,,,,,,,,,,,,,,,,,,,,,,,,,,,,,,,,,,,
,,,q,1,2.4426,0,0.981727789,#f3af84,,left_orange.png,q,0,3,3,3,1,w,left_blue.png,left_orange.png,q,right,6058bee6f83bac3e977d4c0b,001,2021-08-09_10h17.19.949,arrow_simon_norep,2021.1.2,Win32,60.58035985,,,,,,,,,,,,,,,,,,,,,,,,,,,,,,,,,,,,,,
,,,w,1,1.4677,0,0.604700418,#a3d0fb,,left_blue.png,w,1,0,4,3,1,w,left_blue.png,left_orange.png,q,right,6058bee6f83bac3e977d4c0b,001,2021-08-09_10h17.19.949,arrow_simon_norep,2021.1.2,Win32,60.58035985,,,,,,,,,,,,,,,,,,,,,,,,,,,,,,,,,,,,,,
,,,q,1,1.4006,0,0.840884487,#f3af84,,left_orange.png,q,1,1,5,3,1,w,left_blue.png,left_orange.png,q,right,6058bee6f83bac3e977d4c0b,001,2021-08-09_10h17.19.949,arrow_simon_norep,2021.1.2,Win32,60.58035985,,,,,,,,,,,,,,,,,,,,,,,,,,,,,,,,,,,,,,
,,,o,1,1.4168,0,0.639265112,#a3d0fb,,right_blue.png,o,1,2,6,0,1,o,right_blue.png,right_orange.png,p,left,6058bee6f83bac3e977d4c0b,001,2021-08-09_10h17.19.949,arrow_simon_norep,2021.1.2,Win32,60.58035985,,,,,,,,,,,,,,,,,,,,,,,,,,,,,,,,,,,,,,
,,,p,1,3.0852,0,0.890365176,#f3af84,,right_orange.png,p,1,3,7,0,1,o,right_blue.png,right_orange.png,p,left,6058bee6f83bac3e977d4c0b,001,2021-08-09_10h17.19.949,arrow_simon_norep,2021.1.2,Win32,60.58035985,,,,,,,,,,,,,,,,,,,,,,,,,,,,,,,,,,,,,,
,,,o,1,1.4528,0,0.773233106,#a3d0fb,,right_blue.png,o,2,0,8,1,1,o,right_blue.png,right_orange.png,p,right,6058bee6f83bac3e977d4c0b,001,2021-08-09_10h17.19.949,arrow_simon_norep,2021.1.2,Win32,60.58035985,,,,,,,,,,,,,,,,,,,,,,,,,,,,,,,,,,,,,,
,,,q,1,2.6174,0,0.957523349,#f3af84,,left_orange.png,q,2,1,9,2,1,w,left_blue.png,left_orange.png,q,left,6058bee6f83bac3e977d4c0b,001,2021-08-09_10h17.19.949,arrow_simon_norep,2021.1.2,Win32,60.58035985,,,,,,,,,,,,,,,,,,,,,,,,,,,,,,,,,,,,,,
,,,o,1,1.611,0,0.336077247,#a3d0fb,,right_blue.png,o,2,2,10,0,1,o,right_blue.png,right_orange.png,p,left,6058bee6f83bac3e977d4c0b,001,2021-08-09_10h17.19.949,arrow_simon_norep,2021.1.2,Win32,60.58035985,,,,,,,,,,,,,,,,,,,,,,,,,,,,,,,,,,,,,,
,,,p,1,1.2014,0,0.21812995,#f3af84,,right_orange.png,p,2,3,11,0,1,o,right_blue.png,right_orange.png,p,left,6058bee6f83bac3e977d4c0b,001,2021-08-09_10h17.19.949,arrow_simon_norep,2021.1.2,Win32,60.58035985,,,,,,,,,,,,,,,,,,,,,,,,,,,,,,,,,,,,,,
,,,o,1,1.192,0,0.053273707,#a3d0fb,,right_blue.png,o,3,0,12,1,1,o,right_blue.png,right_orange.png,p,right,6058bee6f83bac3e977d4c0b,001,2021-08-09_10h17.19.949,arrow_simon_norep,2021.1.2,Win32,60.58035985,,,,,,,,,,,,,,,,,,,,,,,,,,,,,,,,,,,,,,
,,,q,1,1.4589,0,0.542556478,#f3af84,,left_orange.png,q,3,1,13,2,1,w,left_blue.png,left_orange.png,q,left,6058bee6f83bac3e977d4c0b,001,2021-08-09_10h17.19.949,arrow_simon_norep,2021.1.2,Win32,60.58035985,,,,,,,,,,,,,,,,,,,,,,,,,,,,,,,,,,,,,,
,,,w,1,1.8381,0,0.797449414,#a3d0fb,,left_blue.png,w,3,2,14,3,1,w,left_blue.png,left_orange.png,q,right,6058bee6f83bac3e977d4c0b,001,2021-08-09_10h17.19.949,arrow_simon_norep,2021.1.2,Win32,60.58035985,,,,,,,,,,,,,,,,,,,,,,,,,,,,,,,,,,,,,,
,,,q,1,0.837,0,0.171108278,#f3af84,,left_orange.png,q,3,3,15,2,1,w,left_blue.png,left_orange.png,q,left,6058bee6f83bac3e977d4c0b,001,2021-08-09_10h17.19.949,arrow_simon_norep,2021.1.2,Win32,60.58035985,,,,,,,,,,,,,,,,,,,,,,,,,,,,,,,,,,,,,,
,,,w,1,1.784,0,0.689389709,#a3d0fb,,left_blue.png,w,4,0,16,2,1,w,left_blue.png,left_orange.png,q,left,6058bee6f83bac3e977d4c0b,001,2021-08-09_10h17.19.949,arrow_simon_norep,2021.1.2,Win32,60.58035985,,,,,,,,,,,,,,,,,,,,,,,,,,,,,,,,,,,,,,
,,,p,1,0.9344,0,0.23703786,#f3af84,,right_orange.png,p,4,1,17,0,1,o,right_blue.png,right_orange.png,p,left,6058bee6f83bac3e977d4c0b,001,2021-08-09_10h17.19.949,arrow_simon_norep,2021.1.2,Win32,60.58035985,,,,,,,,,,,,,,,,,,,,,,,,,,,,,,,,,,,,,,
,,,o,1,1.4721,0,0.788635163,#a3d0fb,,right_blue.png,o,4,2,18,1,1,o,right_blue.png,right_orange.png,p,right,6058bee6f83bac3e977d4c0b,001,2021-08-09_10h17.19.949,arrow_simon_norep,2021.1.2,Win32,60.58035985,,,,,,,,,,,,,,,,,,,,,,,,,,,,,,,,,,,,,,
,,,q,1,1.1344,0,0.279559635,#f3af84,,left_orange.png,q,4,3,19,3,1,w,left_blue.png,left_orange.png,q,right,6058bee6f83bac3e977d4c0b,001,2021-08-09_10h17.19.949,arrow_simon_norep,2021.1.2,Win32,60.58035985,,,,,,,,,,,,,,,,,,,,,,,,,,,,,,,,,,,,,,
,,,w,1,1.5185,0,0.925245193,#a3d0fb,,left_blue.png,w,5,0,20,2,1,w,left_blue.png,left_orange.png,q,left,6058bee6f83bac3e977d4c0b,001,2021-08-09_10h17.19.949,arrow_simon_norep,2021.1.2,Win32,60.58035985,,,,,,,,,,,,,,,,,,,,,,,,,,,,,,,,,,,,,,
,,,p,1,1.5174,0,0.842080072,#f3af84,,right_orange.png,p,5,1,21,0,1,o,right_blue.png,right_orange.png,p,left,6058bee6f83bac3e977d4c0b,001,2021-08-09_10h17.19.949,arrow_simon_norep,2021.1.2,Win32,60.58035985,,,,,,,,,,,,,,,,,,,,,,,,,,,,,,,,,,,,,,
,,,o,1,1.8508,0,0.221205023,#a3d0fb,,right_blue.png,o,5,2,22,0,1,o,right_blue.png,right_orange.png,p,left,6058bee6f83bac3e977d4c0b,001,2021-08-09_10h17.19.949,arrow_simon_norep,2021.1.2,Win32,60.58035985,,,,,,,,,,,,,,,,,,,,,,,,,,,,,,,,,,,,,,
,,,q,1,0.9842,0,0.021846645,#f3af84,,left_orange.png,q,5,3,23,3,1,w,left_blue.png,left_orange.png,q,right,6058bee6f83bac3e977d4c0b,001,2021-08-09_10h17.19.949,arrow_simon_norep,2021.1.2,Win32,60.58035985,,,,,,,,,,,,,,,,,,,,,,,,,,,,,,,,,,,,,,
,,,o,0,0.9841,1,0.280671879,#a3d0fb,,left_blue.png,w,6,0,24,3,1,w,left_blue.png,left_orange.png,q,right,6058bee6f83bac3e977d4c0b,001,2021-08-09_10h17.19.949,arrow_simon_norep,2021.1.2,Win32,60.58035985,,,,,,,,,,,,,,,,,,,,,,,,,,,,,,,,,,,,,,
,,,q,1,1.5841,0,0.595946489,#f3af84,,left_orange.png,q,6,1,25,3,1,w,left_blue.png,left_orange.png,q,right,6058bee6f83bac3e977d4c0b,001,2021-08-09_10h17.19.949,arrow_simon_norep,2021.1.2,Win32,60.58035985,,,,,,,,,,,,,,,,,,,,,,,,,,,,,,,,,,,,,,
,,,w,1,1.1012,0,0.18383174,#a3d0fb,,left_blue.png,w,6,2,26,2,1,w,left_blue.png,left_orange.png,q,left,6058bee6f83bac3e977d4c0b,001,2021-08-09_10h17.19.949,arrow_simon_norep,2021.1.2,Win32,60.58035985,,,,,,,,,,,,,,,,,,,,,,,,,,,,,,,,,,,,,,
,,,p,1,1.2765,0,0.539214363,#f3af84,,right_orange.png,p,6,3,27,0,1,o,right_blue.png,right_orange.png,p,left,6058bee6f83bac3e977d4c0b,001,2021-08-09_10h17.19.949,arrow_simon_norep,2021.1.2,Win32,60.58035985,,,,,,,,,,,,,,,,,,,,,,,,,,,,,,,,,,,,,,
,,,o,1,1.4844,0,0.975400983,#a3d0fb,,right_blue.png,o,7,0,28,1,1,o,right_blue.png,right_orange.png,p,right,6058bee6f83bac3e977d4c0b,001,2021-08-09_10h17.19.949,arrow_simon_norep,2021.1.2,Win32,60.58035985,,,,,,,,,,,,,,,,,,,,,,,,,,,,,,,,,,,,,,
,,,q,1,1.1524,0,0.455675258,#f3af84,,left_orange.png,q,7,1,29,3,1,w,left_blue.png,left_orange.png,q,right,6058bee6f83bac3e977d4c0b,001,2021-08-09_10h17.19.949,arrow_simon_norep,2021.1.2,Win32,60.58035985,,,,,,,,,,,,,,,,,,,,,,,,,,,,,,,,,,,,,,
,,,q,0,0.8736,1,0.234860051,#a3d0fb,,left_blue.png,w,7,2,30,2,1,w,left_blue.png,left_orange.png,q,left,6058bee6f83bac3e977d4c0b,001,2021-08-09_10h17.19.949,arrow_simon_norep,2021.1.2,Win32,60.58035985,,,,,,,,,,,,,,,,,,,,,,,,,,,,,,,,,,,,,,
,,,q,1,1.3415,0,0.86996787,#f3af84,,left_orange.png,q,7,3,31,2,1,w,left_blue.png,left_orange.png,q,left,6058bee6f83bac3e977d4c0b,001,2021-08-09_10h17.19.949,arrow_simon_norep,2021.1.2,Win32,60.58035985,,,,,,,,,,,,,,,,,,,,,,,,,,,,,,,,,,,,,,
,,,o,1,0.7085,0,0.107207163,#a3d0fb,,right_blue.png,o,8,0,32,1,1,o,right_blue.png,right_orange.png,p,right,6058bee6f83bac3e977d4c0b,001,2021-08-09_10h17.19.949,arrow_simon_norep,2021.1.2,Win32,60.58035985,,,,,,,,,,,,,,,,,,,,,,,,,,,,,,,,,,,,,,
,,,q,1,0.9532,0,0.019978219,#f3af84,,left_orange.png,q,8,1,33,2,1,w,left_blue.png,left_orange.png,q,left,6058bee6f83bac3e977d4c0b,001,2021-08-09_10h17.19.949,arrow_simon_norep,2021.1.2,Win32,60.58035985,,,,,,,,,,,,,,,,,,,,,,,,,,,,,,,,,,,,,,
,,,o,0,1.2559,1,0.125184349,#a3d0fb,,left_blue.png,w,8,2,34,3,1,w,left_blue.png,left_orange.png,q,right,6058bee6f83bac3e977d4c0b,001,2021-08-09_10h17.19.949,arrow_simon_norep,2021.1.2,Win32,60.58035985,,,,,,,,,,,,,,,,,,,,,,,,,,,,,,,,,,,,,,
,,,p,1,1.5901,0,0.487653926,#f3af84,,right_orange.png,p,8,3,35,1,1,o,right_blue.png,right_orange.png,p,right,6058bee6f83bac3e977d4c0b,001,2021-08-09_10h17.19.949,arrow_simon_norep,2021.1.2,Win32,60.58035985,,,,,,,,,,,,,,,,,,,,,,,,,,,,,,,,,,,,,,
,,,o,1,1.1012,0,0.240806901,#a3d0fb,,right_blue.png,o,9,0,36,1,1,o,right_blue.png,right_orange.png,p,right,6058bee6f83bac3e977d4c0b,001,2021-08-09_10h17.19.949,arrow_simon_norep,2021.1.2,Win32,60.58035985,,,,,,,,,,,,,,,,,,,,,,,,,,,,,,,,,,,,,,
,,,o,0,0.9681,1,0.173148036,#f3af84,,right_orange.png,p,9,1,37,1,1,o,right_blue.png,right_orange.png,p,right,6058bee6f83bac3e977d4c0b,001,2021-08-09_10h17.19.949,arrow_simon_norep,2021.1.2,Win32,60.58035985,,,,,,,,,,,,,,,,,,,,,,,,,,,,,,,,,,,,,,
,,,o,1,1.3546,0,0.811873879,#a3d0fb,,right_blue.png,o,9,2,38,1,1,o,right_blue.png,right_orange.png,p,right,6058bee6f83bac3e977d4c0b,001,2021-08-09_10h17.19.949,arrow_simon_norep,2021.1.2,Win32,60.58035985,,,,,,,,,,,,,,,,,,,,,,,,,,,,,,,,,,,,,,
,,,q,1,1.4424,0,0.941640379,#f3af84,,left_orange.png,q,9,3,39,2,1,w,left_blue.png,left_orange.png,q,left,6058bee6f83bac3e977d4c0b,001,2021-08-09_10h17.19.949,arrow_simon_norep,2021.1.2,Win32,60.58035985,,,,,,,,,,,,,,,,,,,,,,,,,,,,,,,,,,,,,,
,,,o,1,1.1021,0,0.033088484,#a3d0fb,,right_blue.png,o,10,0,40,0,1,o,right_blue.png,right_orange.png,p,left,6058bee6f83bac3e977d4c0b,001,2021-08-09_10h17.19.949,arrow_simon_norep,2021.1.2,Win32,60.58035985,,,,,,,,,,,,,,,,,,,,,,,,,,,,,,,,,,,,,,
,,,p,1,1.0097,0,0.091593982,#f3af84,,right_orange.png,p,10,1,41,1,1,o,right_blue.png,right_orange.png,p,right,6058bee6f83bac3e977d4c0b,001,2021-08-09_10h17.19.949,arrow_simon_norep,2021.1.2,Win32,60.58035985,,,,,,,,,,,,,,,,,,,,,,,,,,,,,,,,,,,,,,
,,,o,1,1.1572,0,0.455319363,#a3d0fb,,right_blue.png,o,10,2,42,0,1,o,right_blue.png,right_orange.png,p,left,6058bee6f83bac3e977d4c0b,001,2021-08-09_10h17.19.949,arrow_simon_norep,2021.1.2,Win32,60.58035985,,,,,,,,,,,,,,,,,,,,,,,,,,,,,,,,,,,,,,
,,,q,1,0.8355,0,0.234142598,#f3af84,,left_orange.png,q,10,3,43,2,1,w,left_blue.png,left_orange.png,q,left,6058bee6f83bac3e977d4c0b,001,2021-08-09_10h17.19.949,arrow_simon_norep,2021.1.2,Win32,60.58035985,,,,,,,,,,,,,,,,,,,,,,,,,,,,,,,,,,,,,,
,,,w,1,1.368,0,0.566949076,#a3d0fb,,left_blue.png,w,11,0,44,3,1,w,left_blue.png,left_orange.png,q,right,6058bee6f83bac3e977d4c0b,001,2021-08-09_10h17.19.949,arrow_simon_norep,2021.1.2,Win32,60.58035985,,,,,,,,,,,,,,,,,,,,,,,,,,,,,,,,,,,,,,
,,,q,1,1.1942,0,0.716509161,#f3af84,,left_orange.png,q,11,1,45,2,1,w,left_blue.png,left_orange.png,q,left,6058bee6f83bac3e977d4c0b,001,2021-08-09_10h17.19.949,arrow_simon_norep,2021.1.2,Win32,60.58035985,,,,,,,,,,,,,,,,,,,,,,,,,,,,,,,,,,,,,,
,,,q,0,0.8681,1,0.31774834,#a3d0fb,,left_blue.png,w,11,2,46,2,1,w,left_blue.png,left_orange.png,q,left,6058bee6f83bac3e977d4c0b,001,2021-08-09_10h17.19.949,arrow_simon_norep,2021.1.2,Win32,60.58035985,,,,,,,,,,,,,,,,,,,,,,,,,,,,,,,,,,,,,,
,,,p,1,1.578,0,0.566817832,#f3af84,,right_orange.png,p,11,3,47,0,1,o,right_blue.png,right_orange.png,p,left,6058bee6f83bac3e977d4c0b,001,2021-08-09_10h17.19.949,arrow_simon_norep,2021.1.2,Win32,60.58035985,,,,,,,,,,,,,,,,,,,,,,,,,,,,,,,,,,,,,,
,,,w,1,1.4353,0,0.781470903,#a3d0fb,,left_blue.png,w,12,0,48,3,1,w,left_blue.png,left_orange.png,q,right,6058bee6f83bac3e977d4c0b,001,2021-08-09_10h17.19.949,arrow_simon_norep,2021.1.2,Win32,60.58035985,,,,,,,,,,,,,,,,,,,,,,,,,,,,,,,,,,,,,,
,,,p,1,1.5348,0,0.75370666,#f3af84,,right_orange.png,p,12,1,49,0,1,o,right_blue.png,right_orange.png,p,left,6058bee6f83bac3e977d4c0b,001,2021-08-09_10h17.19.949,arrow_simon_norep,2021.1.2,Win32,60.58035985,,,,,,,,,,,,,,,,,,,,,,,,,,,,,,,,,,,,,,
,,,w,1,1.2016,0,0.151947919,#a3d0fb,,left_blue.png,w,12,2,50,3,1,w,left_blue.png,left_orange.png,q,right,6058bee6f83bac3e977d4c0b,001,2021-08-09_10h17.19.949,arrow_simon_norep,2021.1.2,Win32,60.58035985,,,,,,,,,,,,,,,,,,,,,,,,,,,,,,,,,,,,,,
,,,q,1,0.9846,0,0.29845474,#f3af84,,left_orange.png,q,12,3,51,3,1,w,left_blue.png,left_orange.png,q,right,6058bee6f83bac3e977d4c0b,001,2021-08-09_10h17.19.949,arrow_simon_norep,2021.1.2,Win32,60.58035985,,,,,,,,,,,,,,,,,,,,,,,,,,,,,,,,,,,,,,
,,,o,1,1.4057,0,0.735277183,#a3d0fb,,right_blue.png,o,13,0,52,0,1,o,right_blue.png,right_orange.png,p,left,6058bee6f83bac3e977d4c0b,001,2021-08-09_10h17.19.949,arrow_simon_norep,2021.1.2,Win32,60.58035985,,,,,,,,,,,,,,,,,,,,,,,,,,,,,,,,,,,,,,
,,,p,1,1.4062,0,0.883193306,#f3af84,,right_orange.png,p,13,1,53,1,1,o,right_blue.png,right_orange.png,p,right,6058bee6f83bac3e977d4c0b,001,2021-08-09_10h17.19.949,arrow_simon_norep,2021.1.2,Win32,60.58035985,,,,,,,,,,,,,,,,,,,,,,,,,,,,,,,,,,,,,,
,,,o,1,1.0507,0,0.253191726,#a3d0fb,,right_blue.png,o,13,2,54,1,1,o,right_blue.png,right_orange.png,p,right,6058bee6f83bac3e977d4c0b,001,2021-08-09_10h17.19.949,arrow_simon_norep,2021.1.2,Win32,60.58035985,,,,,,,,,,,,,,,,,,,,,,,,,,,,,,,,,,,,,,
,,,q,1,1.3678,0,0.903262871,#f3af84,,left_orange.png,q,13,3,55,2,1,w,left_blue.png,left_orange.png,q,left,6058bee6f83bac3e977d4c0b,001,2021-08-09_10h17.19.949,arrow_simon_norep,2021.1.2,Win32,60.58035985,,,,,,,,,,,,,,,,,,,,,,,,,,,,,,,,,,,,,,
,,,o,1,1.1334,0,0.533829448,#a3d0fb,,right_blue.png,o,14,0,56,1,1,o,right_blue.png,right_orange.png,p,right,6058bee6f83bac3e977d4c0b,001,2021-08-09_10h17.19.949,arrow_simon_norep,2021.1.2,Win32,60.58035985,,,,,,,,,,,,,,,,,,,,,,,,,,,,,,,,,,,,,,
,,,p,1,0.9901,0,0.595102355,#f3af84,,right_orange.png,p,14,1,57,1,1,o,right_blue.png,right_orange.png,p,right,6058bee6f83bac3e977d4c0b,001,2021-08-09_10h17.19.949,arrow_simon_norep,2021.1.2,Win32,60.58035985,,,,,,,,,,,,,,,,,,,,,,,,,,,,,,,,,,,,,,
,,,o,1,0.8885,0,0.219293003,#a3d0fb,,right_blue.png,o,14,2,58,0,1,o,right_blue.png,right_orange.png,p,left,6058bee6f83bac3e977d4c0b,001,2021-08-09_10h17.19.949,arrow_simon_norep,2021.1.2,Win32,60.58035985,,,,,,,,,,,,,,,,,,,,,,,,,,,,,,,,,,,,,,
,,,p,1,0.84,0,0.144253186,#f3af84,,right_orange.png,p,14,3,59,0,1,o,right_blue.png,right_orange.png,p,left,6058bee6f83bac3e977d4c0b,001,2021-08-09_10h17.19.949,arrow_simon_norep,2021.1.2,Win32,60.58035985,,,,,,,,,,,,,,,,,,,,,,,,,,,,,,,,,,,,,,
,,,,,,,,,,,,,,,,,,,,,,6058bee6f83bac3e977d4c0b,001,2021-08-09_10h17.19.949,arrow_simon_norep,2021.1.2,Win32,60.58035985,space,7.2332,0,0,0,0,1,,,,,,,,,,,,,,,,,,,,,,,,,,,,,,,
,,,w,1,1.0016,0,0.064012528,#a3d0fb,,left_blue.png,w,0,0,0,2,1,w,left_blue.png,left_orange.png,q,left,6058bee6f83bac3e977d4c0b,001,2021-08-09_10h17.19.949,arrow_simon_norep,2021.1.2,Win32,60.58035985,,,,,,,,,,,,,,,,,,,,,,,,,,,,,,,,,,,,,,
,,,p,1,1.2845,0,0.894603563,#f3af84,,right_orange.png,p,0,1,1,1,1,o,right_blue.png,right_orange.png,p,right,6058bee6f83bac3e977d4c0b,001,2021-08-09_10h17.19.949,arrow_simon_norep,2021.1.2,Win32,60.58035985,,,,,,,,,,,,,,,,,,,,,,,,,,,,,,,,,,,,,,
,,,o,1,1.2343,0,0.544411192,#a3d0fb,,right_blue.png,o,0,2,2,0,1,o,right_blue.png,right_orange.png,p,left,6058bee6f83bac3e977d4c0b,001,2021-08-09_10h17.19.949,arrow_simon_norep,2021.1.2,Win32,60.58035985,,,,,,,,,,,,,,,,,,,,,,,,,,,,,,,,,,,,,,
,,,p,1,1.1842,0,0.776929888,#f3af84,,right_orange.png,p,0,3,3,1,1,o,right_blue.png,right_orange.png,p,right,6058bee6f83bac3e977d4c0b,001,2021-08-09_10h17.19.949,arrow_simon_norep,2021.1.2,Win32,60.58035985,,,,,,,,,,,,,,,,,,,,,,,,,,,,,,,,,,,,,,
,,,w,1,1.6342,0,0.724194369,#a3d0fb,,left_blue.png,w,1,0,4,2,1,w,left_blue.png,left_orange.png,q,left,6058bee6f83bac3e977d4c0b,001,2021-08-09_10h17.19.949,arrow_simon_norep,2021.1.2,Win32,60.58035985,,,,,,,,,,,,,,,,,,,,,,,,,,,,,,,,,,,,,,
,,,p,1,1.5838,0,0.838528892,#f3af84,,right_orange.png,p,1,1,5,0,1,o,right_blue.png,right_orange.png,p,left,6058bee6f83bac3e977d4c0b,001,2021-08-09_10h17.19.949,arrow_simon_norep,2021.1.2,Win32,60.58035985,,,,,,,,,,,,,,,,,,,,,,,,,,,,,,,,,,,,,,
,,,o,1,1.2172,0,0.472949824,#a3d0fb,,right_blue.png,o,1,2,6,0,1,o,right_blue.png,right_orange.png,p,left,6058bee6f83bac3e977d4c0b,001,2021-08-09_10h17.19.949,arrow_simon_norep,2021.1.2,Win32,60.58035985,,,,,,,,,,,,,,,,,,,,,,,,,,,,,,,,,,,,,,
,,,p,1,0.8187,0,0.420293456,#f3af84,,right_orange.png,p,1,3,7,1,1,o,right_blue.png,right_orange.png,p,right,6058bee6f83bac3e977d4c0b,001,2021-08-09_10h17.19.949,arrow_simon_norep,2021.1.2,Win32,60.58035985,,,,,,,,,,,,,,,,,,,,,,,,,,,,,,,,,,,,,,
,,,w,1,1.0682,0,0.455724905,#a3d0fb,,left_blue.png,w,2,0,8,2,1,w,left_blue.png,left_orange.png,q,left,6058bee6f83bac3e977d4c0b,001,2021-08-09_10h17.19.949,arrow_simon_norep,2021.1.2,Win32,60.58035985,,,,,,,,,,,,,,,,,,,,,,,,,,,,,,,,,,,,,,
,,,q,1,1.4044,0,0.733579804,#f3af84,,left_orange.png,q,2,1,9,3,1,w,left_blue.png,left_orange.png,q,right,6058bee6f83bac3e977d4c0b,001,2021-08-09_10h17.19.949,arrow_simon_norep,2021.1.2,Win32,60.58035985,,,,,,,,,,,,,,,,,,,,,,,,,,,,,,,,,,,,,,
,,,w,1,1.4595,0,0.667639114,#a3d0fb,,left_blue.png,w,2,2,10,3,1,w,left_blue.png,left_orange.png,q,right,6058bee6f83bac3e977d4c0b,001,2021-08-09_10h17.19.949,arrow_simon_norep,2021.1.2,Win32,60.58035985,,,,,,,,,,,,,,,,,,,,,,,,,,,,,,,,,,,,,,
,,,p,1,0.7493,0,0.156378084,#f3af84,,right_orange.png,p,2,3,11,0,1,o,right_blue.png,right_orange.png,p,left,6058bee6f83bac3e977d4c0b,001,2021-08-09_10h17.19.949,arrow_simon_norep,2021.1.2,Win32,60.58035985,,,,,,,,,,,,,,,,,,,,,,,,,,,,,,,,,,,,,,
,,,o,1,1.668,0,0.958475695,#a3d0fb,,right_blue.png,o,3,0,12,0,1,o,right_blue.png,right_orange.png,p,left,6058bee6f83bac3e977d4c0b,001,2021-08-09_10h17.19.949,arrow_simon_norep,2021.1.2,Win32,60.58035985,,,,,,,,,,,,,,,,,,,,,,,,,,,,,,,,,,,,,,
,,,q,1,1.242,0,0.588493404,#f3af84,,left_orange.png,q,3,1,13,2,1,w,left_blue.png,left_orange.png,q,left,6058bee6f83bac3e977d4c0b,001,2021-08-09_10h17.19.949,arrow_simon_norep,2021.1.2,Win32,60.58035985,,,,,,,,,,,,,,,,,,,,,,,,,,,,,,,,,,,,,,
,,,p,0,1.1746,1,0.579264826,#a3d0fb,,right_blue.png,o,3,2,14,1,1,o,right_blue.png,right_orange.png,p,right,6058bee6f83bac3e977d4c0b,001,2021-08-09_10h17.19.949,arrow_simon_norep,2021.1.2,Win32,60.58035985,,,,,,,,,,,,,,,,,,,,,,,,,,,,,,,,,,,,,,
,,,p,1,0.868,0,0.241174794,#f3af84,,right_orange.png,p,3,3,15,1,1,o,right_blue.png,right_orange.png,p,right,6058bee6f83bac3e977d4c0b,001,2021-08-09_10h17.19.949,arrow_simon_norep,2021.1.2,Win32,60.58035985,,,,,,,,,,,,,,,,,,,,,,,,,,,,,,,,,,,,,,
,,,w,1,1.2346,0,0.592741157,#a3d0fb,,left_blue.png,w,4,0,16,3,1,w,left_blue.png,left_orange.png,q,right,6058bee6f83bac3e977d4c0b,001,2021-08-09_10h17.19.949,arrow_simon_norep,2021.1.2,Win32,60.58035985,,,,,,,,,,,,,,,,,,,,,,,,,,,,,,,,,,,,,,
,,,w,0,1.1181,1,0.579292151,#f3af84,,left_orange.png,q,4,1,17,3,1,w,left_blue.png,left_orange.png,q,right,6058bee6f83bac3e977d4c0b,001,2021-08-09_10h17.19.949,arrow_simon_norep,2021.1.2,Win32,60.58035985,,,,,,,,,,,,,,,,,,,,,,,,,,,,,,,,,,,,,,
,,,w,1,0.951,0,0.392634441,#a3d0fb,,left_blue.png,w,4,2,18,3,1,w,left_blue.png,left_orange.png,q,right,6058bee6f83bac3e977d4c0b,001,2021-08-09_10h17.19.949,arrow_simon_norep,2021.1.2,Win32,60.58035985,,,,,,,,,,,,,,,,,,,,,,,,,,,,,,,,,,,,,,
,,,p,1,1.2168,0,0.679828609,#f3af84,,right_orange.png,p,4,3,19,0,1,o,right_blue.png,right_orange.png,p,left,6058bee6f83bac3e977d4c0b,001,2021-08-09_10h17.19.949,arrow_simon_norep,2021.1.2,Win32,60.58035985,,,,,,,,,,,,,,,,,,,,,,,,,,,,,,,,,,,,,,
,,,w,1,1.7507,0,0.939207222,#a3d0fb,,left_blue.png,w,5,0,20,2,1,w,left_blue.png,left_orange.png,q,left,6058bee6f83bac3e977d4c0b,001,2021-08-09_10h17.19.949,arrow_simon_norep,2021.1.2,Win32,60.58035985,,,,,,,,,,,,,,,,,,,,,,,,,,,,,,,,,,,,,,
,,,q,1,0.8202,0,0.10385697,#f3af84,,left_orange.png,q,5,1,21,3,1,w,left_blue.png,left_orange.png,q,right,6058bee6f83bac3e977d4c0b,001,2021-08-09_10h17.19.949,arrow_simon_norep,2021.1.2,Win32,60.58035985,,,,,,,,,,,,,,,,,,,,,,,,,,,,,,,,,,,,,,
,,,o,1,1.4725,0,0.84536829,#a3d0fb,,right_blue.png,o,5,2,22,0,1,o,right_blue.png,right_orange.png,p,left,6058bee6f83bac3e977d4c0b,001,2021-08-09_10h17.19.949,arrow_simon_norep,2021.1.2,Win32,60.58035985,,,,,,,,,,,,,,,,,,,,,,,,,,,,,,,,,,,,,,
,,,q,1,0.7292,0,0.220084892,#f3af84,,left_orange.png,q,5,3,23,2,1,w,left_blue.png,left_orange.png,q,left,6058bee6f83bac3e977d4c0b,001,2021-08-09_10h17.19.949,arrow_simon_norep,2021.1.2,Win32,60.58035985,,,,,,,,,,,,,,,,,,,,,,,,,,,,,,,,,,,,,,
,,,o,1,1.6393,0,0.828001914,#a3d0fb,,right_blue.png,o,6,0,24,0,1,o,right_blue.png,right_orange.png,p,left,6058bee6f83bac3e977d4c0b,001,2021-08-09_10h17.19.949,arrow_simon_norep,2021.1.2,Win32,60.58035985,,,,,,,,,,,,,,,,,,,,,,,,,,,,,,,,,,,,,,
,,,p,1,1.5845,0,0.646295693,#f3af84,,right_orange.png,p,6,1,25,1,1,o,right_blue.png,right_orange.png,p,right,6058bee6f83bac3e977d4c0b,001,2021-08-09_10h17.19.949,arrow_simon_norep,2021.1.2,Win32,60.58035985,,,,,,,,,,,,,,,,,,,,,,,,,,,,,,,,,,,,,,
,,,o,1,1.5684,0,0.69949985,#a3d0fb,,right_blue.png,o,6,2,26,1,1,o,right_blue.png,right_orange.png,p,right,6058bee6f83bac3e977d4c0b,001,2021-08-09_10h17.19.949,arrow_simon_norep,2021.1.2,Win32,60.58035985,,,,,,,,,,,,,,,,,,,,,,,,,,,,,,,,,,,,,,
,,,w,0,1.5845,1,0.736915628,#f3af84,,left_orange.png,q,6,3,27,3,1,w,left_blue.png,left_orange.png,q,right,6058bee6f83bac3e977d4c0b,001,2021-08-09_10h17.19.949,arrow_simon_norep,2021.1.2,Win32,60.58035985,,,,,,,,,,,,,,,,,,,,,,,,,,,,,,,,,,,,,,
,,,w,1,1.3257,0,0.594300306,#a3d0fb,,left_blue.png,w,7,0,28,2,1,w,left_blue.png,left_orange.png,q,left,6058bee6f83bac3e977d4c0b,001,2021-08-09_10h17.19.949,arrow_simon_norep,2021.1.2,Win32,60.58035985,,,,,,,,,,,,,,,,,,,,,,,,,,,,,,,,,,,,,,
,,,p,1,1.3677,0,0.620783547,#f3af84,,right_orange.png,p,7,1,29,1,1,o,right_blue.png,right_orange.png,p,right,6058bee6f83bac3e977d4c0b,001,2021-08-09_10h17.19.949,arrow_simon_norep,2021.1.2,Win32,60.58035985,,,,,,,,,,,,,,,,,,,,,,,,,,,,,,,,,,,,,,
,,,o,1,1.1173,0,0.397410517,#a3d0fb,,right_blue.png,o,7,2,30,0,1,o,right_blue.png,right_orange.png,p,left,6058bee6f83bac3e977d4c0b,001,2021-08-09_10h17.19.949,arrow_simon_norep,2021.1.2,Win32,60.58035985,,,,,,,,,,,,,,,,,,,,,,,,,,,,,,,,,,,,,,
,,,q,1,1.5751,0,0.619483306,#f3af84,,left_orange.png,q,7,3,31,3,1,w,left_blue.png,left_orange.png,q,right,6058bee6f83bac3e977d4c0b,001,2021-08-09_10h17.19.949,arrow_simon_norep,2021.1.2,Win32,60.58035985,,,,,,,,,,,,,,,,,,,,,,,,,,,,,,,,,,,,,,
,,,o,1,1.002,0,0.354656427,#a3d0fb,,right_blue.png,o,8,0,32,0,1,o,right_blue.png,right_orange.png,p,left,6058bee6f83bac3e977d4c0b,001,2021-08-09_10h17.19.949,arrow_simon_norep,2021.1.2,Win32,60.58035985,,,,,,,,,,,,,,,,,,,,,,,,,,,,,,,,,,,,,,
,,,q,1,1.4518,0,0.880335744,#f3af84,,left_orange.png,q,8,1,33,2,1,w,left_blue.png,left_orange.png,q,left,6058bee6f83bac3e977d4c0b,001,2021-08-09_10h17.19.949,arrow_simon_norep,2021.1.2,Win32,60.58035985,,,,,,,,,,,,,,,,,,,,,,,,,,,,,,,,,,,,,,
,,,w,1,1.3672,0,0.690545052,#a3d0fb,,left_blue.png,w,8,2,34,2,1,w,left_blue.png,left_orange.png,q,left,6058bee6f83bac3e977d4c0b,001,2021-08-09_10h17.19.949,arrow_simon_norep,2021.1.2,Win32,60.58035985,,,,,,,,,,,,,,,,,,,,,,,,,,,,,,,,,,,,,,
,,,p,1,1.4202,0,0.900116331,#f3af84,,right_orange.png,p,8,3,35,0,1,o,right_blue.png,right_orange.png,p,left,6058bee6f83bac3e977d4c0b,001,2021-08-09_10h17.19.949,arrow_simon_norep,2021.1.2,Win32,60.58035985,,,,,,,,,,,,,,,,,,,,,,,,,,,,,,,,,,,,,,
,,,w,1,1.7076,0,0.863613129,#a3d0fb,,left_blue.png,w,9,0,36,2,1,w,left_blue.png,left_orange.png,q,left,6058bee6f83bac3e977d4c0b,001,2021-08-09_10h17.19.949,arrow_simon_norep,2021.1.2,Win32,60.58035985,,,,,,,,,,,,,,,,,,,,,,,,,,,,,,,,,,,,,,
,,,p,1,1.0753,0,0.536266156,#f3af84,,right_orange.png,p,9,1,37,1,1,o,right_blue.png,right_orange.png,p,right,6058bee6f83bac3e977d4c0b,001,2021-08-09_10h17.19.949,arrow_simon_norep,2021.1.2,Win32,60.58035985,,,,,,,,,,,,,,,,,,,,,,,,,,,,,,,,,,,,,,
,,,o,1,1.1012,0,0.261416219,#a3d0fb,,right_blue.png,o,9,2,38,1,1,o,right_blue.png,right_orange.png,p,right,6058bee6f83bac3e977d4c0b,001,2021-08-09_10h17.19.949,arrow_simon_norep,2021.1.2,Win32,60.58035985,,,,,,,,,,,,,,,,,,,,,,,,,,,,,,,,,,,,,,
,,,p,1,1.3,0,0.33558703,#f3af84,,right_orange.png,p,9,3,39,0,1,o,right_blue.png,right_orange.png,p,left,6058bee6f83bac3e977d4c0b,001,2021-08-09_10h17.19.949,arrow_simon_norep,2021.1.2,Win32,60.58035985,,,,,,,,,,,,,,,,,,,,,,,,,,,,,,,,,,,,,,
,,,w,1,1.2528,0,0.596507509,#a3d0fb,,left_blue.png,w,10,0,40,2,1,w,left_blue.png,left_orange.png,q,left,6058bee6f83bac3e977d4c0b,001,2021-08-09_10h17.19.949,arrow_simon_norep,2021.1.2,Win32,60.58035985,,,,,,,,,,,,,,,,,,,,,,,,,,,,,,,,,,,,,,
,,,p,1,1.5902,0,0.904344091,#f3af84,,right_orange.png,p,10,1,41,0,1,o,right_blue.png,right_orange.png,p,left,6058bee6f83bac3e977d4c0b,001,2021-08-09_10h17.19.949,arrow_simon_norep,2021.1.2,Win32,60.58035985,,,,,,,,,,,,,,,,,,,,,,,,,,,,,,,,,,,,,,
,,,o,1,0.7732,0,0.21500649,#a3d0fb,,right_blue.png,o,10,2,42,1,1,o,right_blue.png,right_orange.png,p,right,6058bee6f83bac3e977d4c0b,001,2021-08-09_10h17.19.949,arrow_simon_norep,2021.1.2,Win32,60.58035985,,,,,,,,,,,,,,,,,,,,,,,,,,,,,,,,,,,,,,
,,,p,1,1.3721,0,0.247504947,#f3af84,,right_orange.png,p,10,3,43,0,1,o,right_blue.png,right_orange.png,p,left,6058bee6f83bac3e977d4c0b,001,2021-08-09_10h17.19.949,arrow_simon_norep,2021.1.2,Win32,60.58035985,,,,,,,,,,,,,,,,,,,,,,,,,,,,,,,,,,,,,,
,,,o,1,1.1519,0,0.424443555,#a3d0fb,,right_blue.png,o,11,0,44,1,1,o,right_blue.png,right_orange.png,p,right,6058bee6f83bac3e977d4c0b,001,2021-08-09_10h17.19.949,arrow_simon_norep,2021.1.2,Win32,60.58035985,,,,,,,,,,,,,,,,,,,,,,,,,,,,,,,,,,,,,,
,,,q,1,0.9093,0,0.227842772,#f3af84,,left_orange.png,q,11,1,45,2,1,w,left_blue.png,left_orange.png,q,left,6058bee6f83bac3e977d4c0b,001,2021-08-09_10h17.19.949,arrow_simon_norep,2021.1.2,Win32,60.58035985,,,,,,,,,,,,,,,,,,,,,,,,,,,,,,,,,,,,,,
,,,w,1,1.1287,0,0.428140628,#a3d0fb,,left_blue.png,w,11,2,46,3,1,w,left_blue.png,left_orange.png,q,right,6058bee6f83bac3e977d4c0b,001,2021-08-09_10h17.19.949,arrow_simon_norep,2021.1.2,Win32,60.58035985,,,,,,,,,,,,,,,,,,,,,,,,,,,,,,,,,,,,,,
,,,p,1,1.0177,0,0.559209696,#f3af84,,right_orange.png,p,11,3,47,1,1,o,right_blue.png,right_orange.png,p,right,6058bee6f83bac3e977d4c0b,001,2021-08-09_10h17.19.949,arrow_simon_norep,2021.1.2,Win32,60.58035985,,,,,,,,,,,,,,,,,,,,,,,,,,,,,,,,,,,,,,
,,,o,1,1.1013,0,0.456766369,#a3d0fb,,right_blue.png,o,12,0,48,1,1,o,right_blue.png,right_orange.png,p,right,6058bee6f83bac3e977d4c0b,001,2021-08-09_10h17.19.949,arrow_simon_norep,2021.1.2,Win32,60.58035985,,,,,,,,,,,,,,,,,,,,,,,,,,,,,,,,,,,,,,
,,,q,1,0.6677,0,0.172552312,#f3af84,,left_orange.png,q,12,1,49,3,1,w,left_blue.png,left_orange.png,q,right,6058bee6f83bac3e977d4c0b,001,2021-08-09_10h17.19.949,arrow_simon_norep,2021.1.2,Win32,60.58035985,,,,,,,,,,,,,,,,,,,,,,,,,,,,,,,,,,,,,,
,,,o,1,0.8686,0,0.417918745,#a3d0fb,,right_blue.png,o,12,2,50,0,1,o,right_blue.png,right_orange.png,p,left,6058bee6f83bac3e977d4c0b,001,2021-08-09_10h17.19.949,arrow_simon_norep,2021.1.2,Win32,60.58035985,,,,,,,,,,,,,,,,,,,,,,,,,,,,,,,,,,,,,,
,,,p,1,0.9882,0,0.503857416,#f3af84,,right_orange.png,p,12,3,51,1,1,o,right_blue.png,right_orange.png,p,right,6058bee6f83bac3e977d4c0b,001,2021-08-09_10h17.19.949,arrow_simon_norep,2021.1.2,Win32,60.58035985,,,,,,,,,,,,,,,,,,,,,,,,,,,,,,,,,,,,,,
,,,w,1,1.4009,0,0.465180812,#a3d0fb,,left_blue.png,w,13,0,52,3,1,w,left_blue.png,left_orange.png,q,right,6058bee6f83bac3e977d4c0b,001,2021-08-09_10h17.19.949,arrow_simon_norep,2021.1.2,Win32,60.58035985,,,,,,,,,,,,,,,,,,,,,,,,,,,,,,,,,,,,,,
,,,q,1,1.4924,0,0.798580441,#f3af84,,left_orange.png,q,13,1,53,3,1,w,left_blue.png,left_orange.png,q,right,6058bee6f83bac3e977d4c0b,001,2021-08-09_10h17.19.949,arrow_simon_norep,2021.1.2,Win32,60.58035985,,,,,,,,,,,,,,,,,,,,,,,,,,,,,,,,,,,,,,
,,,w,1,1.0351,0,0.303823393,#a3d0fb,,left_blue.png,w,13,2,54,2,1,w,left_blue.png,left_orange.png,q,left,6058bee6f83bac3e977d4c0b,001,2021-08-09_10h17.19.949,arrow_simon_norep,2021.1.2,Win32,60.58035985,,,,,,,,,,,,,,,,,,,,,,,,,,,,,,,,,,,,,,
,,,q,1,0.701,0,0.078230149,#f3af84,,left_orange.png,q,13,3,55,3,1,w,left_blue.png,left_orange.png,q,right,6058bee6f83bac3e977d4c0b,001,2021-08-09_10h17.19.949,arrow_simon_norep,2021.1.2,Win32,60.58035985,,,,,,,,,,,,,,,,,,,,,,,,,,,,,,,,,,,,,,
,,,w,1,1.5673,0,0.901017827,#a3d0fb,,left_blue.png,w,14,0,56,3,1,w,left_blue.png,left_orange.png,q,right,6058bee6f83bac3e977d4c0b,001,2021-08-09_10h17.19.949,arrow_simon_norep,2021.1.2,Win32,60.58035985,,,,,,,,,,,,,,,,,,,,,,,,,,,,,,,,,,,,,,
,,,q,1,0.7756,0,0.350764015,#f3af84,,left_orange.png,q,14,1,57,2,1,w,left_blue.png,left_orange.png,q,left,6058bee6f83bac3e977d4c0b,001,2021-08-09_10h17.19.949,arrow_simon_norep,2021.1.2,Win32,60.58035985,,,,,,,,,,,,,,,,,,,,,,,,,,,,,,,,,,,,,,
,,,w,1,0.7193,0,0.034320408,#a3d0fb,,left_blue.png,w,14,2,58,2,1,w,left_blue.png,left_orange.png,q,left,6058bee6f83bac3e977d4c0b,001,2021-08-09_10h17.19.949,arrow_simon_norep,2021.1.2,Win32,60.58035985,,,,,,,,,,,,,,,,,,,,,,,,,,,,,,,,,,,,,,
,,,q,1,1.3676,0,0.805487946,#f3af84,,left_orange.png,q,14,3,59,3,1,w,left_blue.png,left_orange.png,q,right,6058bee6f83bac3e977d4c0b,001,2021-08-09_10h17.19.949,arrow_simon_norep,2021.1.2,Win32,60.58035985,,,,,,,,,,,,,,,,,,,,,,,,,,,,,,,,,,,,,,
,,,,,,,,,,,,,,,,,,,,,,6058bee6f83bac3e977d4c0b,001,2021-08-09_10h17.19.949,arrow_simon_norep,2021.1.2,Win32,60.58035985,space,1.8733,1,0,1,0,1,,,,,,,,,,,,,,,,,,,,,,,,,,,,,,,
,,,,,,,,,,,,,,,,,,,,,,6058bee6f83bac3e977d4c0b,001,2021-08-09_10h17.19.949,arrow_simon_norep,2021.1.2,Win32,60.58035985,,,,,,,,space,0,283.0043,o,2.7923,0,0,0,0,1,,,,,,,,,,,,,,,,,,,,,
,,,,,,,,,,,,,,,,,,,,,,6058bee6f83bac3e977d4c0b,001,2021-08-09_10h17.19.949,arrow_simon_norep,2021.1.2,Win32,60.58035985,,,,,,,,,,,o,2.6519,1,0,1,0,1,,,,,,,,,,,,,,,,,,,,,
,,,,,,,,,,,,,,,,,,,,,,6058bee6f83bac3e977d4c0b,001,2021-08-09_10h17.19.949,arrow_simon_norep,2021.1.2,Win32,60.58035985,,,,,,,,,,,o,2.5909,2,0,2,0,1,,,,,,,,,,,,,,,,,,,,,
,,,,,,,,,,,,,,,,,,,,,,6058bee6f83bac3e977d4c0b,001,2021-08-09_10h17.19.949,arrow_simon_norep,2021.1.2,Win32,60.58035985,,,,,,,,,,,p,2.5199,3,0,3,0,1,,,,,,,,,,,,,,,,,,,,,
,,,,,,,,,,,,,,,,,,,,,,6058bee6f83bac3e977d4c0b,001,2021-08-09_10h17.19.949,arrow_simon_norep,2021.1.2,Win32,60.58035985,,,,,,,,,,,p,2.601,4,0,4,0,1,,,,,,,,,,,,,,,,,,,,,
,,,,,,,,,,,,,,,,,,,,,,6058bee6f83bac3e977d4c0b,001,2021-08-09_10h17.19.949,arrow_simon_norep,2021.1.2,Win32,60.58035985,,,,,,,,,,,p,2.5841,5,0,5,0,1,,,,,,,,,,,,,,,,,,,,,
,,,,,,,,,,,,,,,,,,,,,,6058bee6f83bac3e977d4c0b,001,2021-08-09_10h17.19.949,arrow_simon_norep,2021.1.2,Win32,60.58035985,,,,,,,,,,,p,2.5154,6,0,6,0,1,,,,,,,,,,,,,,,,,,,,,
,,,,,,,,,,,,,,,,,,,,,,6058bee6f83bac3e977d4c0b,001,2021-08-09_10h17.19.949,arrow_simon_norep,2021.1.2,Win32,60.58035985,,,,,,,,,,,p,2.493,7,0,7,0,1,,,,,,,,,,,,,,,,,,,,,
,,,,,,,,,,,,,,,,,,,,,,6058bee6f83bac3e977d4c0b,001,2021-08-09_10h17.19.949,arrow_simon_norep,2021.1.2,Win32,60.58035985,,,,,,,,,,,p,2.5371,8,0,8,0,1,,,,,,,,,,,,,,,,,,,,,
,,,,,,,,,,,,,,,,,,,,,,6058bee6f83bac3e977d4c0b,001,2021-08-09_10h17.19.949,arrow_simon_norep,2021.1.2,Win32,60.58035985,,,,,,,,,,,p,2.4898,9,0,9,0,1,,,,,,,,,,,,,,,,,,,,,
,,,,,,,,,,,,,,,,,,,,,,6058bee6f83bac3e977d4c0b,001,2021-08-09_10h17.19.949,arrow_simon_norep,2021.1.2,Win32,60.58035985,,,,,,,,,,,p,2.5013,10,0,10,0,1,,,,,,,,,,,,,,,,,,,,,
,,,,,,,,,,,,,,,,,,,,,,6058bee6f83bac3e977d4c0b,001,2021-08-09_10h17.19.949,arrow_simon_norep,2021.1.2,Win32,60.58035985,,,,,,,,,,,p,2.5163,11,0,11,0,1,,,,,,,,,,,,,,,,,,,,,
,,,,,,,,,,,,,,,,,,,,,,6058bee6f83bac3e977d4c0b,001,2021-08-09_10h17.19.949,arrow_simon_norep,2021.1.2,Win32,60.58035985,,,,,,,,,,,p,2.4946,12,0,12,0,1,,,,,,,,,,,,,,,,,,,,,
,,,,,,,,,,,,,,,,,,,,,,6058bee6f83bac3e977d4c0b,001,2021-08-09_10h17.19.949,arrow_simon_norep,2021.1.2,Win32,60.58035985,,,,,,,,,,,p,2.5503,13,0,13,0,1,,,,,,,,,,,,,,,,,,,,,
,,,,,,,,,,,,,,,,,,,,,,6058bee6f83bac3e977d4c0b,001,2021-08-09_10h17.19.949,arrow_simon_norep,2021.1.2,Win32,60.58035985,,,,,,,,,,,p,2.5016,14,0,14,0,1,,,,,,,,,,,,,,,,,,,,,
,,,,,,,,,,,,,,,,,,,,,,6058bee6f83bac3e977d4c0b,001,2021-08-09_10h17.19.949,arrow_simon_norep,2021.1.2,Win32,60.58035985,,,,,,,,,,,p,2.4768,15,0,15,0,1,,,,,,,,,,,,,,,,,,,,,
,,,,,,,,,,,,,,,,,,,,,,6058bee6f83bac3e977d4c0b,001,2021-08-09_10h17.19.949,arrow_simon_norep,2021.1.2,Win32,60.58035985,,,,,,,,,,,p,2.4707,16,0,16,0,1,,,,,,,,,,,,,,,,,,,,,
,,,,,,,,,,,,,,,,,,,,,,6058bee6f83bac3e977d4c0b,001,2021-08-09_10h17.19.949,arrow_simon_norep,2021.1.2,Win32,60.58035985,,,,,,,,,,,p,2.471,17,0,17,0,1,,,,,,,,,,,,,,,,,,,,,
,,,,,,,,,,,,,,,,,,,,,,6058bee6f83bac3e977d4c0b,001,2021-08-09_10h17.19.949,arrow_simon_norep,2021.1.2,Win32,60.58035985,,,,,,,,,,,o,2.5597,18,0,18,0,1,,,,,,,,,,,,,,,,,,,,,
,,,,,,,,,,,,,,,,,,,,,,6058bee6f83bac3e977d4c0b,001,2021-08-09_10h17.19.949,arrow_simon_norep,2021.1.2,Win32,60.58035985,,,,,,,,,,,p,2.5934,19,0,19,0,1,,,,,,,,,,,,,,,,,,,,,
,,,,,,,,,,,,,,,,,,,,,,6058bee6f83bac3e977d4c0b,001,2021-08-09_10h17.19.949,arrow_simon_norep,2021.1.2,Win32,60.58035985,,,,,,,,,,,o,2.5171,20,0,20,0,1,,,,,,,,,,,,,,,,,,,,,
,,,,,,,,,,,,,,,,,,,,,,6058bee6f83bac3e977d4c0b,001,2021-08-09_10h17.19.949,arrow_simon_norep,2021.1.2,Win32,60.58035985,,,,,,,,,,,o,2.5622,21,0,21,0,1,,,,,,,,,,,,,,,,,,,,,
,,,,,,,,,,,,,,,,,,,,,,6058bee6f83bac3e977d4c0b,001,2021-08-09_10h17.19.949,arrow_simon_norep,2021.1.2,Win32,60.58035985,,,,,,,,,,,o,2.5085,22,0,22,0,1,,,,,,,,,,,,,,,,,,,,,
,,,,,,,,,,,,,,,,,,,,,,6058bee6f83bac3e977d4c0b,001,2021-08-09_10h17.19.949,arrow_simon_norep,2021.1.2,Win32,60.58035985,,,,,,,,,,,o,2.4929,23,0,23,0,1,,,,,,,,,,,,,,,,,,,,,
,,,,,,,,,,,,,,,,,,,,,,6058bee6f83bac3e977d4c0b,001,2021-08-09_10h17.19.949,arrow_simon_norep,2021.1.2,Win32,60.58035985,,,,,,,,,,,o,2.5348,24,0,24,0,1,,,,,,,,,,,,,,,,,,,,,
,,,,,,,,,,,,,,,,,,,,,,6058bee6f83bac3e977d4c0b,001,2021-08-09_10h17.19.949,arrow_simon_norep,2021.1.2,Win32,60.58035985,,,,,,,,,,,o,2.5419,25,0,25,0,1,,,,,,,,,,,,,,,,,,,,,
,,,,,,,,,,,,,,,,,,,,,,6058bee6f83bac3e977d4c0b,001,2021-08-09_10h17.19.949,arrow_simon_norep,2021.1.2,Win32,60.58035985,,,,,,,,,,,o,2.4858,26,0,26,0,1,,,,,,,,,,,,,,,,,,,,,
,,,,,,,,,,,,,,,,,,,,,,6058bee6f83bac3e977d4c0b,001,2021-08-09_10h17.19.949,arrow_simon_norep,2021.1.2,Win32,60.58035985,,,,,,,,,,,o,2.469,27,0,27,0,1,,,,,,,,,,,,,,,,,,,,,
,,,,,,,,,,,,,,,,,,,,,,6058bee6f83bac3e977d4c0b,001,2021-08-09_10h17.19.949,arrow_simon_norep,2021.1.2,Win32,60.58035985,,,,,,,,,,,o,2.4721,28,0,28,0,1,,,,,,,,,,,,,,,,,,,,,
,,,,,,,,,,,,,,,,,,,,,,6058bee6f83bac3e977d4c0b,001,2021-08-09_10h17.19.949,arrow_simon_norep,2021.1.2,Win32,60.58035985,,,,,,,,,,,o,2.4254,29,0,29,0,1,,,,,,,,,,,,,,,,,,,,,
,,,,,,,,,,,,,,,,,,,,,,6058bee6f83bac3e977d4c0b,001,2021-08-09_10h17.19.949,arrow_simon_norep,2021.1.2,Win32,60.58035985,,,,,,,,,,,o,2.4667,30,0,30,0,1,,,,,,,,,,,,,,,,,,,,,
,,,,,,,,,,,,,,,,,,,,,,6058bee6f83bac3e977d4c0b,001,2021-08-09_10h17.19.949,arrow_simon_norep,2021.1.2,Win32,60.58035985,,,,,,,,,,,p,2.4841,31,0,31,0,1,,,,,,,,,,,,,,,,,,,,,
,,,,,,,,,,,,,,,,,,,,,,6058bee6f83bac3e977d4c0b,001,2021-08-09_10h17.19.949,arrow_simon_norep,2021.1.2,Win32,60.58035985,,,,,,,,,,,o,2.5184,32,0,32,0,1,,,,,,,,,,,,,,,,,,,,,
,,,,,,,,,,,,,,,,,,,,,,6058bee6f83bac3e977d4c0b,001,2021-08-09_10h17.19.949,arrow_simon_norep,2021.1.2,Win32,60.58035985,,,,,,,,,,,p,2.5233,33,0,33,0,1,,,,,,,,,,,,,,,,,,,,,
,,,,,,,,,,,,,,,,,,,,,,6058bee6f83bac3e977d4c0b,001,2021-08-09_10h17.19.949,arrow_simon_norep,2021.1.2,Win32,60.58035985,,,,,,,,,,,o,2.484,34,0,34,0,1,,,,,,,,,,,,,,,,,,,,,
,,,,,,,,,,,,,,,,,,,,,,6058bee6f83bac3e977d4c0b,001,2021-08-09_10h17.19.949,arrow_simon_norep,2021.1.2,Win32,60.58035985,,,,,,,,,,,p,2.5269,35,0,35,0,1,,,,,,,,,,,,,,,,,,,,,
,,,,,,,,,,,,,,,,,,,,,,6058bee6f83bac3e977d4c0b,001,2021-08-09_10h17.19.949,arrow_simon_norep,2021.1.2,Win32,60.58035985,,,,,,,,,,,o,2.5008,36,0,36,0,1,,,,,,,,,,,,,,,,,,,,,
,,,,,,,,,,,,,,,,,,,,,,6058bee6f83bac3e977d4c0b,001,2021-08-09_10h17.19.949,arrow_simon_norep,2021.1.2,Win32,60.58035985,,,,,,,,,,,p,2.4848,37,0,37,0,1,,,,,,,,,,,,,,,,,,,,,
,,,,,,,,,,,,,,,,,,,,,,6058bee6f83bac3e977d4c0b,001,2021-08-09_10h17.19.949,arrow_simon_norep,2021.1.2,Win32,60.58035985,,,,,,,,,,,o,2.494,38,0,38,0,1,,,,,,,,,,,,,,,,,,,,,
,,,,,,,,,,,,,,,,,,,,,,6058bee6f83bac3e977d4c0b,001,2021-08-09_10h17.19.949,arrow_simon_norep,2021.1.2,Win32,60.58035985,,,,,,,,,,,p,2.4509,39,0,39,0,1,,,,,,,,,,,,,,,,,,,,,
,,,,,,,,,,,,,,,,,,,,,,6058bee6f83bac3e977d4c0b,001,2021-08-09_10h17.19.949,arrow_simon_norep,2021.1.2,Win32,60.58035985,,,,,,,,,,,o,2.5112,40,0,40,0,1,,,,,,,,,,,,,,,,,,,,,
,,,,,,,,,,,,,,,,,,,,,,6058bee6f83bac3e977d4c0b,001,2021-08-09_10h17.19.949,arrow_simon_norep,2021.1.2,Win32,60.58035985,,,,,,,,,,,p,2.4762,41,0,41,0,1,,,,,,,,,,,,,,,,,,,,,
,,,,,,,,,,,,,,,,,,,,,,6058bee6f83bac3e977d4c0b,001,2021-08-09_10h17.19.949,arrow_simon_norep,2021.1.2,Win32,60.58035985,,,,,,,,,,,o,2.4706,42,0,42,0,1,,,,,,,,,,,,,,,,,,,,,
,,,,,,,,,,,,,,,,,,,,,,6058bee6f83bac3e977d4c0b,001,2021-08-09_10h17.19.949,arrow_simon_norep,2021.1.2,Win32,60.58035985,,,,,,,,,,,p,2.4694,43,0,43,0,1,,,,,,,,,,,,,,,,,,,,,
,,,,,,,,,,,,,,,,,,,,,,6058bee6f83bac3e977d4c0b,001,2021-08-09_10h17.19.949,arrow_simon_norep,2021.1.2,Win32,60.58035985,,,,,,,,,,,o,2.493,44,0,44,0,1,,,,,,,,,,,,,,,,,,,,,
,,,,,,,,,,,,,,,,,,,,,,6058bee6f83bac3e977d4c0b,001,2021-08-09_10h17.19.949,arrow_simon_norep,2021.1.2,Win32,60.58035985,,,,,,,,,,,p,2.517,45,0,45,0,1,,,,,,,,,,,,,,,,,,,,,
,,,,,,,,,,,,,,,,,,,,,,6058bee6f83bac3e977d4c0b,001,2021-08-09_10h17.19.949,arrow_simon_norep,2021.1.2,Win32,60.58035985,,,,,,,,,,,o,2.4842,46,0,46,0,1,,,,,,,,,,,,,,,,,,,,,
,,,,,,,,,,,,,,,,,,,,,,6058bee6f83bac3e977d4c0b,001,2021-08-09_10h17.19.949,arrow_simon_norep,2021.1.2,Win32,60.58035985,,,,,,,,,,,p,2.505,47,0,47,0,1,,,,,,,,,,,,,,,,,,,,,
,,,,,,,,,,,,,,,,,,,,,,6058bee6f83bac3e977d4c0b,001,2021-08-09_10h17.19.949,arrow_simon_norep,2021.1.2,Win32,60.58035985,,,,,,,,,,,o,2.5164,48,0,48,0,1,,,,,,,,,,,,,,,,,,,,,
,,,,,,,,,,,,,,,,,,,,,,6058bee6f83bac3e977d4c0b,001,2021-08-09_10h17.19.949,arrow_simon_norep,2021.1.2,Win32,60.58035985,,,,,,,,,,,p,2.4843,49,0,49,0,1,,,,,,,,,,,,,,,,,,,,,
,,,,,,,,,,,,,,,,,,,,,,6058bee6f83bac3e977d4c0b,001,2021-08-09_10h17.19.949,arrow_simon_norep,2021.1.2,Win32,60.58035985,,,,,,,,,,,o,2.5176,50,0,50,0,1,,,,,,,,,,,,,,,,,,,,,
,,,,,,,,,,,,,,,,,,,,,,6058bee6f83bac3e977d4c0b,001,2021-08-09_10h17.19.949,arrow_simon_norep,2021.1.2,Win32,60.58035985,,,,,,,,,,,p,2.4514,51,0,51,0,1,,,,,,,,,,,,,,,,,,,,,
,,,,,,,,,,,,,,,,,,,,,,6058bee6f83bac3e977d4c0b,001,2021-08-09_10h17.19.949,arrow_simon_norep,2021.1.2,Win32,60.58035985,,,,,,,,,,,o,2.4754,52,0,52,0,1,,,,,,,,,,,,,,,,,,,,,
,,,,,,,,,,,,,,,,,,,,,,6058bee6f83bac3e977d4c0b,001,2021-08-09_10h17.19.949,arrow_simon_norep,2021.1.2,Win32,60.58035985,,,,,,,,,,,p,2.5366,53,0,53,0,1,,,,,,,,,,,,,,,,,,,,,
,,,,,,,,,,,,,,,,,,,,,,6058bee6f83bac3e977d4c0b,001,2021-08-09_10h17.19.949,arrow_simon_norep,2021.1.2,Win32,60.58035985,,,,,,,,,,,w,2.5851,54,0,54,0,1,,,,,,,,,,,,,,,,,,,,,
,,,,,,,,,,,,,,,,,,,,,,6058bee6f83bac3e977d4c0b,001,2021-08-09_10h17.19.949,arrow_simon_norep,2021.1.2,Win32,60.58035985,,,,,,,,,,,q,2.551,55,0,55,0,1,,,,,,,,,,,,,,,,,,,,,
,,,,,,,,,,,,,,,,,,,,,,6058bee6f83bac3e977d4c0b,001,2021-08-09_10h17.19.949,arrow_simon_norep,2021.1.2,Win32,60.58035985,,,,,,,,,,,w,2.5857,56,0,56,0,1,,,,,,,,,,,,,,,,,,,,,
,,,,,,,,,,,,,,,,,,,,,,6058bee6f83bac3e977d4c0b,001,2021-08-09_10h17.19.949,arrow_simon_norep,2021.1.2,Win32,60.58035985,,,,,,,,,,,q,2.5839,57,0,57,0,1,,,,,,,,,,,,,,,,,,,,,
,,,,,,,,,,,,,,,,,,,,,,6058bee6f83bac3e977d4c0b,001,2021-08-09_10h17.19.949,arrow_simon_norep,2021.1.2,Win32,60.58035985,,,,,,,,,,,w,2.6015,58,0,58,0,1,,,,,,,,,,,,,,,,,,,,,
,,,,,,,,,,,,,,,,,,,,,,6058bee6f83bac3e977d4c0b,001,2021-08-09_10h17.19.949,arrow_simon_norep,2021.1.2,Win32,60.58035985,,,,,,,,,,,q,2.4843,59,0,59,0,1,,,,,,,,,,,,,,,,,,,,,
,,,,,,0,2.498846391,#a3d0fb,,right_blue.png,o,,,,,,o,right_blue.png,right_orange.png,p,right,6058bee6f83bac3e977d4c0b,001,2021-08-09_10h17.19.949,arrow_simon_norep,2021.1.2,Win32,60.58035985,,,,,,,,,,,,,,,,,,space,0,366.3979,o,1,2.4172,1,TRUE,FALSE,0,0,0,1,1,,,,,,,
,,,,,,0,1.722536036,#f3af84,,right_orange.png,p,,,,,,o,right_blue.png,right_orange.png,p,right,6058bee6f83bac3e977d4c0b,001,2021-08-09_10h17.19.949,arrow_simon_norep,2021.1.2,Win32,60.58035985,,,,,,,,,,,,,,,,,,,,,p,1,1.635,2,TRUE,FALSE,0,1,1,1,1,,,,,,,
,,,,,,0,1.762843789,#a3d0fb,,left_blue.png,w,,,,,,w,left_blue.png,left_orange.png,q,left,6058bee6f83bac3e977d4c0b,001,2021-08-09_10h17.19.949,arrow_simon_norep,2021.1.2,Win32,60.58035985,,,,,,,,,,,,,,,,,,,,,w,1,6.1734,3,TRUE,FALSE,0,2,2,2,1,,,,,,,
,,,,,,0,2.012958456,#f3af84,,left_orange.png,q,,,,,,w,left_blue.png,left_orange.png,q,right,6058bee6f83bac3e977d4c0b,001,2021-08-09_10h17.19.949,arrow_simon_norep,2021.1.2,Win32,60.58035985,,,,,,,,,,,,,,,,,,,,,q,1,1.5448,4,FALSE,FALSE,0,3,3,3,1,,,,,,,
,,,,,,0,1.643379333,#a3d0fb,,right_blue.png,o,,,,,,o,right_blue.png,right_orange.png,p,left,6058bee6f83bac3e977d4c0b,001,2021-08-09_10h17.19.949,arrow_simon_norep,2021.1.2,Win32,60.58035985,,,,,,,,,,,,,,,,,,,,,o,1,1.3699,5,FALSE,TRUE,1,0,4,0,1,,,,,,,
,,,,,,0,1.973649625,#f3af84,,right_orange.png,p,,,,,,o,right_blue.png,right_orange.png,p,left,6058bee6f83bac3e977d4c0b,001,2021-08-09_10h17.19.949,arrow_simon_norep,2021.1.2,Win32,60.58035985,,,,,,,,,,,,,,,,,,,,,p,1,1.5929,6,FALSE,FALSE,1,1,5,0,1,,,,,,,
,,,,,,0,1.884083192,#a3d0fb,,left_blue.png,w,,,,,,w,left_blue.png,left_orange.png,q,left,6058bee6f83bac3e977d4c0b,001,2021-08-09_10h17.19.949,arrow_simon_norep,2021.1.2,Win32,60.58035985,,,,,,,,,,,,,,,,,,,,,w,1,1.7005,7,TRUE,FALSE,1,2,6,2,1,,,,,,,
,,,,,,0,1.879598883,#f3af84,,right_orange.png,p,,,,,,o,right_blue.png,right_orange.png,p,right,6058bee6f83bac3e977d4c0b,001,2021-08-09_10h17.19.949,arrow_simon_norep,2021.1.2,Win32,60.58035985,,,,,,,,,,,,,,,,,,,,,p,1,1.534,8,FALSE,FALSE,1,3,7,1,1,,,,,,,
,,,,,,0,1.848734414,#a3d0fb,,left_blue.png,w,,,,,,w,left_blue.png,left_orange.png,q,right,6058bee6f83bac3e977d4c0b,001,2021-08-09_10h17.19.949,arrow_simon_norep,2021.1.2,Win32,60.58035985,,,,,,,,,,,,,,,,,,,,,w,1,1.5763,9,FALSE,FALSE,2,0,8,3,1,,,,,,,
,,,,,,0,1.883444848,#f3af84,,left_orange.png,q,,,,,,w,left_blue.png,left_orange.png,q,right,6058bee6f83bac3e977d4c0b,001,2021-08-09_10h17.19.949,arrow_simon_norep,2021.1.2,Win32,60.58035985,,,,,,,,,,,,,,,,,,,,,q,1,1.5235,10,FALSE,FALSE,2,1,9,3,1,,,,,,,
,,,,,,0,1.823280757,#a3d0fb,,left_blue.png,w,,,,,,w,left_blue.png,left_orange.png,q,left,6058bee6f83bac3e977d4c0b,001,2021-08-09_10h17.19.949,arrow_simon_norep,2021.1.2,Win32,60.58035985,,,,,,,,,,,,,,,,,,,,,w,1,4.0906,11,TRUE,FALSE,2,2,10,2,1,,,,,,,
,,,,,,0,1.688679693,#f3af84,,left_orange.png,q,,,,,,w,left_blue.png,left_orange.png,q,left,6058bee6f83bac3e977d4c0b,001,2021-08-09_10h17.19.949,arrow_simon_norep,2021.1.2,Win32,60.58035985,,,,,,,,,,,,,,,,,,,,,q,1,15.3406,12,TRUE,FALSE,2,3,11,2,1,,,,,,,
,,,,,,0,1.786528435,#a3d0fb,,left_blue.png,w,,,,,,w,left_blue.png,left_orange.png,q,left,6058bee6f83bac3e977d4c0b,001,2021-08-09_10h17.19.949,arrow_simon_norep,2021.1.2,Win32,60.58035985,,,,,,,,,,,,,,,,,,,,,w,1,1.7601,13,TRUE,FALSE,3,0,12,2,1,,,,,,,
,,,,,,0,2.201071628,#f3af84,,left_orange.png,q,,,,,,w,left_blue.png,left_orange.png,q,right,6058bee6f83bac3e977d4c0b,001,2021-08-09_10h17.19.949,arrow_simon_norep,2021.1.2,Win32,60.58035985,,,,,,,,,,,,,,,,,,,,,q,1,2.0362,14,TRUE,FALSE,3,1,13,3,1,,,,,,,
,,,,,,0,2.190245938,#a3d0fb,,right_blue.png,o,,,,,,o,right_blue.png,right_orange.png,p,right,6058bee6f83bac3e977d4c0b,001,2021-08-09_10h17.19.949,arrow_simon_norep,2021.1.2,Win32,60.58035985,,,,,,,,,,,,,,,,,,,,,o,1,1.6007,15,TRUE,FALSE,3,2,14,1,1,,,,,,,
,,,,,,0,2.243766114,#f3af84,,left_orange.png,q,,,,,,w,left_blue.png,left_orange.png,q,right,6058bee6f83bac3e977d4c0b,001,2021-08-09_10h17.19.949,arrow_simon_norep,2021.1.2,Win32,60.58035985,,,,,,,,,,,,,,,,,,,,,q,1,1.9222,16,TRUE,FALSE,3,3,15,3,1,,,,,,,
,,,,,,0,2.085502596,#a3d0fb,,left_blue.png,w,,,,,,w,left_blue.png,left_orange.png,q,left,6058bee6f83bac3e977d4c0b,001,2021-08-09_10h17.19.949,arrow_simon_norep,2021.1.2,Win32,60.58035985,,,,,,,,,,,,,,,,,,,,,o,0,1.2102,17,FALSE,TRUE,4,0,16,2,1,,,,,,,
,,,,,,0,1.594364579,#f3af84,,left_orange.png,q,,,,,,w,left_blue.png,left_orange.png,q,left,6058bee6f83bac3e977d4c0b,001,2021-08-09_10h17.19.949,arrow_simon_norep,2021.1.2,Win32,60.58035985,,,,,,,,,,,,,,,,,,,,,q,1,1.5506,18,FALSE,FALSE,4,1,17,2,1,,,,,,,
,,,,,,0,1.515127352,#a3d0fb,,right_blue.png,o,,,,,,o,right_blue.png,right_orange.png,p,right,6058bee6f83bac3e977d4c0b,001,2021-08-09_10h17.19.949,arrow_simon_norep,2021.1.2,Win32,60.58035985,,,,,,,,,,,,,,,,,,,,,o,1,1.4908,19,FALSE,FALSE,4,2,18,1,1,,,,,,,
,,,,,,0,1.677209934,#f3af84,,left_orange.png,q,,,,,,w,left_blue.png,left_orange.png,q,right,6058bee6f83bac3e977d4c0b,001,2021-08-09_10h17.19.949,arrow_simon_norep,2021.1.2,Win32,60.58035985,,,,,,,,,,,,,,,,,,,,,q,1,349.2781,20,TRUE,FALSE,4,3,19,3,1,,,,,,,
,,,,,,0,2.290216946,#a3d0fb,,left_blue.png,w,,,,,,w,left_blue.png,left_orange.png,q,right,6058bee6f83bac3e977d4c0b,001,2021-08-09_10h17.19.949,arrow_simon_norep,2021.1.2,Win32,60.58035985,,,,,,,,,,,,,,,,,,,,,w,1,1.745,21,TRUE,FALSE,5,0,20,3,1,,,,,,,
,,,,,,0,2.170968916,#f3af84,,right_orange.png,p,,,,,,o,right_blue.png,right_orange.png,p,left,6058bee6f83bac3e977d4c0b,001,2021-08-09_10h17.19.949,arrow_simon_norep,2021.1.2,Win32,60.58035985,,,,,,,,,,,,,,,,,,,,,p,1,1.5677,22,FALSE,FALSE,5,1,21,0,1,,,,,,,
,,,,,,0,1.956824973,#a3d0fb,,right_blue.png,o,,,,,,o,right_blue.png,right_orange.png,p,left,6058bee6f83bac3e977d4c0b,001,2021-08-09_10h17.19.949,arrow_simon_norep,2021.1.2,Win32,60.58035985,,,,,,,,,,,,,,,,,,,,,o,1,1.5738,23,FALSE,FALSE,5,2,22,0,1,,,,,,,
,,,,,,0,1.81566184,#f3af84,,left_orange.png,q,,,,,,w,left_blue.png,left_orange.png,q,right,6058bee6f83bac3e977d4c0b,001,2021-08-09_10h17.19.949,arrow_simon_norep,2021.1.2,Win32,60.58035985,,,,,,,,,,,,,,,,,,,,,q,1,1.5681,24,FALSE,FALSE,5,3,23,3,1,,,,,,,
,,,,,,0,2.328372927,#a3d0fb,,left_blue.png,w,,,,,,w,left_blue.png,left_orange.png,q,left,6058bee6f83bac3e977d4c0b,001,2021-08-09_10h17.19.949,arrow_simon_norep,2021.1.2,Win32,60.58035985,,,,,,,,,,,,,,,,,,,,,w,1,1.5873,25,FALSE,FALSE,6,0,24,2,1,,,,,,,
,,,,,,0,1.657827206,#f3af84,,left_orange.png,q,,,,,,w,left_blue.png,left_orange.png,q,left,6058bee6f83bac3e977d4c0b,001,2021-08-09_10h17.19.949,arrow_simon_norep,2021.1.2,Win32,60.58035985,,,,,,,,,,,,,,,,,,,,,q,1,1.534,26,FALSE,FALSE,6,1,25,2,1,,,,,,,
,,,,,,0,2.307757187,#a3d0fb,,right_blue.png,o,,,,,,o,right_blue.png,right_orange.png,p,right,6058bee6f83bac3e977d4c0b,001,2021-08-09_10h17.19.949,arrow_simon_norep,2021.1.2,Win32,60.58035985,,,,,,,,,,,,,,,,,,,,,o,1,1.5851,27,FALSE,FALSE,6,2,26,1,1,,,,,,,
,,,,,,0,1.767955277,#f3af84,,right_orange.png,p,,,,,,o,right_blue.png,right_orange.png,p,left,6058bee6f83bac3e977d4c0b,001,2021-08-09_10h17.19.949,arrow_simon_norep,2021.1.2,Win32,60.58035985,,,,,,,,,,,,,,,,,,,,,p,1,1.4834,28,FALSE,FALSE,6,3,27,0,1,,,,,,,
,,,,,,0,1.594789076,#a3d0fb,,right_blue.png,o,,,,,,o,right_blue.png,right_orange.png,p,left,6058bee6f83bac3e977d4c0b,001,2021-08-09_10h17.19.949,arrow_simon_norep,2021.1.2,Win32,60.58035985,,,,,,,,,,,,,,,,,,,,,o,1,1.493,29,FALSE,FALSE,7,0,28,0,1,,,,,,,
,,,,,,0,1.518448312,#f3af84,,right_orange.png,p,,,,,,o,right_blue.png,right_orange.png,p,right,6058bee6f83bac3e977d4c0b,001,2021-08-09_10h17.19.949,arrow_simon_norep,2021.1.2,Win32,60.58035985,,,,,,,,,,,,,,,,,,,,,p,1,1.4835,30,FALSE,FALSE,7,1,29,1,1,,,,,,,
,,,,,,0,2.214666562,#a3d0fb,,left_blue.png,w,,,,,,w,left_blue.png,left_orange.png,q,left,6058bee6f83bac3e977d4c0b,001,2021-08-09_10h17.19.949,arrow_simon_norep,2021.1.2,Win32,60.58035985,,,,,,,,,,,,,,,,,,,,,w,1,1.4856,31,FALSE,FALSE,7,2,30,2,1,,,,,,,
,,,,,,0,2.128800237,#f3af84,,left_orange.png,q,,,,,,w,left_blue.png,left_orange.png,q,right,6058bee6f83bac3e977d4c0b,001,2021-08-09_10h17.19.949,arrow_simon_norep,2021.1.2,Win32,60.58035985,,,,,,,,,,,,,,,,,,,,,q,1,1.5846,32,FALSE,FALSE,7,3,31,3,1,,,,,,,
,,,,,,0,1.640756069,#a3d0fb,,right_blue.png,o,,,,,,o,right_blue.png,right_orange.png,p,right,6058bee6f83bac3e977d4c0b,001,2021-08-09_10h17.19.949,arrow_simon_norep,2021.1.2,Win32,60.58035985,,,,,,,,,,,,,,,,,,,,,o,1,1.4556,33,FALSE,FALSE,8,0,32,1,1,,,,,,,
,,,,,,0,1.81656763,#f3af84,,left_orange.png,q,,,,,,w,left_blue.png,left_orange.png,q,right,6058bee6f83bac3e977d4c0b,001,2021-08-09_10h17.19.949,arrow_simon_norep,2021.1.2,Win32,60.58035985,,,,,,,,,,,,,,,,,,,,,q,1,1.5171,34,FALSE,FALSE,8,1,33,3,1,,,,,,,
,,,,,,1,2.143944103,#a3d0fb,,left_blue.png,w,,,,,,w,left_blue.png,left_orange.png,q,right,6058bee6f83bac3e977d4c0b,001,2021-08-09_10h17.19.949,arrow_simon_norep,2021.1.2,Win32,60.58035985,,,,,,,,,,,,,,,,,,,,,o,0,1.4774,35,FALSE,FALSE,8,2,34,3,1,,,,,,,
,,,,,,0,1.646526776,#f3af84,,right_orange.png,p,,,,,,o,right_blue.png,right_orange.png,p,right,6058bee6f83bac3e977d4c0b,001,2021-08-09_10h17.19.949,arrow_simon_norep,2021.1.2,Win32,60.58035985,,,,,,,,,,,,,,,,,,,,,p,1,1.4711,36,FALSE,FALSE,8,3,35,1,1,,,,,,,
,,,,,,1,2.212865585,#a3d0fb,,right_blue.png,o,,,,,,o,right_blue.png,right_orange.png,p,left,6058bee6f83bac3e977d4c0b,001,2021-08-09_10h17.19.949,arrow_simon_norep,2021.1.2,Win32,60.58035985,,,,,,,,,,,,,,,,,,,,,w,0,1.5067,37,FALSE,FALSE,9,0,36,0,1,,,,,,,
,,,,,,1,2.35614893,#f3af84,,right_orange.png,p,,,,,,o,right_blue.png,right_orange.png,p,right,6058bee6f83bac3e977d4c0b,001,2021-08-09_10h17.19.949,arrow_simon_norep,2021.1.2,Win32,60.58035985,,,,,,,,,,,,,,,,,,,,,p,1,1.6572,38,TRUE,FALSE,9,1,37,1,1,,,,,,,
,,,,,,0,1.679865915,#a3d0fb,,right_blue.png,o,,,,,,o,right_blue.png,right_orange.png,p,right,6058bee6f83bac3e977d4c0b,001,2021-08-09_10h17.19.949,arrow_simon_norep,2021.1.2,Win32,60.58035985,,,,,,,,,,,,,,,,,,,,,o,1,1.4909,39,FALSE,FALSE,9,2,38,1,1,,,,,,,
,,,,,,0,1.70645438,#f3af84,,right_orange.png,p,,,,,,o,right_blue.png,right_orange.png,p,right,6058bee6f83bac3e977d4c0b,001,2021-08-09_10h17.19.949,arrow_simon_norep,2021.1.2,Win32,60.58035985,,,,,,,,,,,,,,,,,,,,,p,1,1.4542,40,FALSE,FALSE,9,3,39,1,1,,,,,,,
,,,,,,0,2.49340038,#a3d0fb,,left_blue.png,w,,,,,,w,left_blue.png,left_orange.png,q,right,6058bee6f83bac3e977d4c0b,001,2021-08-09_10h17.19.949,arrow_simon_norep,2021.1.2,Win32,60.58035985,,,,,,,,,,,,,,,,,,,,,w,1,1.5003,41,FALSE,FALSE,10,0,40,3,1,,,,,,,
,,,,,,1,2.337537107,#f3af84,,left_orange.png,q,,,,,,w,left_blue.png,left_orange.png,q,left,6058bee6f83bac3e977d4c0b,001,2021-08-09_10h17.19.949,arrow_simon_norep,2021.1.2,Win32,60.58035985,,,,,,,,,,,,,,,,,,,,,p,0,1.451,42,FALSE,FALSE,10,1,41,2,1,,,,,,,
,,,,,,0,2.05456388,#a3d0fb,,right_blue.png,o,,,,,,o,right_blue.png,right_orange.png,p,left,6058bee6f83bac3e977d4c0b,001,2021-08-09_10h17.19.949,arrow_simon_norep,2021.1.2,Win32,60.58035985,,,,,,,,,,,,,,,,,,,,,o,1,1.4984,43,FALSE,FALSE,10,2,42,0,1,,,,,,,
,,,,,,0,2.402200701,#f3af84,,right_orange.png,p,,,,,,o,right_blue.png,right_orange.png,p,left,6058bee6f83bac3e977d4c0b,001,2021-08-09_10h17.19.949,arrow_simon_norep,2021.1.2,Win32,60.58035985,,,,,,,,,,,,,,,,,,,,,q,0,1.7079,44,TRUE,FALSE,10,3,43,0,1,,,,,,,
,,,,,,0,2.421276697,#a3d0fb,,left_blue.png,w,,,,,,w,left_blue.png,left_orange.png,q,left,6058bee6f83bac3e977d4c0b,001,2021-08-09_10h17.19.949,arrow_simon_norep,2021.1.2,Win32,60.58035985,,,,,,,,,,,,,,,,,,,,,o,0,1.6187,45,TRUE,FALSE,11,0,44,2,1,,,,,,,
,,,,,,0,1.625274226,#f3af84,,right_orange.png,p,,,,,,o,right_blue.png,right_orange.png,p,left,6058bee6f83bac3e977d4c0b,001,2021-08-09_10h17.19.949,arrow_simon_norep,2021.1.2,Win32,60.58035985,,,,,,,,,,,,,,,,,,,,,p,1,1.4678,46,FALSE,FALSE,11,1,45,0,1,,,,,,,
,,,,,,0,1.956838836,#a3d0fb,,right_blue.png,o,,,,,,o,right_blue.png,right_orange.png,p,left,6058bee6f83bac3e977d4c0b,001,2021-08-09_10h17.19.949,arrow_simon_norep,2021.1.2,Win32,60.58035985,,,,,,,,,,,,,,,,,,,,,o,1,1.5337,47,FALSE,FALSE,11,2,46,0,1,,,,,,,
,,,,,,0,1.81060019,#f3af84,,right_orange.png,p,,,,,,o,right_blue.png,right_orange.png,p,right,6058bee6f83bac3e977d4c0b,001,2021-08-09_10h17.19.949,arrow_simon_norep,2021.1.2,Win32,60.58035985,,,,,,,,,,,,,,,,,,,,,p,1,1.5172,48,FALSE,FALSE,11,3,47,1,1,,,,,,,
,,,,,,0,2.066605231,#a3d0fb,,right_blue.png,o,,,,,,o,right_blue.png,right_orange.png,p,left,6058bee6f83bac3e977d4c0b,001,2021-08-09_10h17.19.949,arrow_simon_norep,2021.1.2,Win32,60.58035985,,,,,,,,,,,,,,,,,,,,,o,1,1.5278,49,FALSE,FALSE,12,0,48,0,1,,,,,,,
,,,,,,0,1.687159462,#f3af84,,right_orange.png,p,,,,,,o,right_blue.png,right_orange.png,p,left,6058bee6f83bac3e977d4c0b,001,2021-08-09_10h17.19.949,arrow_simon_norep,2021.1.2,Win32,60.58035985,,,,,,,,,,,,,,,,,,,,,p,1,1.9894,50,TRUE,FALSE,12,1,49,0,1,,,,,,,
,,,,,,0,2.496094084,#a3d0fb,,left_blue.png,w,,,,,,w,left_blue.png,left_orange.png,q,right,6058bee6f83bac3e977d4c0b,001,2021-08-09_10h17.19.949,arrow_simon_norep,2021.1.2,Win32,60.58035985,,,,,,,,,,,,,,,,,,,,,w,1,1.7187,51,TRUE,FALSE,12,2,50,3,1,,,,,,,
,,,,,,0,1.543461267,#f3af84,,right_orange.png,p,,,,,,o,right_blue.png,right_orange.png,p,left,6058bee6f83bac3e977d4c0b,001,2021-08-09_10h17.19.949,arrow_simon_norep,2021.1.2,Win32,60.58035985,,,,,,,,,,,,,,,,,,,,,p,1,1.4895,52,FALSE,FALSE,12,3,51,0,1,,,,,,,
,,,,,,0,1.655941511,#a3d0fb,,right_blue.png,o,,,,,,o,right_blue.png,right_orange.png,p,right,6058bee6f83bac3e977d4c0b,001,2021-08-09_10h17.19.949,arrow_simon_norep,2021.1.2,Win32,60.58035985,,,,,,,,,,,,,,,,,,,,,o,1,1.4843,53,FALSE,FALSE,13,0,52,1,1,,,,,,,
,,,,,,0,2.198914125,#f3af84,,right_orange.png,p,,,,,,o,right_blue.png,right_orange.png,p,right,6058bee6f83bac3e977d4c0b,001,2021-08-09_10h17.19.949,arrow_simon_norep,2021.1.2,Win32,60.58035985,,,,,,,,,,,,,,,,,,,,,p,1,1.5405,54,FALSE,FALSE,13,1,53,1,1,,,,,,,
,,,,,,0,1.7737774,#a3d0fb,,right_blue.png,o,,,,,,o,right_blue.png,right_orange.png,p,left,6058bee6f83bac3e977d4c0b,001,2021-08-09_10h17.19.949,arrow_simon_norep,2021.1.2,Win32,60.58035985,,,,,,,,,,,,,,,,,,,,,o,1,1.5168,55,FALSE,FALSE,13,2,54,0,1,,,,,,,
,,,,,,0,1.538686562,#f3af84,,left_orange.png,q,,,,,,w,left_blue.png,left_orange.png,q,right,6058bee6f83bac3e977d4c0b,001,2021-08-09_10h17.19.949,arrow_simon_norep,2021.1.2,Win32,60.58035985,,,,,,,,,,,,,,,,,,,,,q,1,1.6389,56,TRUE,FALSE,13,3,55,3,1,,,,,,,
,,,,,,1,1.662454632,#a3d0fb,,left_blue.png,w,,,,,,w,left_blue.png,left_orange.png,q,left,6058bee6f83bac3e977d4c0b,001,2021-08-09_10h17.19.949,arrow_simon_norep,2021.1.2,Win32,60.58035985,,,,,,,,,,,,,,,,,,,,,q,0,1.4391,57,FALSE,FALSE,14,0,56,2,1,,,,,,,
,,,,,,1,2.313201753,#f3af84,,left_orange.png,q,,,,,,w,left_blue.png,left_orange.png,q,left,6058bee6f83bac3e977d4c0b,001,2021-08-09_10h17.19.949,arrow_simon_norep,2021.1.2,Win32,60.58035985,,,,,,,,,,,,,,,,,,,,,p,0,1.5164,58,FALSE,FALSE,14,1,57,2,1,,,,,,,
,,,,,,0,1.910796264,#a3d0fb,,left_blue.png,w,,,,,,w,left_blue.png,left_orange.png,q,left,6058bee6f83bac3e977d4c0b,001,2021-08-09_10h17.19.949,arrow_simon_norep,2021.1.2,Win32,60.58035985,,,,,,,,,,,,,,,,,,,,,w,1,1.4815,59,FALSE,FALSE,14,2,58,2,1,,,,,,,
,,,,,,0,2.005301298,#f3af84,,left_orange.png,q,,,,,,w,left_blue.png,left_orange.png,q,right,6058bee6f83bac3e977d4c0b,001,2021-08-09_10h17.19.949,arrow_simon_norep,2021.1.2,Win32,60.58035985,,,,,,,,,,,,,,,,,,,,,q,1,1.5188,60,FALSE,FALSE,14,3,59,3,1,,,,,,,
,,,,,,,,,,,,,,,,,,,,,,6058bee6f83bac3e977d4c0b,001,2021-08-09_10h17.19.949,arrow_simon_norep,2021.1.2,Win32,60.58035985,,,,,,,,,,,,,,,,,,,,,,,,,,,,,,,,space,167.6217,0,0,0,0,1
,,,,,,0,1.826507592,#a3d0fb,,left_blue.png,w,,,,,,w,left_blue.png,left_orange.png,q,right,6058bee6f83bac3e977d4c0b,001,2021-08-09_10h17.19.949,arrow_simon_norep,2021.1.2,Win32,60.58035985,,,,,,,,,,,,,,,,,,,,,w,1,1.5366,1,FALSE,FALSE,0,0,0,3,1,,,,,,,
,,,,,,0,2.027000947,#f3af84,,right_orange.png,p,,,,,,o,right_blue.png,right_orange.png,p,left,6058bee6f83bac3e977d4c0b,001,2021-08-09_10h17.19.949,arrow_simon_norep,2021.1.2,Win32,60.58035985,,,,,,,,,,,,,,,,,,,,,p,1,1.5094,2,FALSE,FALSE,0,1,1,0,1,,,,,,,
,,,,,,0,1.933786767,#a3d0fb,,right_blue.png,o,,,,,,o,right_blue.png,right_orange.png,p,left,6058bee6f83bac3e977d4c0b,001,2021-08-09_10h17.19.949,arrow_simon_norep,2021.1.2,Win32,60.58035985,,,,,,,,,,,,,,,,,,,,,o,1,1.5195,3,FALSE,FALSE,0,2,2,0,1,,,,,,,
,,,,,,0,2.311856805,#f3af84,,left_orange.png,q,,,,,,w,left_blue.png,left_orange.png,q,right,6058bee6f83bac3e977d4c0b,001,2021-08-09_10h17.19.949,arrow_simon_norep,2021.1.2,Win32,60.58035985,,,,,,,,,,,,,,,,,,,,,q,1,2.4389,4,TRUE,FALSE,0,3,3,3,1,,,,,,,
,,,,,,0,1.623167016,#a3d0fb,,left_blue.png,w,,,,,,w,left_blue.png,left_orange.png,q,right,6058bee6f83bac3e977d4c0b,001,2021-08-09_10h17.19.949,arrow_simon_norep,2021.1.2,Win32,60.58035985,,,,,,,,,,,,,,,,,,,,,w,1,1.2216,5,FALSE,TRUE,1,0,4,3,1,,,,,,,
,,,,,,0,2.090061146,#f3af84,,left_orange.png,q,,,,,,w,left_blue.png,left_orange.png,q,left,6058bee6f83bac3e977d4c0b,001,2021-08-09_10h17.19.949,arrow_simon_norep,2021.1.2,Win32,60.58035985,,,,,,,,,,,,,,,,,,,,,q,1,1.7068,6,TRUE,FALSE,1,1,5,2,1,,,,,,,
,,,,,,0,2.2655932,#a3d0fb,,left_blue.png,w,,,,,,w,left_blue.png,left_orange.png,q,right,6058bee6f83bac3e977d4c0b,001,2021-08-09_10h17.19.949,arrow_simon_norep,2021.1.2,Win32,60.58035985,,,,,,,,,,,,,,,,,,,,,w,1,1.7179,7,TRUE,FALSE,1,2,6,3,1,,,,,,,
,,,,,,1,1.968666104,#f3af84,,right_orange.png,p,,,,,,o,right_blue.png,right_orange.png,p,right,6058bee6f83bac3e977d4c0b,001,2021-08-09_10h17.19.949,arrow_simon_norep,2021.1.2,Win32,60.58035985,,,,,,,,,,,,,,,,,,,,,q,0,1.583,8,FALSE,FALSE,1,3,7,1,1,,,,,,,
,,,,,,1,2.409533166,#a3d0fb,,left_blue.png,w,,,,,,w,left_blue.png,left_orange.png,q,left,6058bee6f83bac3e977d4c0b,001,2021-08-09_10h17.19.949,arrow_simon_norep,2021.1.2,Win32,60.58035985,,,,,,,,,,,,,,,,,,,,,o,0,1.6524,9,TRUE,FALSE,2,0,8,2,1,,,,,,,
,,,,,,1,2.360669845,#f3af84,,right_orange.png,p,,,,,,o,right_blue.png,right_orange.png,p,left,6058bee6f83bac3e977d4c0b,001,2021-08-09_10h17.19.949,arrow_simon_norep,2021.1.2,Win32,60.58035985,,,,,,,,,,,,,,,,,,,,,q,0,1.6527,10,TRUE,FALSE,2,1,9,0,1,,,,,,,
,,,,,,0,2.024017076,#a3d0fb,,right_blue.png,o,,,,,,o,right_blue.png,right_orange.png,p,left,6058bee6f83bac3e977d4c0b,001,2021-08-09_10h17.19.949,arrow_simon_norep,2021.1.2,Win32,60.58035985,,,,,,,,,,,,,,,,,,,,,o,1,1.438,11,FALSE,FALSE,2,2,10,0,1,,,,,,,
,,,,,,0,1.680078953,#f3af84,,left_orange.png,q,,,,,,w,left_blue.png,left_orange.png,q,right,6058bee6f83bac3e977d4c0b,001,2021-08-09_10h17.19.949,arrow_simon_norep,2021.1.2,Win32,60.58035985,,,,,,,,,,,,,,,,,,,,,q,1,1.4448,12,FALSE,FALSE,2,3,11,3,1,,,,,,,
,,,,,,0,2.394253108,#a3d0fb,,left_blue.png,w,,,,,,w,left_blue.png,left_orange.png,q,left,6058bee6f83bac3e977d4c0b,001,2021-08-09_10h17.19.949,arrow_simon_norep,2021.1.2,Win32,60.58035985,,,,,,,,,,,,,,,,,,,,,w,1,1.5061,13,FALSE,FALSE,3,0,12,2,1,,,,,,,
,,,,,,0,2.279744966,#f3af84,,right_orange.png,p,,,,,,o,right_blue.png,right_orange.png,p,left,6058bee6f83bac3e977d4c0b,001,2021-08-09_10h17.19.949,arrow_simon_norep,2021.1.2,Win32,60.58035985,,,,,,,,,,,,,,,,,,,,,p,1,5.9785,14,TRUE,FALSE,3,1,13,0,1,,,,,,,
,,,,,,0,1.892039664,#a3d0fb,,left_blue.png,w,,,,,,w,left_blue.png,left_orange.png,q,right,6058bee6f83bac3e977d4c0b,001,2021-08-09_10h17.19.949,arrow_simon_norep,2021.1.2,Win32,60.58035985,,,,,,,,,,,,,,,,,,,,,w,1,1.4836,15,FALSE,FALSE,3,2,14,3,1,,,,,,,
,,,,,,0,1.889967693,#f3af84,,right_orange.png,p,,,,,,o,right_blue.png,right_orange.png,p,left,6058bee6f83bac3e977d4c0b,001,2021-08-09_10h17.19.949,arrow_simon_norep,2021.1.2,Win32,60.58035985,,,,,,,,,,,,,,,,,,,,,p,1,1.5115,16,FALSE,FALSE,3,3,15,0,1,,,,,,,
,,,,,,1,2.134535794,#a3d0fb,,right_blue.png,o,,,,,,o,right_blue.png,right_orange.png,p,right,6058bee6f83bac3e977d4c0b,001,2021-08-09_10h17.19.949,arrow_simon_norep,2021.1.2,Win32,60.58035985,,,,,,,,,,,,,,,,,,,,,p,0,1.5641,17,FALSE,FALSE,4,0,16,1,1,,,,,,,
,,,,,,1,2.340787998,#f3af84,,left_orange.png,q,,,,,,w,left_blue.png,left_orange.png,q,left,6058bee6f83bac3e977d4c0b,001,2021-08-09_10h17.19.949,arrow_simon_norep,2021.1.2,Win32,60.58035985,,,,,,,,,,,,,,,,,,,,,q,1,1.6177,18,TRUE,FALSE,4,1,17,2,1,,,,,,,
,,,,,,0,2.228333496,#a3d0fb,,left_blue.png,w,,,,,,w,left_blue.png,left_orange.png,q,left,6058bee6f83bac3e977d4c0b,001,2021-08-09_10h17.19.949,arrow_simon_norep,2021.1.2,Win32,60.58035985,,,,,,,,,,,,,,,,,,,,,w,1,1.5178,19,FALSE,FALSE,4,2,18,2,1,,,,,,,
,,,,,,0,2.48442381,#f3af84,,left_orange.png,q,,,,,,w,left_blue.png,left_orange.png,q,right,6058bee6f83bac3e977d4c0b,001,2021-08-09_10h17.19.949,arrow_simon_norep,2021.1.2,Win32,60.58035985,,,,,,,,,,,,,,,,,,,,,q,1,1.5845,20,FALSE,FALSE,4,3,19,3,1,,,,,,,
,,,,,,0,2.046695437,#a3d0fb,,left_blue.png,w,,,,,,w,left_blue.png,left_orange.png,q,left,6058bee6f83bac3e977d4c0b,001,2021-08-09_10h17.19.949,arrow_simon_norep,2021.1.2,Win32,60.58035985,,,,,,,,,,,,,,,,,,,,,w,1,1.7309,21,TRUE,FALSE,5,0,20,2,1,,,,,,,
,,,,,,0,2.381266611,#f3af84,,left_orange.png,q,,,,,,w,left_blue.png,left_orange.png,q,left,6058bee6f83bac3e977d4c0b,001,2021-08-09_10h17.19.949,arrow_simon_norep,2021.1.2,Win32,60.58035985,,,,,,,,,,,,,,,,,,,,,q,1,3.276,22,TRUE,FALSE,5,1,21,2,1,,,,,,,
,,,,,,0,2.346150632,#a3d0fb,,right_blue.png,o,,,,,,o,right_blue.png,right_orange.png,p,right,6058bee6f83bac3e977d4c0b,001,2021-08-09_10h17.19.949,arrow_simon_norep,2021.1.2,Win32,60.58035985,,,,,,,,,,,,,,,,,,,,,p,0,2.4768,23,TRUE,FALSE,5,2,22,1,1,,,,,,,
,,,,,,0,2.342791401,#f3af84,,left_orange.png,q,,,,,,w,left_blue.png,left_orange.png,q,right,6058bee6f83bac3e977d4c0b,001,2021-08-09_10h17.19.949,arrow_simon_norep,2021.1.2,Win32,60.58035985,,,,,,,,,,,,,,,,,,,,,q,1,1.051,24,FALSE,TRUE,5,3,23,3,1,,,,,,,
,,,,,,0,2.408101505,#a3d0fb,,right_blue.png,o,,,,,,o,right_blue.png,right_orange.png,p,right,6058bee6f83bac3e977d4c0b,001,2021-08-09_10h17.19.949,arrow_simon_norep,2021.1.2,Win32,60.58035985,,,,,,,,,,,,,,,,,,,,,o,1,1.5504,25,FALSE,FALSE,6,0,24,1,1,,,,,,,
,,,,,,0,2.455471734,#f3af84,,left_orange.png,q,,,,,,w,left_blue.png,left_orange.png,q,left,6058bee6f83bac3e977d4c0b,001,2021-08-09_10h17.19.949,arrow_simon_norep,2021.1.2,Win32,60.58035985,,,,,,,,,,,,,,,,,,,,,q,1,1.7903,26,TRUE,FALSE,6,1,25,2,1,,,,,,,
,,,,,,0,1.507085614,#a3d0fb,,right_blue.png,o,,,,,,o,right_blue.png,right_orange.png,p,left,6058bee6f83bac3e977d4c0b,001,2021-08-09_10h17.19.949,arrow_simon_norep,2021.1.2,Win32,60.58035985,,,,,,,,,,,,,,,,,,,,,o,1,1.5182,27,FALSE,FALSE,6,2,26,0,1,,,,,,,
,,,,,,0,2.372377096,#f3af84,,left_orange.png,q,,,,,,w,left_blue.png,left_orange.png,q,left,6058bee6f83bac3e977d4c0b,001,2021-08-09_10h17.19.949,arrow_simon_norep,2021.1.2,Win32,60.58035985,,,,,,,,,,,,,,,,,,,,,q,1,3.0013,28,TRUE,FALSE,6,3,27,2,1,,,,,,,
,,,,,,0,2.32972636,#a3d0fb,,left_blue.png,w,,,,,,w,left_blue.png,left_orange.png,q,left,6058bee6f83bac3e977d4c0b,001,2021-08-09_10h17.19.949,arrow_simon_norep,2021.1.2,Win32,60.58035985,,,,,,,,,,,,,,,,,,,,,q,0,4.5685,29,TRUE,FALSE,7,0,28,2,1,,,,,,,
,,,,,,1,2.156629896,#f3af84,,left_orange.png,q,,,,,,w,left_blue.png,left_orange.png,q,right,6058bee6f83bac3e977d4c0b,001,2021-08-09_10h17.19.949,arrow_simon_norep,2021.1.2,Win32,60.58035985,,,,,,,,,,,,,,,,,,,,,w,0,1.5674,30,FALSE,FALSE,7,1,29,3,1,,,,,,,
,,,,,,0,1.945880559,#a3d0fb,,left_blue.png,w,,,,,,w,left_blue.png,left_orange.png,q,left,6058bee6f83bac3e977d4c0b,001,2021-08-09_10h17.19.949,arrow_simon_norep,2021.1.2,Win32,60.58035985,,,,,,,,,,,,,,,,,,,,,w,1,1.5374,31,FALSE,FALSE,7,2,30,2,1,,,,,,,
,,,,,,0,2.068107206,#f3af84,,right_orange.png,p,,,,,,o,right_blue.png,right_orange.png,p,left,6058bee6f83bac3e977d4c0b,001,2021-08-09_10h17.19.949,arrow_simon_norep,2021.1.2,Win32,60.58035985,,,,,,,,,,,,,,,,,,,,,p,1,1.502,32,FALSE,FALSE,7,3,31,0,1,,,,,,,
,,,,,,0,2.195542799,#a3d0fb,,right_blue.png,o,,,,,,o,right_blue.png,right_orange.png,p,left,6058bee6f83bac3e977d4c0b,001,2021-08-09_10h17.19.949,arrow_simon_norep,2021.1.2,Win32,60.58035985,,,,,,,,,,,,,,,,,,,,,o,1,1.6003,33,TRUE,FALSE,8,0,32,0,1,,,,,,,
,,,,,,0,2.224096359,#f3af84,,right_orange.png,p,,,,,,o,right_blue.png,right_orange.png,p,right,6058bee6f83bac3e977d4c0b,001,2021-08-09_10h17.19.949,arrow_simon_norep,2021.1.2,Win32,60.58035985,,,,,,,,,,,,,,,,,,,,,p,1,1.5616,34,FALSE,FALSE,8,1,33,1,1,,,,,,,
,,,,,,0,2.409364043,#a3d0fb,,right_blue.png,o,,,,,,o,right_blue.png,right_orange.png,p,right,6058bee6f83bac3e977d4c0b,001,2021-08-09_10h17.19.949,arrow_simon_norep,2021.1.2,Win32,60.58035985,,,,,,,,,,,,,,,,,,,,,o,1,1.5874,35,FALSE,FALSE,8,2,34,1,1,,,,,,,
,,,,,,0,1.751833031,#f3af84,,left_orange.png,q,,,,,,w,left_blue.png,left_orange.png,q,left,6058bee6f83bac3e977d4c0b,001,2021-08-09_10h17.19.949,arrow_simon_norep,2021.1.2,Win32,60.58035985,,,,,,,,,,,,,,,,,,,,,q,1,1.434,36,FALSE,FALSE,8,3,35,2,1,,,,,,,
,,,,,,0,1.757626522,#a3d0fb,,left_blue.png,w,,,,,,w,left_blue.png,left_orange.png,q,right,6058bee6f83bac3e977d4c0b,001,2021-08-09_10h17.19.949,arrow_simon_norep,2021.1.2,Win32,60.58035985,,,,,,,,,,,,,,,,,,,,,w,1,1.5263,37,FALSE,FALSE,9,0,36,3,1,,,,,,,
,,,,,,0,2.438212082,#f3af84,,right_orange.png,p,,,,,,o,right_blue.png,right_orange.png,p,left,6058bee6f83bac3e977d4c0b,001,2021-08-09_10h17.19.949,arrow_simon_norep,2021.1.2,Win32,60.58035985,,,,,,,,,,,,,,,,,,,,,p,1,1.5534,38,FALSE,FALSE,9,1,37,0,1,,,,,,,
,,,,,,0,2.095550144,#a3d0fb,,left_blue.png,w,,,,,,w,left_blue.png,left_orange.png,q,right,6058bee6f83bac3e977d4c0b,001,2021-08-09_10h17.19.949,arrow_simon_norep,2021.1.2,Win32,60.58035985,,,,,,,,,,,,,,,,,,,,,w,1,1.5814,39,FALSE,FALSE,9,2,38,3,1,,,,,,,
,,,,,,0,1.693766547,#f3af84,,right_orange.png,p,,,,,,o,right_blue.png,right_orange.png,p,left,6058bee6f83bac3e977d4c0b,001,2021-08-09_10h17.19.949,arrow_simon_norep,2021.1.2,Win32,60.58035985,,,,,,,,,,,,,,,,,,,,,q,0,1.7365,40,TRUE,FALSE,9,3,39,0,1,,,,,,,
,,,,,,1,1.832748898,#a3d0fb,,right_blue.png,o,,,,,,o,right_blue.png,right_orange.png,p,right,6058bee6f83bac3e977d4c0b,001,2021-08-09_10h17.19.949,arrow_simon_norep,2021.1.2,Win32,60.58035985,,,,,,,,,,,,,,,,,,,,,w,0,1.5772,41,FALSE,FALSE,10,0,40,1,1,,,,,,,
,,,,,,1,1.533996094,#f3af84,,left_orange.png,q,,,,,,w,left_blue.png,left_orange.png,q,left,6058bee6f83bac3e977d4c0b,001,2021-08-09_10h17.19.949,arrow_simon_norep,2021.1.2,Win32,60.58035985,,,,,,,,,,,,,,,,,,,,,q,1,0.9917,42,FALSE,TRUE,10,1,41,2,1,,,,,,,
,,,,,,1,1.827456433,#a3d0fb,,right_blue.png,o,,,,,,o,right_blue.png,right_orange.png,p,right,6058bee6f83bac3e977d4c0b,001,2021-08-09_10h17.19.949,arrow_simon_norep,2021.1.2,Win32,60.58035985,,,,,,,,,,,,,,,,,,,,,w,0,1.2495,43,FALSE,TRUE,10,2,42,1,1,,,,,,,
,,,,,,1,1.831528981,#f3af84,,right_orange.png,p,,,,,,o,right_blue.png,right_orange.png,p,left,6058bee6f83bac3e977d4c0b,001,2021-08-09_10h17.19.949,arrow_simon_norep,2021.1.2,Win32,60.58035985,,,,,,,,,,,,,,,,,,,,,w,0,1.634,44,TRUE,FALSE,10,3,43,0,1,,,,,,,
,,,,,,1,2.370140904,#a3d0fb,,left_blue.png,w,,,,,,w,left_blue.png,left_orange.png,q,left,6058bee6f83bac3e977d4c0b,001,2021-08-09_10h17.19.949,arrow_simon_norep,2021.1.2,Win32,60.58035985,,,,,,,,,,,,,,,,,,,,,q,0,1.6824,45,TRUE,FALSE,11,0,44,2,1,,,,,,,
,,,,,,0,1.551111797,#f3af84,,left_orange.png,q,,,,,,w,left_blue.png,left_orange.png,q,right,6058bee6f83bac3e977d4c0b,001,2021-08-09_10h17.19.949,arrow_simon_norep,2021.1.2,Win32,60.58035985,,,,,,,,,,,,,,,,,,,,,q,1,1.5049,46,FALSE,FALSE,11,1,45,3,1,,,,,,,
,,,,,,1,1.654170586,#a3d0fb,,right_blue.png,o,,,,,,o,right_blue.png,right_orange.png,p,right,6058bee6f83bac3e977d4c0b,001,2021-08-09_10h17.19.949,arrow_simon_norep,2021.1.2,Win32,60.58035985,,,,,,,,,,,,,,,,,,,,,w,0,1.5442,47,FALSE,FALSE,11,2,46,1,1,,,,,,,
,,,,,,1,2.138142627,#f3af84,,right_orange.png,p,,,,,,o,right_blue.png,right_orange.png,p,right,6058bee6f83bac3e977d4c0b,001,2021-08-09_10h17.19.949,arrow_simon_norep,2021.1.2,Win32,60.58035985,,,,,,,,,,,,,,,,,,,,,q,0,1.4842,48,FALSE,FALSE,11,3,47,1,1,,,,,,,
,,,,,,1,2.353538369,#a3d0fb,,left_blue.png,w,,,,,,w,left_blue.png,left_orange.png,q,right,6058bee6f83bac3e977d4c0b,001,2021-08-09_10h17.19.949,arrow_simon_norep,2021.1.2,Win32,60.58035985,,,,,,,,,,,,,,,,,,,,,w,1,1.0508,49,FALSE,TRUE,12,0,48,3,1,,,,,,,
,,,,,,0,2.046776184,#f3af84,,left_orange.png,q,,,,,,w,left_blue.png,left_orange.png,q,left,6058bee6f83bac3e977d4c0b,001,2021-08-09_10h17.19.949,arrow_simon_norep,2021.1.2,Win32,60.58035985,,,,,,,,,,,,,,,,,,,,,q,1,1.5342,50,FALSE,FALSE,12,1,49,2,1,,,,,,,
,,,,,,1,2.3661065,#a3d0fb,,right_blue.png,o,,,,,,o,right_blue.png,right_orange.png,p,left,6058bee6f83bac3e977d4c0b,001,2021-08-09_10h17.19.949,arrow_simon_norep,2021.1.2,Win32,60.58035985,,,,,,,,,,,,,,,,,,,,,w,0,1.5105,51,FALSE,FALSE,12,2,50,0,1,,,,,,,
,,,,,,0,2.109227732,#f3af84,,left_orange.png,q,,,,,,w,left_blue.png,left_orange.png,q,right,6058bee6f83bac3e977d4c0b,001,2021-08-09_10h17.19.949,arrow_simon_norep,2021.1.2,Win32,60.58035985,,,,,,,,,,,,,,,,,,,,,q,1,1.5174,52,FALSE,FALSE,12,3,51,3,1,,,,,,,
,,,,,,0,2.278681742,#a3d0fb,,right_blue.png,o,,,,,,o,right_blue.png,right_orange.png,p,left,6058bee6f83bac3e977d4c0b,001,2021-08-09_10h17.19.949,arrow_simon_norep,2021.1.2,Win32,60.58035985,,,,,,,,,,,,,,,,,,,,,q,0,2.0507,53,TRUE,FALSE,13,0,52,0,1,,,,,,,
,,,,,,1,1.633729978,#f3af84,,right_orange.png,p,,,,,,o,right_blue.png,right_orange.png,p,right,6058bee6f83bac3e977d4c0b,001,2021-08-09_10h17.19.949,arrow_simon_norep,2021.1.2,Win32,60.58035985,,,,,,,,,,,,,,,,,,,,,q,0,1.4872,54,FALSE,FALSE,13,1,53,1,1,,,,,,,
,,,,,,1,1.586616027,#a3d0fb,,right_blue.png,o,,,,,,o,right_blue.png,right_orange.png,p,right,6058bee6f83bac3e977d4c0b,001,2021-08-09_10h17.19.949,arrow_simon_norep,2021.1.2,Win32,60.58035985,,,,,,,,,,,,,,,,,,,,,w,0,1.4434,55,FALSE,FALSE,13,2,54,1,1,,,,,,,
,,,,,,1,2.048679787,#f3af84,,right_orange.png,p,,,,,,o,right_blue.png,right_orange.png,p,right,6058bee6f83bac3e977d4c0b,001,2021-08-09_10h17.19.949,arrow_simon_norep,2021.1.2,Win32,60.58035985,,,,,,,,,,,,,,,,,,,,,w,0,1.5422,56,FALSE,FALSE,13,3,55,1,1,,,,,,,
,,,,,,1,2.489610542,#a3d0fb,,right_blue.png,o,,,,,,o,right_blue.png,right_orange.png,p,left,6058bee6f83bac3e977d4c0b,001,2021-08-09_10h17.19.949,arrow_simon_norep,2021.1.2,Win32,60.58035985,,,,,,,,,,,,,,,,,,,,,q,0,1.5509,57,FALSE,FALSE,14,0,56,0,1,,,,,,,
,,,,,,1,2.045437734,#f3af84,,right_orange.png,p,,,,,,o,right_blue.png,right_orange.png,p,right,6058bee6f83bac3e977d4c0b,001,2021-08-09_10h17.19.949,arrow_simon_norep,2021.1.2,Win32,60.58035985,,,,,,,,,,,,,,,,,,,,,q,0,1.6584,58,TRUE,FALSE,14,1,57,1,1,,,,,,,
,,,,,,1,1.955830844,#a3d0fb,,left_blue.png,w,,,,,,w,left_blue.png,left_orange.png,q,right,6058bee6f83bac3e977d4c0b,001,2021-08-09_10h17.19.949,arrow_simon_norep,2021.1.2,Win32,60.58035985,,,,,,,,,,,,,,,,,,,,,q,0,2.422,59,TRUE,FALSE,14,2,58,3,1,,,,,,,
,,,,,,1,2.286655093,#f3af84,,right_orange.png,p,,,,,,o,right_blue.png,right_orange.png,p,right,6058bee6f83bac3e977d4c0b,001,2021-08-09_10h17.19.949,arrow_simon_norep,2021.1.2,Win32,60.58035985,,,,,,,,,,,,,,,,,,,,,q,0,1.4848,60,FALSE,FALSE,14,3,59,1,1,,,,,,,
,,,,,,,,,,,,,,,,,,,,,,6058bee6f83bac3e977d4c0b,001,2021-08-09_10h17.19.949,arrow_simon_norep,2021.1.2,Win32,60.58035985,,,,,,,,,,,,,,,,,,,,,,,,,,,,,,,,space,428.2079,1,0,1,0,1
,,,,,,1,1.623511777,#a3d0fb,,left_blue.png,w,,,,,,w,left_blue.png,left_orange.png,q,left,6058bee6f83bac3e977d4c0b,001,2021-08-09_10h17.19.949,arrow_simon_norep,2021.1.2,Win32,60.58035985,,,,,,,,,,,,,,,,,,,,,w,1,1.7026,1,TRUE,FALSE,0,0,0,2,1,,,,,,,
,,,,,,1,1.95279712,#f3af84,,left_orange.png,q,,,,,,w,left_blue.png,left_orange.png,q,left,6058bee6f83bac3e977d4c0b,001,2021-08-09_10h17.19.949,arrow_simon_norep,2021.1.2,Win32,60.58035985,,,,,,,,,,,,,,,,,,,,,q,1,1.0341,2,FALSE,TRUE,0,1,1,2,1,,,,,,,
,,,,,,1,2.427850721,#a3d0fb,,left_blue.png,w,,,,,,w,left_blue.png,left_orange.png,q,right,6058bee6f83bac3e977d4c0b,001,2021-08-09_10h17.19.949,arrow_simon_norep,2021.1.2,Win32,60.58035985,,,,,,,,,,,,,,,,,,,,,w,1,1.6566,3,TRUE,FALSE,0,2,2,3,1,,,,,,,
,,,,,,0,2.07408582,#f3af84,,right_orange.png,p,,,,,,o,right_blue.png,right_orange.png,p,left,6058bee6f83bac3e977d4c0b,001,2021-08-09_10h17.19.949,arrow_simon_norep,2021.1.2,Win32,60.58035985,,,,,,,,,,,,,,,,,,,,,p,1,1.4948,4,FALSE,FALSE,0,3,3,0,1,,,,,,,
,,,,,,0,1.999044919,#a3d0fb,,right_blue.png,o,,,,,,o,right_blue.png,right_orange.png,p,left,6058bee6f83bac3e977d4c0b,001,2021-08-09_10h17.19.949,arrow_simon_norep,2021.1.2,Win32,60.58035985,,,,,,,,,,,,,,,,,,,,,o,1,1.5522,5,FALSE,FALSE,1,0,4,0,1,,,,,,,
,,,,,,1,2.170055471,#f3af84,,left_orange.png,q,,,,,,w,left_blue.png,left_orange.png,q,right,6058bee6f83bac3e977d4c0b,001,2021-08-09_10h17.19.949,arrow_simon_norep,2021.1.2,Win32,60.58035985,,,,,,,,,,,,,,,,,,,,,p,0,1.554,6,FALSE,FALSE,1,1,5,3,1,,,,,,,
,,,,,,1,2.20558077,#a3d0fb,,right_blue.png,o,,,,,,o,right_blue.png,right_orange.png,p,left,6058bee6f83bac3e977d4c0b,001,2021-08-09_10h17.19.949,arrow_simon_norep,2021.1.2,Win32,60.58035985,,,,,,,,,,,,,,,,,,,,,w,0,1.5236,7,FALSE,FALSE,1,2,6,0,1,,,,,,,
,,,,,,0,2.426347616,#f3af84,,left_orange.png,q,,,,,,w,left_blue.png,left_orange.png,q,right,6058bee6f83bac3e977d4c0b,001,2021-08-09_10h17.19.949,arrow_simon_norep,2021.1.2,Win32,60.58035985,,,,,,,,,,,,,,,,,,,,,q,1,1.5675,8,FALSE,FALSE,1,3,7,3,1,,,,,,,
,,,,,,0,1.757085836,#a3d0fb,,left_blue.png,w,,,,,,w,left_blue.png,left_orange.png,q,right,6058bee6f83bac3e977d4c0b,001,2021-08-09_10h17.19.949,arrow_simon_norep,2021.1.2,Win32,60.58035985,,,,,,,,,,,,,,,,,,,,,w,1,1.5117,9,FALSE,FALSE,2,0,8,3,1,,,,,,,
,,,,,,0,2.42959397,#f3af84,,right_orange.png,p,,,,,,o,right_blue.png,right_orange.png,p,right,6058bee6f83bac3e977d4c0b,001,2021-08-09_10h17.19.949,arrow_simon_norep,2021.1.2,Win32,60.58035985,,,,,,,,,,,,,,,,,,,,,p,1,1.4897,10,FALSE,FALSE,2,1,9,1,1,,,,,,,
,,,,,,1,2.311423865,#a3d0fb,,right_blue.png,o,,,,,,o,right_blue.png,right_orange.png,p,right,6058bee6f83bac3e977d4c0b,001,2021-08-09_10h17.19.949,arrow_simon_norep,2021.1.2,Win32,60.58035985,,,,,,,,,,,,,,,,,,,,,w,0,1.5274,11,FALSE,FALSE,2,2,10,1,1,,,,,,,
,,,,,,0,2.291246824,#f3af84,,left_orange.png,q,,,,,,w,left_blue.png,left_orange.png,q,left,6058bee6f83bac3e977d4c0b,001,2021-08-09_10h17.19.949,arrow_simon_norep,2021.1.2,Win32,60.58035985,,,,,,,,,,,,,,,,,,,,,q,1,1.4678,12,FALSE,FALSE,2,3,11,2,1,,,,,,,
,,,,,,0,1.895885471,#a3d0fb,,right_blue.png,o,,,,,,o,right_blue.png,right_orange.png,p,right,6058bee6f83bac3e977d4c0b,001,2021-08-09_10h17.19.949,arrow_simon_norep,2021.1.2,Win32,60.58035985,,,,,,,,,,,,,,,,,,,,,o,1,1.4198,13,FALSE,FALSE,3,0,12,1,1,,,,,,,
,,,,,,1,2.292472711,#f3af84,,right_orange.png,p,,,,,,o,right_blue.png,right_orange.png,p,left,6058bee6f83bac3e977d4c0b,001,2021-08-09_10h17.19.949,arrow_simon_norep,2021.1.2,Win32,60.58035985,,,,,,,,,,,,,,,,,,,,,q,0,1.5343,14,FALSE,FALSE,3,1,13,0,1,,,,,,,
,,,,,,0,2.3726391,#a3d0fb,,right_blue.png,o,,,,,,o,right_blue.png,right_orange.png,p,left,6058bee6f83bac3e977d4c0b,001,2021-08-09_10h17.19.949,arrow_simon_norep,2021.1.2,Win32,60.58035985,,,,,,,,,,,,,,,,,,,,,o,1,1.5363,15,FALSE,FALSE,3,2,14,0,1,,,,,,,
,,,,,,0,2.497132964,#f3af84,,left_orange.png,q,,,,,,w,left_blue.png,left_orange.png,q,right,6058bee6f83bac3e977d4c0b,001,2021-08-09_10h17.19.949,arrow_simon_norep,2021.1.2,Win32,60.58035985,,,,,,,,,,,,,,,,,,,,,p,0,1.6664,16,TRUE,FALSE,3,3,15,3,1,,,,,,,
,,,,,,1,2.236181918,#a3d0fb,,right_blue.png,o,,,,,,o,right_blue.png,right_orange.png,p,left,6058bee6f83bac3e977d4c0b,001,2021-08-09_10h17.19.949,arrow_simon_norep,2021.1.2,Win32,60.58035985,,,,,,,,,,,,,,,,,,,,,w,0,1.5181,17,FALSE,FALSE,4,0,16,0,1,,,,,,,
,,,,,,0,2.457332452,#f3af84,,left_orange.png,q,,,,,,w,left_blue.png,left_orange.png,q,right,6058bee6f83bac3e977d4c0b,001,2021-08-09_10h17.19.949,arrow_simon_norep,2021.1.2,Win32,60.58035985,,,,,,,,,,,,,,,,,,,,,q,1,1.593,18,FALSE,FALSE,4,1,17,3,1,,,,,,,
,,,,,,0,1.688730673,#a3d0fb,,right_blue.png,o,,,,,,o,right_blue.png,right_orange.png,p,left,6058bee6f83bac3e977d4c0b,001,2021-08-09_10h17.19.949,arrow_simon_norep,2021.1.2,Win32,60.58035985,,,,,,,,,,,,,,,,,,,,,o,1,1.5537,19,FALSE,FALSE,4,2,18,0,1,,,,,,,
,,,,,,0,1.820514201,#f3af84,,right_orange.png,p,,,,,,o,right_blue.png,right_orange.png,p,left,6058bee6f83bac3e977d4c0b,001,2021-08-09_10h17.19.949,arrow_simon_norep,2021.1.2,Win32,60.58035985,,,,,,,,,,,,,,,,,,,,,p,1,1.5539,20,FALSE,FALSE,4,3,19,0,1,,,,,,,
,,,,,,0,2.136228617,#a3d0fb,,right_blue.png,o,,,,,,o,right_blue.png,right_orange.png,p,right,6058bee6f83bac3e977d4c0b,001,2021-08-09_10h17.19.949,arrow_simon_norep,2021.1.2,Win32,60.58035985,,,,,,,,,,,,,,,,,,,,,o,1,1.5263,21,FALSE,FALSE,5,0,20,1,1,,,,,,,
,,,,,,0,2.498509051,#f3af84,,right_orange.png,p,,,,,,o,right_blue.png,right_orange.png,p,left,6058bee6f83bac3e977d4c0b,001,2021-08-09_10h17.19.949,arrow_simon_norep,2021.1.2,Win32,60.58035985,,,,,,,,,,,,,,,,,,,,,q,0,1.6509,22,TRUE,FALSE,5,1,21,0,1,,,,,,,
,,,,,,0,2.160642398,#a3d0fb,,left_blue.png,w,,,,,,w,left_blue.png,left_orange.png,q,left,6058bee6f83bac3e977d4c0b,001,2021-08-09_10h17.19.949,arrow_simon_norep,2021.1.2,Win32,60.58035985,,,,,,,,,,,,,,,,,,,,,w,1,1.4673,23,FALSE,FALSE,5,2,22,2,1,,,,,,,
,,,,,,0,2.177800058,#f3af84,,left_orange.png,q,,,,,,w,left_blue.png,left_orange.png,q,left,6058bee6f83bac3e977d4c0b,001,2021-08-09_10h17.19.949,arrow_simon_norep,2021.1.2,Win32,60.58035985,,,,,,,,,,,,,,,,,,,,,q,1,1.1373,24,FALSE,TRUE,5,3,23,2,1,,,,,,,
,,,,,,0,2.442508483,#a3d0fb,,left_blue.png,w,,,,,,w,left_blue.png,left_orange.png,q,right,6058bee6f83bac3e977d4c0b,001,2021-08-09_10h17.19.949,arrow_simon_norep,2021.1.2,Win32,60.58035985,,,,,,,,,,,,,,,,,,,,,w,1,1.6744,25,TRUE,FALSE,6,0,24,3,1,,,,,,,
,,,,,,1,2.448022292,#f3af84,,right_orange.png,p,,,,,,o,right_blue.png,right_orange.png,p,right,6058bee6f83bac3e977d4c0b,001,2021-08-09_10h17.19.949,arrow_simon_norep,2021.1.2,Win32,60.58035985,,,,,,,,,,,,,,,,,,,,,q,0,1.5507,26,FALSE,FALSE,6,1,25,1,1,,,,,,,
,,,,,,1,2.034641918,#a3d0fb,,left_blue.png,w,,,,,,w,left_blue.png,left_orange.png,q,right,6058bee6f83bac3e977d4c0b,001,2021-08-09_10h17.19.949,arrow_simon_norep,2021.1.2,Win32,60.58035985,,,,,,,,,,,,,,,,,,,,,w,1,1.1755,27,FALSE,TRUE,6,2,26,3,1,,,,,,,
,,,,,,1,1.731674152,#f3af84,,right_orange.png,p,,,,,,o,right_blue.png,right_orange.png,p,right,6058bee6f83bac3e977d4c0b,001,2021-08-09_10h17.19.949,arrow_simon_norep,2021.1.2,Win32,60.58035985,,,,,,,,,,,,,,,,,,,,,w,0,1.9038,28,TRUE,FALSE,6,3,27,1,1,,,,,,,
,,,,,,0,1.702445449,#a3d0fb,,left_blue.png,w,,,,,,w,left_blue.png,left_orange.png,q,left,6058bee6f83bac3e977d4c0b,001,2021-08-09_10h17.19.949,arrow_simon_norep,2021.1.2,Win32,60.58035985,,,,,,,,,,,,,,,,,,,,,w,1,1.4841,29,FALSE,FALSE,7,0,28,2,1,,,,,,,
,,,,,,1,1.93368173,#f3af84,,right_orange.png,p,,,,,,o,right_blue.png,right_orange.png,p,left,6058bee6f83bac3e977d4c0b,001,2021-08-09_10h17.19.949,arrow_simon_norep,2021.1.2,Win32,60.58035985,,,,,,,,,,,,,,,,,,,,,q,0,1.5403,30,FALSE,FALSE,7,1,29,0,1,,,,,,,
,,,,,,1,1.736298061,#a3d0fb,,right_blue.png,o,,,,,,o,right_blue.png,right_orange.png,p,right,6058bee6f83bac3e977d4c0b,001,2021-08-09_10h17.19.949,arrow_simon_norep,2021.1.2,Win32,60.58035985,,,,,,,,,,,,,,,,,,,,,w,0,1.5243,31,FALSE,FALSE,7,2,30,1,1,,,,,,,
,,,,,,0,2.299998757,#f3af84,,left_orange.png,q,,,,,,w,left_blue.png,left_orange.png,q,right,6058bee6f83bac3e977d4c0b,001,2021-08-09_10h17.19.949,arrow_simon_norep,2021.1.2,Win32,60.58035985,,,,,,,,,,,,,,,,,,,,,q,1,1.5096,32,FALSE,FALSE,7,3,31,3,1,,,,,,,
,,,,,,0,2.281578299,#a3d0fb,,right_blue.png,o,,,,,,o,right_blue.png,right_orange.png,p,right,6058bee6f83bac3e977d4c0b,001,2021-08-09_10h17.19.949,arrow_simon_norep,2021.1.2,Win32,60.58035985,,,,,,,,,,,,,,,,,,,,,w,0,1.6671,33,TRUE,FALSE,8,0,32,1,1,,,,,,,
,,,,,,0,1.672617412,#f3af84,,left_orange.png,q,,,,,,w,left_blue.png,left_orange.png,q,right,6058bee6f83bac3e977d4c0b,001,2021-08-09_10h17.19.949,arrow_simon_norep,2021.1.2,Win32,60.58035985,,,,,,,,,,,,,,,,,,,,,q,1,1.1006,34,FALSE,TRUE,8,1,33,3,1,,,,,,,
,,,,,,0,2.336642537,#a3d0fb,,left_blue.png,w,,,,,,w,left_blue.png,left_orange.png,q,left,6058bee6f83bac3e977d4c0b,001,2021-08-09_10h17.19.949,arrow_simon_norep,2021.1.2,Win32,60.58035985,,,,,,,,,,,,,,,,,,,,,w,1,1.5856,35,FALSE,FALSE,8,2,34,2,1,,,,,,,
,,,,,,0,1.528465918,#f3af84,,left_orange.png,q,,,,,,w,left_blue.png,left_orange.png,q,left,6058bee6f83bac3e977d4c0b,001,2021-08-09_10h17.19.949,arrow_simon_norep,2021.1.2,Win32,60.58035985,,,,,,,,,,,,,,,,,,,,,q,1,1.0367,36,FALSE,TRUE,8,3,35,2,1,,,,,,,
,,,,,,1,1.823284076,#a3d0fb,,left_blue.png,w,,,,,,w,left_blue.png,left_orange.png,q,left,6058bee6f83bac3e977d4c0b,001,2021-08-09_10h17.19.949,arrow_simon_norep,2021.1.2,Win32,60.58035985,,,,,,,,,,,,,,,,,,,,,q,0,1.5347,37,FALSE,FALSE,9,0,36,2,1,,,,,,,
,,,,,,1,2.042841439,#f3af84,,right_orange.png,p,,,,,,o,right_blue.png,right_orange.png,p,right,6058bee6f83bac3e977d4c0b,001,2021-08-09_10h17.19.949,arrow_simon_norep,2021.1.2,Win32,60.58035985,,,,,,,,,,,,,,,,,,,,,w,0,1.5174,38,FALSE,FALSE,9,1,37,1,1,,,,,,,
,,,,,,0,2.16854884,#a3d0fb,,left_blue.png,w,,,,,,w,left_blue.png,left_orange.png,q,left,6058bee6f83bac3e977d4c0b,001,2021-08-09_10h17.19.949,arrow_simon_norep,2021.1.2,Win32,60.58035985,,,,,,,,,,,,,,,,,,,,,w,1,1.4917,39,FALSE,FALSE,9,2,38,2,1,,,,,,,
,,,,,,0,2.108737015,#f3af84,,left_orange.png,q,,,,,,w,left_blue.png,left_orange.png,q,left,6058bee6f83bac3e977d4c0b,001,2021-08-09_10h17.19.949,arrow_simon_norep,2021.1.2,Win32,60.58035985,,,,,,,,,,,,,,,,,,,,,q,1,1.5072,40,FALSE,FALSE,9,3,39,2,1,,,,,,,
,,,,,,1,1.753121908,#a3d0fb,,right_blue.png,o,,,,,,o,right_blue.png,right_orange.png,p,right,6058bee6f83bac3e977d4c0b,001,2021-08-09_10h17.19.949,arrow_simon_norep,2021.1.2,Win32,60.58035985,,,,,,,,,,,,,,,,,,,,,w,0,1.5036,41,FALSE,FALSE,10,0,40,1,1,,,,,,,
,,,,,,1,2.168914651,#f3af84,,right_orange.png,p,,,,,,o,right_blue.png,right_orange.png,p,right,6058bee6f83bac3e977d4c0b,001,2021-08-09_10h17.19.949,arrow_simon_norep,2021.1.2,Win32,60.58035985,,,,,,,,,,,,,,,,,,,,,q,0,1.5391,42,FALSE,FALSE,10,1,41,1,1,,,,,,,
,,,,,,1,2.262438007,#a3d0fb,,right_blue.png,o,,,,,,o,right_blue.png,right_orange.png,p,right,6058bee6f83bac3e977d4c0b,001,2021-08-09_10h17.19.949,arrow_simon_norep,2021.1.2,Win32,60.58035985,,,,,,,,,,,,,,,,,,,,,w,0,1.4774,43,FALSE,FALSE,10,2,42,1,1,,,,,,,
,,,,,,0,2.488274668,#f3af84,,left_orange.png,q,,,,,,w,left_blue.png,left_orange.png,q,left,6058bee6f83bac3e977d4c0b,001,2021-08-09_10h17.19.949,arrow_simon_norep,2021.1.2,Win32,60.58035985,,,,,,,,,,,,,,,,,,,,,q,1,1.5229,44,FALSE,FALSE,10,3,43,2,1,,,,,,,
,,,,,,1,1.835009403,#a3d0fb,,right_blue.png,o,,,,,,o,right_blue.png,right_orange.png,p,right,6058bee6f83bac3e977d4c0b,001,2021-08-09_10h17.19.949,arrow_simon_norep,2021.1.2,Win32,60.58035985,,,,,,,,,,,,,,,,,,,,,w,0,1.5172,45,FALSE,FALSE,11,0,44,1,1,,,,,,,
,,,,,,0,1.814554531,#f3af84,,left_orange.png,q,,,,,,w,left_blue.png,left_orange.png,q,right,6058bee6f83bac3e977d4c0b,001,2021-08-09_10h17.19.949,arrow_simon_norep,2021.1.2,Win32,60.58035985,,,,,,,,,,,,,,,,,,,,,q,1,1.5088,46,FALSE,FALSE,11,1,45,3,1,,,,,,,
,,,,,,1,1.787545577,#a3d0fb,,right_blue.png,o,,,,,,o,right_blue.png,right_orange.png,p,right,6058bee6f83bac3e977d4c0b,001,2021-08-09_10h17.19.949,arrow_simon_norep,2021.1.2,Win32,60.58035985,,,,,,,,,,,,,,,,,,,,,w,0,1.4744,47,FALSE,FALSE,11,2,46,1,1,,,,,,,
,,,,,,1,1.738178652,#f3af84,,right_orange.png,p,,,,,,o,right_blue.png,right_orange.png,p,left,6058bee6f83bac3e977d4c0b,001,2021-08-09_10h17.19.949,arrow_simon_norep,2021.1.2,Win32,60.58035985,,,,,,,,,,,,,,,,,,,,,q,0,1.373,48,FALSE,TRUE,11,3,47,0,1,,,,,,,
,,,,,,1,1.85600856,#a3d0fb,,right_blue.png,o,,,,,,o,right_blue.png,right_orange.png,p,right,6058bee6f83bac3e977d4c0b,001,2021-08-09_10h17.19.949,arrow_simon_norep,2021.1.2,Win32,60.58035985,,,,,,,,,,,,,,,,,,,,,w,0,1.5173,49,FALSE,FALSE,12,0,48,1,1,,,,,,,
,,,,,,0,2.248604599,#f3af84,,left_orange.png,q,,,,,,w,left_blue.png,left_orange.png,q,right,6058bee6f83bac3e977d4c0b,001,2021-08-09_10h17.19.949,arrow_simon_norep,2021.1.2,Win32,60.58035985,,,,,,,,,,,,,,,,,,,,,q,1,1.5331,50,FALSE,FALSE,12,1,49,3,1,,,,,,,
,,,,,,1,1.514578805,#a3d0fb,,right_blue.png,o,,,,,,o,right_blue.png,right_orange.png,p,left,6058bee6f83bac3e977d4c0b,001,2021-08-09_10h17.19.949,arrow_simon_norep,2021.1.2,Win32,60.58035985,,,,,,,,,,,,,,,,,,,,,w,0,1.5346,51,FALSE,FALSE,12,2,50,0,1,,,,,,,
,,,,,,0,2.123929306,#f3af84,,left_orange.png,q,,,,,,w,left_blue.png,left_orange.png,q,left,6058bee6f83bac3e977d4c0b,001,2021-08-09_10h17.19.949,arrow_simon_norep,2021.1.2,Win32,60.58035985,,,,,,,,,,,,,,,,,,,,,q,1,1.5398,52,FALSE,FALSE,12,3,51,2,1,,,,,,,
,,,,,,1,1.85003747,#a3d0fb,,right_blue.png,o,,,,,,o,right_blue.png,right_orange.png,p,left,6058bee6f83bac3e977d4c0b,001,2021-08-09_10h17.19.949,arrow_simon_norep,2021.1.2,Win32,60.58035985,,,,,,,,,,,,,,,,,,,,,w,0,1.5669,53,FALSE,FALSE,13,0,52,0,1,,,,,,,
,,,,,,1,1.583340199,#f3af84,,right_orange.png,p,,,,,,o,right_blue.png,right_orange.png,p,left,6058bee6f83bac3e977d4c0b,001,2021-08-09_10h17.19.949,arrow_simon_norep,2021.1.2,Win32,60.58035985,,,,,,,,,,,,,,,,,,,,,w,0,1.541,54,FALSE,FALSE,13,1,53,0,1,,,,,,,
,,,,,,1,1.638571188,#a3d0fb,,left_blue.png,w,,,,,,w,left_blue.png,left_orange.png,q,left,6058bee6f83bac3e977d4c0b,001,2021-08-09_10h17.19.949,arrow_simon_norep,2021.1.2,Win32,60.58035985,,,,,,,,,,,,,,,,,,,,,q,0,1.5018,55,FALSE,FALSE,13,2,54,2,1,,,,,,,
,,,,,,1,2.013372822,#f3af84,,right_orange.png,p,,,,,,o,right_blue.png,right_orange.png,p,left,6058bee6f83bac3e977d4c0b,001,2021-08-09_10h17.19.949,arrow_simon_norep,2021.1.2,Win32,60.58035985,,,,,,,,,,,,,,,,,,,,,q,0,1.7545,56,TRUE,FALSE,13,3,55,0,1,,,,,,,
,,,,,,0,1.683670897,#a3d0fb,,left_blue.png,w,,,,,,w,left_blue.png,left_orange.png,q,right,6058bee6f83bac3e977d4c0b,001,2021-08-09_10h17.19.949,arrow_simon_norep,2021.1.2,Win32,60.58035985,,,,,,,,,,,,,,,,,,,,,w,1,1.5341,57,FALSE,FALSE,14,0,56,3,1,,,,,,,
,,,,,,0,2.065721888,#f3af84,,left_orange.png,q,,,,,,w,left_blue.png,left_orange.png,q,right,6058bee6f83bac3e977d4c0b,001,2021-08-09_10h17.19.949,arrow_simon_norep,2021.1.2,Win32,60.58035985,,,,,,,,,,,,,,,,,,,,,q,1,1.5485,58,FALSE,FALSE,14,1,57,3,1,,,,,,,
,,,,,,0,1.717938786,#a3d0fb,,left_blue.png,w,,,,,,w,left_blue.png,left_orange.png,q,right,6058bee6f83bac3e977d4c0b,001,2021-08-09_10h17.19.949,arrow_simon_norep,2021.1.2,Win32,60.58035985,,,,,,,,,,,,,,,,,,,,,w,1,1.5196,59,FALSE,FALSE,14,2,58,3,1,,,,,,,
,,,,,,0,2.295829421,#f3af84,,left_orange.png,q,,,,,,w,left_blue.png,left_orange.png,q,left,6058bee6f83bac3e977d4c0b,001,2021-08-09_10h17.19.949,arrow_simon_norep,2021.1.2,Win32,60.58035985,,,,,,,,,,,,,,,,,,,,,q,1,1.5053,60,FALSE,FALSE,14,3,59,2,1,,,,,,,
,,,,,,,,,,,,,,,,,,,,,,6058bee6f83bac3e977d4c0b,001,2021-08-09_10h17.19.949,arrow_simon_norep,2021.1.2,Win32,60.58035985,,,,,,,,,,,,,,,,,,,,,,,,,,,,,,,,space,681.6941,2,0,2,0,1
,,,,,,0,1.813599619,#a3d0fb,,left_blue.png,w,,,,,,w,left_blue.png,left_orange.png,q,left,6058bee6f83bac3e977d4c0b,001,2021-08-09_10h17.19.949,arrow_simon_norep,2021.1.2,Win32,60.58035985,,,,,,,,,,,,,,,,,,,,,w,1,1.5756,1,FALSE,FALSE,0,0,0,2,1,,,,,,,
,,,,,,0,2.418331142,#f3af84,,right_orange.png,p,,,,,,o,right_blue.png,right_orange.png,p,right,6058bee6f83bac3e977d4c0b,001,2021-08-09_10h17.19.949,arrow_simon_norep,2021.1.2,Win32,60.58035985,,,,,,,,,,,,,,,,,,,,,p,1,1.6166,2,TRUE,FALSE,0,1,1,1,1,,,,,,,
,,,,,,0,1.734823404,#a3d0fb,,right_blue.png,o,,,,,,o,right_blue.png,right_orange.png,p,left,6058bee6f83bac3e977d4c0b,001,2021-08-09_10h17.19.949,arrow_simon_norep,2021.1.2,Win32,60.58035985,,,,,,,,,,,,,,,,,,,,,o,1,1.5179,3,FALSE,FALSE,0,2,2,0,1,,,,,,,
,,,,,,1,2.255255923,#f3af84,,right_orange.png,p,,,,,,o,right_blue.png,right_orange.png,p,left,6058bee6f83bac3e977d4c0b,001,2021-08-09_10h17.19.949,arrow_simon_norep,2021.1.2,Win32,60.58035985,,,,,,,,,,,,,,,,,,,,,q,0,1.5186,4,FALSE,FALSE,0,3,3,0,1,,,,,,,
,,,,,,0,2.310802383,#a3d0fb,,left_blue.png,w,,,,,,w,left_blue.png,left_orange.png,q,right,6058bee6f83bac3e977d4c0b,001,2021-08-09_10h17.19.949,arrow_simon_norep,2021.1.2,Win32,60.58035985,,,,,,,,,,,,,,,,,,,,,w,1,1.5672,5,FALSE,FALSE,1,0,4,3,1,,,,,,,
,,,,,,0,1.558612543,#f3af84,,right_orange.png,p,,,,,,o,right_blue.png,right_orange.png,p,left,6058bee6f83bac3e977d4c0b,001,2021-08-09_10h17.19.949,arrow_simon_norep,2021.1.2,Win32,60.58035985,,,,,,,,,,,,,,,,,,,,,p,1,1.5056,6,FALSE,FALSE,1,1,5,0,1,,,,,,,
,,,,,,0,1.948162754,#a3d0fb,,right_blue.png,o,,,,,,o,right_blue.png,right_orange.png,p,left,6058bee6f83bac3e977d4c0b,001,2021-08-09_10h17.19.949,arrow_simon_norep,2021.1.2,Win32,60.58035985,,,,,,,,,,,,,,,,,,,,,o,1,1.5046,7,FALSE,FALSE,1,2,6,0,1,,,,,,,
,,,,,,0,1.539388204,#f3af84,,left_orange.png,q,,,,,,w,left_blue.png,left_orange.png,q,right,6058bee6f83bac3e977d4c0b,001,2021-08-09_10h17.19.949,arrow_simon_norep,2021.1.2,Win32,60.58035985,,,,,,,,,,,,,,,,,,,,,q,1,1.5235,8,FALSE,FALSE,1,3,7,3,1,,,,,,,
,,,,,,1,2.195605248,#a3d0fb,,left_blue.png,w,,,,,,w,left_blue.png,left_orange.png,q,left,6058bee6f83bac3e977d4c0b,001,2021-08-09_10h17.19.949,arrow_simon_norep,2021.1.2,Win32,60.58035985,,,,,,,,,,,,,,,,,,,,,o,0,1.4965,9,FALSE,FALSE,2,0,8,2,1,,,,,,,
,,,,,,0,1.583823822,#f3af84,,right_orange.png,p,,,,,,o,right_blue.png,right_orange.png,p,right,6058bee6f83bac3e977d4c0b,001,2021-08-09_10h17.19.949,arrow_simon_norep,2021.1.2,Win32,60.58035985,,,,,,,,,,,,,,,,,,,,,p,1,1.495,10,FALSE,FALSE,2,1,9,1,1,,,,,,,
,,,,,,0,2.191882933,#a3d0fb,,right_blue.png,o,,,,,,o,right_blue.png,right_orange.png,p,left,6058bee6f83bac3e977d4c0b,001,2021-08-09_10h17.19.949,arrow_simon_norep,2021.1.2,Win32,60.58035985,,,,,,,,,,,,,,,,,,,,,w,0,1.0541,11,FALSE,TRUE,2,2,10,0,1,,,,,,,
,,,,,,0,2.057297614,#f3af84,,right_orange.png,p,,,,,,o,right_blue.png,right_orange.png,p,right,6058bee6f83bac3e977d4c0b,001,2021-08-09_10h17.19.949,arrow_simon_norep,2021.1.2,Win32,60.58035985,,,,,,,,,,,,,,,,,,,,,p,1,1.5495,12,FALSE,FALSE,2,3,11,1,1,,,,,,,
,,,,,,0,1.512308547,#a3d0fb,,left_blue.png,w,,,,,,w,left_blue.png,left_orange.png,q,right,6058bee6f83bac3e977d4c0b,001,2021-08-09_10h17.19.949,arrow_simon_norep,2021.1.2,Win32,60.58035985,,,,,,,,,,,,,,,,,,,,,w,1,1.5608,13,FALSE,FALSE,3,0,12,3,1,,,,,,,
,,,,,,0,1.83733733,#f3af84,,right_orange.png,p,,,,,,o,right_blue.png,right_orange.png,p,right,6058bee6f83bac3e977d4c0b,001,2021-08-09_10h17.19.949,arrow_simon_norep,2021.1.2,Win32,60.58035985,,,,,,,,,,,,,,,,,,,,,p,1,1.534,14,FALSE,FALSE,3,1,13,1,1,,,,,,,
,,,,,,0,2.021402789,#a3d0fb,,right_blue.png,o,,,,,,o,right_blue.png,right_orange.png,p,left,6058bee6f83bac3e977d4c0b,001,2021-08-09_10h17.19.949,arrow_simon_norep,2021.1.2,Win32,60.58035985,,,,,,,,,,,,,,,,,,,,,o,1,1.5671,15,FALSE,FALSE,3,2,14,0,1,,,,,,,
,,,,,,0,1.90250926,#f3af84,,right_orange.png,p,,,,,,o,right_blue.png,right_orange.png,p,left,6058bee6f83bac3e977d4c0b,001,2021-08-09_10h17.19.949,arrow_simon_norep,2021.1.2,Win32,60.58035985,,,,,,,,,,,,,,,,,,,,,p,1,1.5171,16,FALSE,FALSE,3,3,15,0,1,,,,,,,
,,,,,,0,1.565094176,#a3d0fb,,right_blue.png,o,,,,,,o,right_blue.png,right_orange.png,p,right,6058bee6f83bac3e977d4c0b,001,2021-08-09_10h17.19.949,arrow_simon_norep,2021.1.2,Win32,60.58035985,,,,,,,,,,,,,,,,,,,,,o,1,1.5335,17,FALSE,FALSE,4,0,16,1,1,,,,,,,
,,,,,,0,1.896959377,#f3af84,,right_orange.png,p,,,,,,o,right_blue.png,right_orange.png,p,right,6058bee6f83bac3e977d4c0b,001,2021-08-09_10h17.19.949,arrow_simon_norep,2021.1.2,Win32,60.58035985,,,,,,,,,,,,,,,,,,,,,p,1,1.5172,18,FALSE,FALSE,4,1,17,1,1,,,,,,,
,,,,,,0,2.098281163,#a3d0fb,,right_blue.png,o,,,,,,o,right_blue.png,right_orange.png,p,left,6058bee6f83bac3e977d4c0b,001,2021-08-09_10h17.19.949,arrow_simon_norep,2021.1.2,Win32,60.58035985,,,,,,,,,,,,,,,,,,,,,o,1,1.6399,19,TRUE,FALSE,4,2,18,0,1,,,,,,,
,,,,,,0,2.001301719,#f3af84,,left_orange.png,q,,,,,,w,left_blue.png,left_orange.png,q,left,6058bee6f83bac3e977d4c0b,001,2021-08-09_10h17.19.949,arrow_simon_norep,2021.1.2,Win32,60.58035985,,,,,,,,,,,,,,,,,,,,,q,1,1.5704,20,FALSE,FALSE,4,3,19,2,1,,,,,,,
,,,,,,1,2.267506603,#a3d0fb,,left_blue.png,w,,,,,,w,left_blue.png,left_orange.png,q,right,6058bee6f83bac3e977d4c0b,001,2021-08-09_10h17.19.949,arrow_simon_norep,2021.1.2,Win32,60.58035985,,,,,,,,,,,,,,,,,,,,,o,0,1.5339,21,FALSE,FALSE,5,0,20,3,1,,,,,,,
,,,,,,0,1.625054165,#f3af84,,right_orange.png,p,,,,,,o,right_blue.png,right_orange.png,p,right,6058bee6f83bac3e977d4c0b,001,2021-08-09_10h17.19.949,arrow_simon_norep,2021.1.2,Win32,60.58035985,,,,,,,,,,,,,,,,,,,,,p,1,1.4882,22,FALSE,FALSE,5,1,21,1,1,,,,,,,
,,,,,,0,2.177705433,#a3d0fb,,left_blue.png,w,,,,,,w,left_blue.png,left_orange.png,q,right,6058bee6f83bac3e977d4c0b,001,2021-08-09_10h17.19.949,arrow_simon_norep,2021.1.2,Win32,60.58035985,,,,,,,,,,,,,,,,,,,,,w,1,1.5666,23,FALSE,FALSE,5,2,22,3,1,,,,,,,
,,,,,,0,1.584453699,#f3af84,,left_orange.png,q,,,,,,w,left_blue.png,left_orange.png,q,left,6058bee6f83bac3e977d4c0b,001,2021-08-09_10h17.19.949,arrow_simon_norep,2021.1.2,Win32,60.58035985,,,,,,,,,,,,,,,,,,,,,q,1,1.5002,24,FALSE,FALSE,5,3,23,2,1,,,,,,,
,,,,,,0,1.643467994,#a3d0fb,,left_blue.png,w,,,,,,w,left_blue.png,left_orange.png,q,left,6058bee6f83bac3e977d4c0b,001,2021-08-09_10h17.19.949,arrow_simon_norep,2021.1.2,Win32,60.58035985,,,,,,,,,,,,,,,,,,,,,w,1,1.5341,25,FALSE,FALSE,6,0,24,2,1,,,,,,,
,,,,,,1,2.303418617,#f3af84,,left_orange.png,q,,,,,,w,left_blue.png,left_orange.png,q,left,6058bee6f83bac3e977d4c0b,001,2021-08-09_10h17.19.949,arrow_simon_norep,2021.1.2,Win32,60.58035985,,,,,,,,,,,,,,,,,,,,,p,0,1.5418,26,FALSE,FALSE,6,1,25,2,1,,,,,,,
,,,,,,0,1.682102524,#a3d0fb,,right_blue.png,o,,,,,,o,right_blue.png,right_orange.png,p,right,6058bee6f83bac3e977d4c0b,001,2021-08-09_10h17.19.949,arrow_simon_norep,2021.1.2,Win32,60.58035985,,,,,,,,,,,,,,,,,,,,,o,1,1.5058,27,FALSE,FALSE,6,2,26,1,1,,,,,,,
,,,,,,0,1.746991001,#f3af84,,left_orange.png,q,,,,,,w,left_blue.png,left_orange.png,q,right,6058bee6f83bac3e977d4c0b,001,2021-08-09_10h17.19.949,arrow_simon_norep,2021.1.2,Win32,60.58035985,,,,,,,,,,,,,,,,,,,,,q,1,1.5536,28,FALSE,FALSE,6,3,27,3,1,,,,,,,
,,,,,,0,2.489680918,#a3d0fb,,left_blue.png,w,,,,,,w,left_blue.png,left_orange.png,q,left,6058bee6f83bac3e977d4c0b,001,2021-08-09_10h17.19.949,arrow_simon_norep,2021.1.2,Win32,60.58035985,,,,,,,,,,,,,,,,,,,,,o,0,1.6004,29,TRUE,FALSE,7,0,28,2,1,,,,,,,
,,,,,,1,2.346841333,#f3af84,,left_orange.png,q,,,,,,w,left_blue.png,left_orange.png,q,right,6058bee6f83bac3e977d4c0b,001,2021-08-09_10h17.19.949,arrow_simon_norep,2021.1.2,Win32,60.58035985,,,,,,,,,,,,,,,,,,,,,p,0,1.5409,30,FALSE,FALSE,7,1,29,3,1,,,,,,,
,,,,,,0,2.43728311,#a3d0fb,,right_blue.png,o,,,,,,o,right_blue.png,right_orange.png,p,right,6058bee6f83bac3e977d4c0b,001,2021-08-09_10h17.19.949,arrow_simon_norep,2021.1.2,Win32,60.58035985,,,,,,,,,,,,,,,,,,,,,o,1,1.5607,31,FALSE,FALSE,7,2,30,1,1,,,,,,,
,,,,,,0,1.902105349,#f3af84,,left_orange.png,q,,,,,,w,left_blue.png,left_orange.png,q,left,6058bee6f83bac3e977d4c0b,001,2021-08-09_10h17.19.949,arrow_simon_norep,2021.1.2,Win32,60.58035985,,,,,,,,,,,,,,,,,,,,,q,1,1.4876,32,FALSE,FALSE,7,3,31,2,1,,,,,,,
,,,,,,1,2.121113189,#a3d0fb,,left_blue.png,w,,,,,,w,left_blue.png,left_orange.png,q,left,6058bee6f83bac3e977d4c0b,001,2021-08-09_10h17.19.949,arrow_simon_norep,2021.1.2,Win32,60.58035985,,,,,,,,,,,,,,,,,,,,,q,0,1.5674,33,FALSE,FALSE,8,0,32,2,1,,,,,,,
,,,,,,0,1.73652444,#f3af84,,left_orange.png,q,,,,,,w,left_blue.png,left_orange.png,q,left,6058bee6f83bac3e977d4c0b,001,2021-08-09_10h17.19.949,arrow_simon_norep,2021.1.2,Win32,60.58035985,,,,,,,,,,,,,,,,,,,,,q,1,1.5271,34,FALSE,FALSE,8,1,33,2,1,,,,,,,
,,,,,,0,1.782119248,#a3d0fb,,left_blue.png,w,,,,,,w,left_blue.png,left_orange.png,q,right,6058bee6f83bac3e977d4c0b,001,2021-08-09_10h17.19.949,arrow_simon_norep,2021.1.2,Win32,60.58035985,,,,,,,,,,,,,,,,,,,,,w,1,1.4839,35,FALSE,FALSE,8,2,34,3,1,,,,,,,
,,,,,,0,1.693683103,#f3af84,,left_orange.png,q,,,,,,w,left_blue.png,left_orange.png,q,right,6058bee6f83bac3e977d4c0b,001,2021-08-09_10h17.19.949,arrow_simon_norep,2021.1.2,Win32,60.58035985,,,,,,,,,,,,,,,,,,,,,q,1,1.4983,36,FALSE,FALSE,8,3,35,3,1,,,,,,,
,,,,,,0,2.07926053,#a3d0fb,,right_blue.png,o,,,,,,o,right_blue.png,right_orange.png,p,right,6058bee6f83bac3e977d4c0b,001,2021-08-09_10h17.19.949,arrow_simon_norep,2021.1.2,Win32,60.58035985,,,,,,,,,,,,,,,,,,,,,o,1,1.5503,37,FALSE,FALSE,9,0,36,1,1,,,,,,,
,,,,,,1,2.450871668,#f3af84,,right_orange.png,p,,,,,,o,right_blue.png,right_orange.png,p,left,6058bee6f83bac3e977d4c0b,001,2021-08-09_10h17.19.949,arrow_simon_norep,2021.1.2,Win32,60.58035985,,,,,,,,,,,,,,,,,,,,,q,0,1.5841,38,FALSE,FALSE,9,1,37,0,1,,,,,,,
,,,,,,0,2.055906488,#a3d0fb,,left_blue.png,w,,,,,,w,left_blue.png,left_orange.png,q,right,6058bee6f83bac3e977d4c0b,001,2021-08-09_10h17.19.949,arrow_simon_norep,2021.1.2,Win32,60.58035985,,,,,,,,,,,,,,,,,,,,,w,1,1.5398,39,FALSE,FALSE,9,2,38,3,1,,,,,,,
,,,,,,0,2.061808321,#f3af84,,left_orange.png,q,,,,,,w,left_blue.png,left_orange.png,q,left,6058bee6f83bac3e977d4c0b,001,2021-08-09_10h17.19.949,arrow_simon_norep,2021.1.2,Win32,60.58035985,,,,,,,,,,,,,,,,,,,,,q,1,1.4518,40,FALSE,FALSE,9,3,39,2,1,,,,,,,
,,,,,,0,2.12784203,#a3d0fb,,left_blue.png,w,,,,,,w,left_blue.png,left_orange.png,q,left,6058bee6f83bac3e977d4c0b,001,2021-08-09_10h17.19.949,arrow_simon_norep,2021.1.2,Win32,60.58035985,,,,,,,,,,,,,,,,,,,,,w,1,1.5091,41,FALSE,FALSE,10,0,40,2,1,,,,,,,
,,,,,,0,1.537333637,#f3af84,,left_orange.png,q,,,,,,w,left_blue.png,left_orange.png,q,right,6058bee6f83bac3e977d4c0b,001,2021-08-09_10h17.19.949,arrow_simon_norep,2021.1.2,Win32,60.58035985,,,,,,,,,,,,,,,,,,,,,q,1,1.6505,42,TRUE,FALSE,10,1,41,3,1,,,,,,,
,,,,,,0,1.934902329,#a3d0fb,,left_blue.png,w,,,,,,w,left_blue.png,left_orange.png,q,left,6058bee6f83bac3e977d4c0b,001,2021-08-09_10h17.19.949,arrow_simon_norep,2021.1.2,Win32,60.58035985,,,,,,,,,,,,,,,,,,,,,w,1,0.9397,43,FALSE,TRUE,10,2,42,2,1,,,,,,,
,,,,,,0,2.086186723,#f3af84,,left_orange.png,q,,,,,,w,left_blue.png,left_orange.png,q,right,6058bee6f83bac3e977d4c0b,001,2021-08-09_10h17.19.949,arrow_simon_norep,2021.1.2,Win32,60.58035985,,,,,,,,,,,,,,,,,,,,,q,1,1.5673,44,FALSE,FALSE,10,3,43,3,1,,,,,,,
,,,,,,0,1.587236459,#a3d0fb,,left_blue.png,w,,,,,,w,left_blue.png,left_orange.png,q,left,6058bee6f83bac3e977d4c0b,001,2021-08-09_10h17.19.949,arrow_simon_norep,2021.1.2,Win32,60.58035985,,,,,,,,,,,,,,,,,,,,,w,1,10.1837,45,TRUE,FALSE,11,0,44,2,1,,,,,,,
,,,,,,1,2.274205356,#f3af84,,right_orange.png,p,,,,,,o,right_blue.png,right_orange.png,p,right,6058bee6f83bac3e977d4c0b,001,2021-08-09_10h17.19.949,arrow_simon_norep,2021.1.2,Win32,60.58035985,,,,,,,,,,,,,,,,,,,,,q,0,1.5005,46,FALSE,FALSE,11,1,45,1,1,,,,,,,
,,,,,,1,2.132455278,#a3d0fb,,right_blue.png,o,,,,,,o,right_blue.png,right_orange.png,p,left,6058bee6f83bac3e977d4c0b,001,2021-08-09_10h17.19.949,arrow_simon_norep,2021.1.2,Win32,60.58035985,,,,,,,,,,,,,,,,,,,,,w,0,1.4174,47,FALSE,FALSE,11,2,46,0,1,,,,,,,
,,,,,,1,2.464287407,#f3af84,,left_orange.png,q,,,,,,w,left_blue.png,left_orange.png,q,right,6058bee6f83bac3e977d4c0b,001,2021-08-09_10h17.19.949,arrow_simon_norep,2021.1.2,Win32,60.58035985,,,,,,,,,,,,,,,,,,,,,q,1,1.2377,48,FALSE,TRUE,11,3,47,3,1,,,,,,,
,,,,,,1,1.708871299,#a3d0fb,,left_blue.png,w,,,,,,w,left_blue.png,left_orange.png,q,right,6058bee6f83bac3e977d4c0b,001,2021-08-09_10h17.19.949,arrow_simon_norep,2021.1.2,Win32,60.58035985,,,,,,,,,,,,,,,,,,,,,q,0,3.7431,49,TRUE,FALSE,12,0,48,3,1,,,,,,,
,,,,,,1,2.36909277,#f3af84,,right_orange.png,p,,,,,,o,right_blue.png,right_orange.png,p,left,6058bee6f83bac3e977d4c0b,001,2021-08-09_10h17.19.949,arrow_simon_norep,2021.1.2,Win32,60.58035985,,,,,,,,,,,,,,,,,,,,,p,1,1.631,50,TRUE,FALSE,12,1,49,0,1,,,,,,,
,,,,,,0,2.42762351,#a3d0fb,,left_blue.png,w,,,,,,w,left_blue.png,left_orange.png,q,right,6058bee6f83bac3e977d4c0b,001,2021-08-09_10h17.19.949,arrow_simon_norep,2021.1.2,Win32,60.58035985,,,,,,,,,,,,,,,,,,,,,w,1,1.5445,51,FALSE,FALSE,12,2,50,3,1,,,,,,,
