instruct_resp_simon.keys,instruct_resp_simon.corr,instruct_resp_simon.rt,trial_resp_simon.keys,trial_resp_simon.corr,trial_resp_simon.rt,kerr,target_onset,target_color,target_pos,target_file,target_resp,trials_train_simon.thisRepN,trials_train_simon.thisTrialN,trials_train_simon.thisN,trials_train_simon.thisIndex,trials_train_simon.ran,odd_target_resp,odd_target_file,even_target_file,even_target_resp,participant,session,date,expName,psychopyVersion,OS,frameRate,train_block_note_resp.keys,train_block_note_resp.rt,blocks_train.thisRepN,blocks_train.thisTrialN,blocks_train.thisN,blocks_train.thisIndex,blocks_train.ran,instruct_resp_timing.keys,instruct_resp_timing.corr,instruct_resp_timing.rt,trial_resp_timing.keys,trial_resp_timing.rt,trials_train_timing.thisRepN,trials_train_timing.thisTrialN,trials_train_timing.thisN,trials_train_timing.thisIndex,trials_train_timing.ran,instruct_resp.keys,instruct_resp.corr,instruct_resp.rt,trial_resp.keys,trial_resp.corr,trial_resp.rt,too_slow,too_soon,trials.thisRepN,trials.thisTrialN,trials.thisN,trials.thisIndex,trials.ran,block_note_resp.keys,block_note_resp.rt,blocks.thisRepN,blocks.thisTrialN,blocks.thisN,blocks.thisIndex,blocks.ran
space,0,41.8534,w,1,1.2855,0,0.145670956,#a3d0fb,,left_blue.png,w,0,0,0,3,1,w,left_blue.png,left_orange.png,q,60638b9a7e201e12e43a2e33,001,2021-07-18_16h29.25.576,arrow_simon_norep,2021.1.2,Win32,59.90534955,,,,,,,,,,,,,,,,,,,,,,,,,,,,,,,,,,,,,
,,,q,1,1.7169,0,0.946792402,#f3af84,,left_orange.png,q,0,1,1,3,1,w,left_blue.png,left_orange.png,q,60638b9a7e201e12e43a2e33,001,2021-07-18_16h29.25.576,arrow_simon_norep,2021.1.2,Win32,59.90534955,,,,,,,,,,,,,,,,,,,,,,,,,,,,,,,,,,,,,
,,,p,0,1.4234,1,0.823930051,#a3d0fb,,right_blue.png,o,0,2,2,0,1,o,right_blue.png,right_orange.png,p,60638b9a7e201e12e43a2e33,001,2021-07-18_16h29.25.576,arrow_simon_norep,2021.1.2,Win32,59.90534955,,,,,,,,,,,,,,,,,,,,,,,,,,,,,,,,,,,,,
,,,q,1,0.9338,0,0.126573981,#f3af84,,left_orange.png,q,0,3,3,2,1,w,left_blue.png,left_orange.png,q,60638b9a7e201e12e43a2e33,001,2021-07-18_16h29.25.576,arrow_simon_norep,2021.1.2,Win32,59.90534955,,,,,,,,,,,,,,,,,,,,,,,,,,,,,,,,,,,,,
,,,o,1,1.3507,0,0.870572139,#a3d0fb,,right_blue.png,o,1,0,4,0,1,o,right_blue.png,right_orange.png,p,60638b9a7e201e12e43a2e33,001,2021-07-18_16h29.25.576,arrow_simon_norep,2021.1.2,Win32,59.90534955,,,,,,,,,,,,,,,,,,,,,,,,,,,,,,,,,,,,,
,,,p,1,1.0971,0,0.020816826,#f3af84,,right_orange.png,p,1,1,5,1,1,o,right_blue.png,right_orange.png,p,60638b9a7e201e12e43a2e33,001,2021-07-18_16h29.25.576,arrow_simon_norep,2021.1.2,Win32,59.90534955,,,,,,,,,,,,,,,,,,,,,,,,,,,,,,,,,,,,,
,,,w,1,1.5612,0,0.591489101,#a3d0fb,,left_blue.png,w,1,2,6,2,1,w,left_blue.png,left_orange.png,q,60638b9a7e201e12e43a2e33,001,2021-07-18_16h29.25.576,arrow_simon_norep,2021.1.2,Win32,59.90534955,,,,,,,,,,,,,,,,,,,,,,,,,,,,,,,,,,,,,
,,,p,1,1.8402,0,0.317877733,#f3af84,,right_orange.png,p,1,3,7,0,1,o,right_blue.png,right_orange.png,p,60638b9a7e201e12e43a2e33,001,2021-07-18_16h29.25.576,arrow_simon_norep,2021.1.2,Win32,59.90534955,,,,,,,,,,,,,,,,,,,,,,,,,,,,,,,,,,,,,
,,,w,0,1.1087,1,0.211133804,#a3d0fb,,right_blue.png,o,2,0,8,0,1,o,right_blue.png,right_orange.png,p,60638b9a7e201e12e43a2e33,001,2021-07-18_16h29.25.576,arrow_simon_norep,2021.1.2,Win32,59.90534955,,,,,,,,,,,,,,,,,,,,,,,,,,,,,,,,,,,,,
,,,q,1,1.6262,0,0.871736065,#f3af84,,left_orange.png,q,2,1,9,2,1,w,left_blue.png,left_orange.png,q,60638b9a7e201e12e43a2e33,001,2021-07-18_16h29.25.576,arrow_simon_norep,2021.1.2,Win32,59.90534955,,,,,,,,,,,,,,,,,,,,,,,,,,,,,,,,,,,,,
,,,w,1,0.9709,0,0.368722517,#a3d0fb,,left_blue.png,w,2,2,10,3,1,w,left_blue.png,left_orange.png,q,60638b9a7e201e12e43a2e33,001,2021-07-18_16h29.25.576,arrow_simon_norep,2021.1.2,Win32,59.90534955,,,,,,,,,,,,,,,,,,,,,,,,,,,,,,,,,,,,,
,,,q,1,1.4514,0,0.960287088,#f3af84,,left_orange.png,q,2,3,11,2,1,w,left_blue.png,left_orange.png,q,60638b9a7e201e12e43a2e33,001,2021-07-18_16h29.25.576,arrow_simon_norep,2021.1.2,Win32,59.90534955,,,,,,,,,,,,,,,,,,,,,,,,,,,,,,,,,,,,,
,,,o,1,0.8339,0,0.313228987,#a3d0fb,,right_blue.png,o,3,0,12,1,1,o,right_blue.png,right_orange.png,p,60638b9a7e201e12e43a2e33,001,2021-07-18_16h29.25.576,arrow_simon_norep,2021.1.2,Win32,59.90534955,,,,,,,,,,,,,,,,,,,,,,,,,,,,,,,,,,,,,
,,,q,1,0.7619,0,0.265864179,#f3af84,,left_orange.png,q,3,1,13,2,1,w,left_blue.png,left_orange.png,q,60638b9a7e201e12e43a2e33,001,2021-07-18_16h29.25.576,arrow_simon_norep,2021.1.2,Win32,59.90534955,,,,,,,,,,,,,,,,,,,,,,,,,,,,,,,,,,,,,
,,,w,1,0.7838,0,0.285172153,#a3d0fb,,left_blue.png,w,3,2,14,3,1,w,left_blue.png,left_orange.png,q,60638b9a7e201e12e43a2e33,001,2021-07-18_16h29.25.576,arrow_simon_norep,2021.1.2,Win32,59.90534955,,,,,,,,,,,,,,,,,,,,,,,,,,,,,,,,,,,,,
,,,q,1,1.1519,0,0.725363794,#f3af84,,left_orange.png,q,3,3,15,2,1,w,left_blue.png,left_orange.png,q,60638b9a7e201e12e43a2e33,001,2021-07-18_16h29.25.576,arrow_simon_norep,2021.1.2,Win32,59.90534955,,,,,,,,,,,,,,,,,,,,,,,,,,,,,,,,,,,,,
,,,w,1,1.3944,0,0.911064758,#a3d0fb,,left_blue.png,w,4,0,16,3,1,w,left_blue.png,left_orange.png,q,60638b9a7e201e12e43a2e33,001,2021-07-18_16h29.25.576,arrow_simon_norep,2021.1.2,Win32,59.90534955,,,,,,,,,,,,,,,,,,,,,,,,,,,,,,,,,,,,,
,,,p,1,0.8763,0,0.457455722,#f3af84,,right_orange.png,p,4,1,17,1,1,o,right_blue.png,right_orange.png,p,60638b9a7e201e12e43a2e33,001,2021-07-18_16h29.25.576,arrow_simon_norep,2021.1.2,Win32,59.90534955,,,,,,,,,,,,,,,,,,,,,,,,,,,,,,,,,,,,,
,,,q,0,1.4673,1,0.987183076,#a3d0fb,,left_blue.png,w,4,2,18,2,1,w,left_blue.png,left_orange.png,q,60638b9a7e201e12e43a2e33,001,2021-07-18_16h29.25.576,arrow_simon_norep,2021.1.2,Win32,59.90534955,,,,,,,,,,,,,,,,,,,,,,,,,,,,,,,,,,,,,
,,,q,1,1.0836,0,0.49856638,#f3af84,,left_orange.png,q,4,3,19,3,1,w,left_blue.png,left_orange.png,q,60638b9a7e201e12e43a2e33,001,2021-07-18_16h29.25.576,arrow_simon_norep,2021.1.2,Win32,59.90534955,,,,,,,,,,,,,,,,,,,,,,,,,,,,,,,,,,,,,
,,,w,1,1.5173,0,0.650815003,#a3d0fb,,left_blue.png,w,5,0,20,2,1,w,left_blue.png,left_orange.png,q,60638b9a7e201e12e43a2e33,001,2021-07-18_16h29.25.576,arrow_simon_norep,2021.1.2,Win32,59.90534955,,,,,,,,,,,,,,,,,,,,,,,,,,,,,,,,,,,,,
,,,q,1,1.8966,0,0.872742936,#f3af84,,left_orange.png,q,5,1,21,3,1,w,left_blue.png,left_orange.png,q,60638b9a7e201e12e43a2e33,001,2021-07-18_16h29.25.576,arrow_simon_norep,2021.1.2,Win32,59.90534955,,,,,,,,,,,,,,,,,,,,,,,,,,,,,,,,,,,,,
,,,o,1,1.5622,0,0.306855157,#a3d0fb,,right_blue.png,o,5,2,22,1,1,o,right_blue.png,right_orange.png,p,60638b9a7e201e12e43a2e33,001,2021-07-18_16h29.25.576,arrow_simon_norep,2021.1.2,Win32,59.90534955,,,,,,,,,,,,,,,,,,,,,,,,,,,,,,,,,,,,,
,,,p,1,1.5396,0,0.670042383,#f3af84,,right_orange.png,p,5,3,23,1,1,o,right_blue.png,right_orange.png,p,60638b9a7e201e12e43a2e33,001,2021-07-18_16h29.25.576,arrow_simon_norep,2021.1.2,Win32,59.90534955,,,,,,,,,,,,,,,,,,,,,,,,,,,,,,,,,,,,,
,,,o,1,1.267,0,0.090428179,#a3d0fb,,right_blue.png,o,6,0,24,0,1,o,right_blue.png,right_orange.png,p,60638b9a7e201e12e43a2e33,001,2021-07-18_16h29.25.576,arrow_simon_norep,2021.1.2,Win32,59.90534955,,,,,,,,,,,,,,,,,,,,,,,,,,,,,,,,,,,,,
,,,p,1,2.0271,0,0.877675198,#f3af84,,right_orange.png,p,6,1,25,0,1,o,right_blue.png,right_orange.png,p,60638b9a7e201e12e43a2e33,001,2021-07-18_16h29.25.576,arrow_simon_norep,2021.1.2,Win32,59.90534955,,,,,,,,,,,,,,,,,,,,,,,,,,,,,,,,,,,,,
,,,o,1,1.1672,0,0.226934742,#a3d0fb,,right_blue.png,o,6,2,26,1,1,o,right_blue.png,right_orange.png,p,60638b9a7e201e12e43a2e33,001,2021-07-18_16h29.25.576,arrow_simon_norep,2021.1.2,Win32,59.90534955,,,,,,,,,,,,,,,,,,,,,,,,,,,,,,,,,,,,,
,,,q,1,1.6004,0,0.971184507,#f3af84,,left_orange.png,q,6,3,27,2,1,w,left_blue.png,left_orange.png,q,60638b9a7e201e12e43a2e33,001,2021-07-18_16h29.25.576,arrow_simon_norep,2021.1.2,Win32,59.90534955,,,,,,,,,,,,,,,,,,,,,,,,,,,,,,,,,,,,,
,,,o,1,1.1506,0,0.337621771,#a3d0fb,,right_blue.png,o,7,0,28,1,1,o,right_blue.png,right_orange.png,p,60638b9a7e201e12e43a2e33,001,2021-07-18_16h29.25.576,arrow_simon_norep,2021.1.2,Win32,59.90534955,,,,,,,,,,,,,,,,,,,,,,,,,,,,,,,,,,,,,
,,,p,1,1.0302,0,0.529466478,#f3af84,,right_orange.png,p,7,1,29,1,1,o,right_blue.png,right_orange.png,p,60638b9a7e201e12e43a2e33,001,2021-07-18_16h29.25.576,arrow_simon_norep,2021.1.2,Win32,59.90534955,,,,,,,,,,,,,,,,,,,,,,,,,,,,,,,,,,,,,
,,,o,1,0.9003,0,0.145841034,#a3d0fb,,right_blue.png,o,7,2,30,1,1,o,right_blue.png,right_orange.png,p,60638b9a7e201e12e43a2e33,001,2021-07-18_16h29.25.576,arrow_simon_norep,2021.1.2,Win32,59.90534955,,,,,,,,,,,,,,,,,,,,,,,,,,,,,,,,,,,,,
,,,w,0,1.6505,1,0.074615588,#f3af84,,left_orange.png,q,7,3,31,2,1,w,left_blue.png,left_orange.png,q,60638b9a7e201e12e43a2e33,001,2021-07-18_16h29.25.576,arrow_simon_norep,2021.1.2,Win32,59.90534955,,,,,,,,,,,,,,,,,,,,,,,,,,,,,,,,,,,,,
,,,w,1,1.167,0,0.053979577,#a3d0fb,,left_blue.png,w,8,0,32,2,1,w,left_blue.png,left_orange.png,q,60638b9a7e201e12e43a2e33,001,2021-07-18_16h29.25.576,arrow_simon_norep,2021.1.2,Win32,59.90534955,,,,,,,,,,,,,,,,,,,,,,,,,,,,,,,,,,,,,
,,,p,1,1.2637,0,0.828282353,#f3af84,,right_orange.png,p,8,1,33,1,1,o,right_blue.png,right_orange.png,p,60638b9a7e201e12e43a2e33,001,2021-07-18_16h29.25.576,arrow_simon_norep,2021.1.2,Win32,59.90534955,,,,,,,,,,,,,,,,,,,,,,,,,,,,,,,,,,,,,
,,,w,1,0.8194,0,0.010636092,#a3d0fb,,left_blue.png,w,8,2,34,3,1,w,left_blue.png,left_orange.png,q,60638b9a7e201e12e43a2e33,001,2021-07-18_16h29.25.576,arrow_simon_norep,2021.1.2,Win32,59.90534955,,,,,,,,,,,,,,,,,,,,,,,,,,,,,,,,,,,,,
,,,p,1,1.0671,0,0.28128075,#f3af84,,right_orange.png,p,8,3,35,1,1,o,right_blue.png,right_orange.png,p,60638b9a7e201e12e43a2e33,001,2021-07-18_16h29.25.576,arrow_simon_norep,2021.1.2,Win32,59.90534955,,,,,,,,,,,,,,,,,,,,,,,,,,,,,,,,,,,,,
,,,w,1,1.2608,0,0.4092858,#a3d0fb,,left_blue.png,w,9,0,36,2,1,w,left_blue.png,left_orange.png,q,60638b9a7e201e12e43a2e33,001,2021-07-18_16h29.25.576,arrow_simon_norep,2021.1.2,Win32,59.90534955,,,,,,,,,,,,,,,,,,,,,,,,,,,,,,,,,,,,,
,,,p,1,0.9125,0,0.247556349,#f3af84,,right_orange.png,p,9,1,37,1,1,o,right_blue.png,right_orange.png,p,60638b9a7e201e12e43a2e33,001,2021-07-18_16h29.25.576,arrow_simon_norep,2021.1.2,Win32,59.90534955,,,,,,,,,,,,,,,,,,,,,,,,,,,,,,,,,,,,,
,,,o,1,0.8238,0,0.103904202,#a3d0fb,,right_blue.png,o,9,2,38,0,1,o,right_blue.png,right_orange.png,p,60638b9a7e201e12e43a2e33,001,2021-07-18_16h29.25.576,arrow_simon_norep,2021.1.2,Win32,59.90534955,,,,,,,,,,,,,,,,,,,,,,,,,,,,,,,,,,,,,
,,,q,1,1.5147,0,0.796692394,#f3af84,,left_orange.png,q,9,3,39,3,1,w,left_blue.png,left_orange.png,q,60638b9a7e201e12e43a2e33,001,2021-07-18_16h29.25.576,arrow_simon_norep,2021.1.2,Win32,59.90534955,,,,,,,,,,,,,,,,,,,,,,,,,,,,,,,,,,,,,
,,,w,1,1.5336,0,0.989985158,#a3d0fb,,left_blue.png,w,10,0,40,2,1,w,left_blue.png,left_orange.png,q,60638b9a7e201e12e43a2e33,001,2021-07-18_16h29.25.576,arrow_simon_norep,2021.1.2,Win32,59.90534955,,,,,,,,,,,,,,,,,,,,,,,,,,,,,,,,,,,,,
,,,p,1,1.0507,0,0.657483056,#f3af84,,right_orange.png,p,10,1,41,0,1,o,right_blue.png,right_orange.png,p,60638b9a7e201e12e43a2e33,001,2021-07-18_16h29.25.576,arrow_simon_norep,2021.1.2,Win32,59.90534955,,,,,,,,,,,,,,,,,,,,,,,,,,,,,,,,,,,,,
,,,o,1,1.3628,0,0.959367776,#a3d0fb,,right_blue.png,o,10,2,42,0,1,o,right_blue.png,right_orange.png,p,60638b9a7e201e12e43a2e33,001,2021-07-18_16h29.25.576,arrow_simon_norep,2021.1.2,Win32,59.90534955,,,,,,,,,,,,,,,,,,,,,,,,,,,,,,,,,,,,,
,,,p,1,1.245,0,0.844999771,#f3af84,,right_orange.png,p,10,3,43,0,1,o,right_blue.png,right_orange.png,p,60638b9a7e201e12e43a2e33,001,2021-07-18_16h29.25.576,arrow_simon_norep,2021.1.2,Win32,59.90534955,,,,,,,,,,,,,,,,,,,,,,,,,,,,,,,,,,,,,
,,,w,1,1.329,0,0.897717309,#a3d0fb,,left_blue.png,w,11,0,44,3,1,w,left_blue.png,left_orange.png,q,60638b9a7e201e12e43a2e33,001,2021-07-18_16h29.25.576,arrow_simon_norep,2021.1.2,Win32,59.90534955,,,,,,,,,,,,,,,,,,,,,,,,,,,,,,,,,,,,,
,,,q,1,0.8889,0,0.236176869,#f3af84,,left_orange.png,q,11,1,45,3,1,w,left_blue.png,left_orange.png,q,60638b9a7e201e12e43a2e33,001,2021-07-18_16h29.25.576,arrow_simon_norep,2021.1.2,Win32,59.90534955,,,,,,,,,,,,,,,,,,,,,,,,,,,,,,,,,,,,,
,,,w,1,1.3503,0,0.937695972,#a3d0fb,,left_blue.png,w,11,2,46,3,1,w,left_blue.png,left_orange.png,q,60638b9a7e201e12e43a2e33,001,2021-07-18_16h29.25.576,arrow_simon_norep,2021.1.2,Win32,59.90534955,,,,,,,,,,,,,,,,,,,,,,,,,,,,,,,,,,,,,
,,,p,1,1.167,0,0.746154899,#f3af84,,right_orange.png,p,11,3,47,1,1,o,right_blue.png,right_orange.png,p,60638b9a7e201e12e43a2e33,001,2021-07-18_16h29.25.576,arrow_simon_norep,2021.1.2,Win32,59.90534955,,,,,,,,,,,,,,,,,,,,,,,,,,,,,,,,,,,,,
,,,w,1,1.3755,0,0.98952212,#a3d0fb,,left_blue.png,w,12,0,48,3,1,w,left_blue.png,left_orange.png,q,60638b9a7e201e12e43a2e33,001,2021-07-18_16h29.25.576,arrow_simon_norep,2021.1.2,Win32,59.90534955,,,,,,,,,,,,,,,,,,,,,,,,,,,,,,,,,,,,,
,,,q,1,1.3128,0,0.850687398,#f3af84,,left_orange.png,q,12,1,49,2,1,w,left_blue.png,left_orange.png,q,60638b9a7e201e12e43a2e33,001,2021-07-18_16h29.25.576,arrow_simon_norep,2021.1.2,Win32,59.90534955,,,,,,,,,,,,,,,,,,,,,,,,,,,,,,,,,,,,,
,,,o,1,1.1341,0,0.314840604,#a3d0fb,,right_blue.png,o,12,2,50,0,1,o,right_blue.png,right_orange.png,p,60638b9a7e201e12e43a2e33,001,2021-07-18_16h29.25.576,arrow_simon_norep,2021.1.2,Win32,59.90534955,,,,,,,,,,,,,,,,,,,,,,,,,,,,,,,,,,,,,
,,,q,1,1.1267,0,0.629900279,#f3af84,,left_orange.png,q,12,3,51,2,1,w,left_blue.png,left_orange.png,q,60638b9a7e201e12e43a2e33,001,2021-07-18_16h29.25.576,arrow_simon_norep,2021.1.2,Win32,59.90534955,,,,,,,,,,,,,,,,,,,,,,,,,,,,,,,,,,,,,
,,,p,0,1.1067,1,0.679911736,#a3d0fb,,right_blue.png,o,13,0,52,1,1,o,right_blue.png,right_orange.png,p,60638b9a7e201e12e43a2e33,001,2021-07-18_16h29.25.576,arrow_simon_norep,2021.1.2,Win32,59.90534955,,,,,,,,,,,,,,,,,,,,,,,,,,,,,,,,,,,,,
,,,p,1,0.6623,0,0.073172909,#f3af84,,right_orange.png,p,13,1,53,0,1,o,right_blue.png,right_orange.png,p,60638b9a7e201e12e43a2e33,001,2021-07-18_16h29.25.576,arrow_simon_norep,2021.1.2,Win32,59.90534955,,,,,,,,,,,,,,,,,,,,,,,,,,,,,,,,,,,,,
,,,o,1,1.3169,0,0.887683394,#a3d0fb,,right_blue.png,o,13,2,54,0,1,o,right_blue.png,right_orange.png,p,60638b9a7e201e12e43a2e33,001,2021-07-18_16h29.25.576,arrow_simon_norep,2021.1.2,Win32,59.90534955,,,,,,,,,,,,,,,,,,,,,,,,,,,,,,,,,,,,,
,,,q,1,0.8358,0,0.424068548,#f3af84,,left_orange.png,q,13,3,55,3,1,w,left_blue.png,left_orange.png,q,60638b9a7e201e12e43a2e33,001,2021-07-18_16h29.25.576,arrow_simon_norep,2021.1.2,Win32,59.90534955,,,,,,,,,,,,,,,,,,,,,,,,,,,,,,,,,,,,,
,,,o,1,1.0671,0,0.692006968,#a3d0fb,,right_blue.png,o,14,0,56,0,1,o,right_blue.png,right_orange.png,p,60638b9a7e201e12e43a2e33,001,2021-07-18_16h29.25.576,arrow_simon_norep,2021.1.2,Win32,59.90534955,,,,,,,,,,,,,,,,,,,,,,,,,,,,,,,,,,,,,
,,,q,1,0.6947,0,0.244244855,#f3af84,,left_orange.png,q,14,1,57,3,1,w,left_blue.png,left_orange.png,q,60638b9a7e201e12e43a2e33,001,2021-07-18_16h29.25.576,arrow_simon_norep,2021.1.2,Win32,59.90534955,,,,,,,,,,,,,,,,,,,,,,,,,,,,,,,,,,,,,
,,,o,1,1.174,0,0.666269669,#a3d0fb,,right_blue.png,o,14,2,58,1,1,o,right_blue.png,right_orange.png,p,60638b9a7e201e12e43a2e33,001,2021-07-18_16h29.25.576,arrow_simon_norep,2021.1.2,Win32,59.90534955,,,,,,,,,,,,,,,,,,,,,,,,,,,,,,,,,,,,,
,,,p,1,1.2294,0,0.801614396,#f3af84,,right_orange.png,p,14,3,59,0,1,o,right_blue.png,right_orange.png,p,60638b9a7e201e12e43a2e33,001,2021-07-18_16h29.25.576,arrow_simon_norep,2021.1.2,Win32,59.90534955,,,,,,,,,,,,,,,,,,,,,,,,,,,,,,,,,,,,,
,,,,,,,,,,,,,,,,,,,,,60638b9a7e201e12e43a2e33,001,2021-07-18_16h29.25.576,arrow_simon_norep,2021.1.2,Win32,59.90534955,space,71.2014,0,0,0,0,1,,,,,,,,,,,,,,,,,,,,,,,,,,,,,,
,,,w,1,0.8428,0,0.277110311,#a3d0fb,,left_blue.png,w,0,0,0,3,1,w,left_blue.png,left_orange.png,q,60638b9a7e201e12e43a2e33,001,2021-07-18_16h29.25.576,arrow_simon_norep,2021.1.2,Win32,59.90534955,,,,,,,,,,,,,,,,,,,,,,,,,,,,,,,,,,,,,
,,,q,1,0.7364,0,0.303076231,#f3af84,,left_orange.png,q,0,1,1,2,1,w,left_blue.png,left_orange.png,q,60638b9a7e201e12e43a2e33,001,2021-07-18_16h29.25.576,arrow_simon_norep,2021.1.2,Win32,59.90534955,,,,,,,,,,,,,,,,,,,,,,,,,,,,,,,,,,,,,
,,,o,1,0.6739,0,0.255810345,#a3d0fb,,right_blue.png,o,0,2,2,1,1,o,right_blue.png,right_orange.png,p,60638b9a7e201e12e43a2e33,001,2021-07-18_16h29.25.576,arrow_simon_norep,2021.1.2,Win32,59.90534955,,,,,,,,,,,,,,,,,,,,,,,,,,,,,,,,,,,,,
,,,p,1,0.7978,0,0.283574888,#f3af84,,right_orange.png,p,0,3,3,0,1,o,right_blue.png,right_orange.png,p,60638b9a7e201e12e43a2e33,001,2021-07-18_16h29.25.576,arrow_simon_norep,2021.1.2,Win32,59.90534955,,,,,,,,,,,,,,,,,,,,,,,,,,,,,,,,,,,,,
,,,o,1,0.6838,0,0.264460818,#a3d0fb,,right_blue.png,o,1,0,4,1,1,o,right_blue.png,right_orange.png,p,60638b9a7e201e12e43a2e33,001,2021-07-18_16h29.25.576,arrow_simon_norep,2021.1.2,Win32,59.90534955,,,,,,,,,,,,,,,,,,,,,,,,,,,,,,,,,,,,,
,,,q,1,0.8093,0,0.369734044,#f3af84,,left_orange.png,q,1,1,5,3,1,w,left_blue.png,left_orange.png,q,60638b9a7e201e12e43a2e33,001,2021-07-18_16h29.25.576,arrow_simon_norep,2021.1.2,Win32,59.90534955,,,,,,,,,,,,,,,,,,,,,,,,,,,,,,,,,,,,,
,,,w,1,0.8965,0,0.411095303,#a3d0fb,,left_blue.png,w,1,2,6,2,1,w,left_blue.png,left_orange.png,q,60638b9a7e201e12e43a2e33,001,2021-07-18_16h29.25.576,arrow_simon_norep,2021.1.2,Win32,59.90534955,,,,,,,,,,,,,,,,,,,,,,,,,,,,,,,,,,,,,
,,,p,1,1.019,0,0.574658207,#f3af84,,right_orange.png,p,1,3,7,0,1,o,right_blue.png,right_orange.png,p,60638b9a7e201e12e43a2e33,001,2021-07-18_16h29.25.576,arrow_simon_norep,2021.1.2,Win32,59.90534955,,,,,,,,,,,,,,,,,,,,,,,,,,,,,,,,,,,,,
,,,w,1,0.9889,0,0.350287106,#a3d0fb,,left_blue.png,w,2,0,8,3,1,w,left_blue.png,left_orange.png,q,60638b9a7e201e12e43a2e33,001,2021-07-18_16h29.25.576,arrow_simon_norep,2021.1.2,Win32,59.90534955,,,,,,,,,,,,,,,,,,,,,,,,,,,,,,,,,,,,,
,,,p,1,1.2472,0,0.247610974,#f3af84,,right_orange.png,p,2,1,9,0,1,o,right_blue.png,right_orange.png,p,60638b9a7e201e12e43a2e33,001,2021-07-18_16h29.25.576,arrow_simon_norep,2021.1.2,Win32,59.90534955,,,,,,,,,,,,,,,,,,,,,,,,,,,,,,,,,,,,,
,,,o,1,1.0455,0,0.65987783,#a3d0fb,,right_blue.png,o,2,2,10,0,1,o,right_blue.png,right_orange.png,p,60638b9a7e201e12e43a2e33,001,2021-07-18_16h29.25.576,arrow_simon_norep,2021.1.2,Win32,59.90534955,,,,,,,,,,,,,,,,,,,,,,,,,,,,,,,,,,,,,
,,,q,1,0.5577,0,0.017461648,#f3af84,,left_orange.png,q,2,3,11,2,1,w,left_blue.png,left_orange.png,q,60638b9a7e201e12e43a2e33,001,2021-07-18_16h29.25.576,arrow_simon_norep,2021.1.2,Win32,59.90534955,,,,,,,,,,,,,,,,,,,,,,,,,,,,,,,,,,,,,
,,,w,1,1.4108,0,0.920871,#a3d0fb,,left_blue.png,w,3,0,12,2,1,w,left_blue.png,left_orange.png,q,60638b9a7e201e12e43a2e33,001,2021-07-18_16h29.25.576,arrow_simon_norep,2021.1.2,Win32,59.90534955,,,,,,,,,,,,,,,,,,,,,,,,,,,,,,,,,,,,,
,,,q,1,1.0109,0,0.557287261,#f3af84,,left_orange.png,q,3,1,13,2,1,w,left_blue.png,left_orange.png,q,60638b9a7e201e12e43a2e33,001,2021-07-18_16h29.25.576,arrow_simon_norep,2021.1.2,Win32,59.90534955,,,,,,,,,,,,,,,,,,,,,,,,,,,,,,,,,,,,,
,,,w,1,0.9731,0,0.291610796,#a3d0fb,,left_blue.png,w,3,2,14,2,1,w,left_blue.png,left_orange.png,q,60638b9a7e201e12e43a2e33,001,2021-07-18_16h29.25.576,arrow_simon_norep,2021.1.2,Win32,59.90534955,,,,,,,,,,,,,,,,,,,,,,,,,,,,,,,,,,,,,
,,,p,1,1.4289,0,0.971127114,#f3af84,,right_orange.png,p,3,3,15,0,1,o,right_blue.png,right_orange.png,p,60638b9a7e201e12e43a2e33,001,2021-07-18_16h29.25.576,arrow_simon_norep,2021.1.2,Win32,59.90534955,,,,,,,,,,,,,,,,,,,,,,,,,,,,,,,,,,,,,
,,,w,1,1.2635,0,0.824284188,#a3d0fb,,left_blue.png,w,4,0,16,3,1,w,left_blue.png,left_orange.png,q,60638b9a7e201e12e43a2e33,001,2021-07-18_16h29.25.576,arrow_simon_norep,2021.1.2,Win32,59.90534955,,,,,,,,,,,,,,,,,,,,,,,,,,,,,,,,,,,,,
,,,p,1,1.4618,0,0.992729672,#f3af84,,right_orange.png,p,4,1,17,1,1,o,right_blue.png,right_orange.png,p,60638b9a7e201e12e43a2e33,001,2021-07-18_16h29.25.576,arrow_simon_norep,2021.1.2,Win32,59.90534955,,,,,,,,,,,,,,,,,,,,,,,,,,,,,,,,,,,,,
,,,o,1,1.2006,0,0.807145912,#a3d0fb,,right_blue.png,o,4,2,18,1,1,o,right_blue.png,right_orange.png,p,60638b9a7e201e12e43a2e33,001,2021-07-18_16h29.25.576,arrow_simon_norep,2021.1.2,Win32,59.90534955,,,,,,,,,,,,,,,,,,,,,,,,,,,,,,,,,,,,,
,,,p,1,0.6099,0,0.08479571,#f3af84,,right_orange.png,p,4,3,19,0,1,o,right_blue.png,right_orange.png,p,60638b9a7e201e12e43a2e33,001,2021-07-18_16h29.25.576,arrow_simon_norep,2021.1.2,Win32,59.90534955,,,,,,,,,,,,,,,,,,,,,,,,,,,,,,,,,,,,,
,,,q,0,1.0877,1,0.624522125,#a3d0fb,,left_blue.png,w,5,0,20,2,1,w,left_blue.png,left_orange.png,q,60638b9a7e201e12e43a2e33,001,2021-07-18_16h29.25.576,arrow_simon_norep,2021.1.2,Win32,59.90534955,,,,,,,,,,,,,,,,,,,,,,,,,,,,,,,,,,,,,
,,,q,1,1.3813,0,0.95384913,#f3af84,,left_orange.png,q,5,1,21,2,1,w,left_blue.png,left_orange.png,q,60638b9a7e201e12e43a2e33,001,2021-07-18_16h29.25.576,arrow_simon_norep,2021.1.2,Win32,59.90534955,,,,,,,,,,,,,,,,,,,,,,,,,,,,,,,,,,,,,
,,,w,1,1.5936,0,0.989413866,#a3d0fb,,left_blue.png,w,5,2,22,3,1,w,left_blue.png,left_orange.png,q,60638b9a7e201e12e43a2e33,001,2021-07-18_16h29.25.576,arrow_simon_norep,2021.1.2,Win32,59.90534955,,,,,,,,,,,,,,,,,,,,,,,,,,,,,,,,,,,,,
,,,q,1,1.3411,0,0.908684802,#f3af84,,left_orange.png,q,5,3,23,3,1,w,left_blue.png,left_orange.png,q,60638b9a7e201e12e43a2e33,001,2021-07-18_16h29.25.576,arrow_simon_norep,2021.1.2,Win32,59.90534955,,,,,,,,,,,,,,,,,,,,,,,,,,,,,,,,,,,,,
,,,w,1,0.9398,0,0.226672841,#a3d0fb,,left_blue.png,w,6,0,24,3,1,w,left_blue.png,left_orange.png,q,60638b9a7e201e12e43a2e33,001,2021-07-18_16h29.25.576,arrow_simon_norep,2021.1.2,Win32,59.90534955,,,,,,,,,,,,,,,,,,,,,,,,,,,,,,,,,,,,,
,,,q,1,1.0175,0,0.290352221,#f3af84,,left_orange.png,q,6,1,25,3,1,w,left_blue.png,left_orange.png,q,60638b9a7e201e12e43a2e33,001,2021-07-18_16h29.25.576,arrow_simon_norep,2021.1.2,Win32,59.90534955,,,,,,,,,,,,,,,,,,,,,,,,,,,,,,,,,,,,,
,,,w,1,1.1677,0,0.736391045,#a3d0fb,,left_blue.png,w,6,2,26,3,1,w,left_blue.png,left_orange.png,q,60638b9a7e201e12e43a2e33,001,2021-07-18_16h29.25.576,arrow_simon_norep,2021.1.2,Win32,59.90534955,,,,,,,,,,,,,,,,,,,,,,,,,,,,,,,,,,,,,
,,,o,0,1.263,1,0.772713305,#f3af84,,right_orange.png,p,6,3,27,1,1,o,right_blue.png,right_orange.png,p,60638b9a7e201e12e43a2e33,001,2021-07-18_16h29.25.576,arrow_simon_norep,2021.1.2,Win32,59.90534955,,,,,,,,,,,,,,,,,,,,,,,,,,,,,,,,,,,,,
,,,w,1,1.156,0,0.67263282,#a3d0fb,,left_blue.png,w,7,0,28,3,1,w,left_blue.png,left_orange.png,q,60638b9a7e201e12e43a2e33,001,2021-07-18_16h29.25.576,arrow_simon_norep,2021.1.2,Win32,59.90534955,,,,,,,,,,,,,,,,,,,,,,,,,,,,,,,,,,,,,
,,,p,1,1.0012,0,0.44471641,#f3af84,,right_orange.png,p,7,1,29,1,1,o,right_blue.png,right_orange.png,p,60638b9a7e201e12e43a2e33,001,2021-07-18_16h29.25.576,arrow_simon_norep,2021.1.2,Win32,59.90534955,,,,,,,,,,,,,,,,,,,,,,,,,,,,,,,,,,,,,
,,,w,1,1.3388,0,0.889760565,#a3d0fb,,left_blue.png,w,7,2,30,3,1,w,left_blue.png,left_orange.png,q,60638b9a7e201e12e43a2e33,001,2021-07-18_16h29.25.576,arrow_simon_norep,2021.1.2,Win32,59.90534955,,,,,,,,,,,,,,,,,,,,,,,,,,,,,,,,,,,,,
,,,p,1,1.0004,0,0.525641436,#f3af84,,right_orange.png,p,7,3,31,1,1,o,right_blue.png,right_orange.png,p,60638b9a7e201e12e43a2e33,001,2021-07-18_16h29.25.576,arrow_simon_norep,2021.1.2,Win32,59.90534955,,,,,,,,,,,,,,,,,,,,,,,,,,,,,,,,,,,,,
,,,w,1,1.3468,0,0.929805348,#a3d0fb,,left_blue.png,w,8,0,32,3,1,w,left_blue.png,left_orange.png,q,60638b9a7e201e12e43a2e33,001,2021-07-18_16h29.25.576,arrow_simon_norep,2021.1.2,Win32,59.90534955,,,,,,,,,,,,,,,,,,,,,,,,,,,,,,,,,,,,,
,,,p,1,1.0752,0,0.053607431,#f3af84,,right_orange.png,p,8,1,33,1,1,o,right_blue.png,right_orange.png,p,60638b9a7e201e12e43a2e33,001,2021-07-18_16h29.25.576,arrow_simon_norep,2021.1.2,Win32,59.90534955,,,,,,,,,,,,,,,,,,,,,,,,,,,,,,,,,,,,,
,,,w,0,0.8884,1,0.090605804,#a3d0fb,,right_blue.png,o,8,2,34,0,1,o,right_blue.png,right_orange.png,p,60638b9a7e201e12e43a2e33,001,2021-07-18_16h29.25.576,arrow_simon_norep,2021.1.2,Win32,59.90534955,,,,,,,,,,,,,,,,,,,,,,,,,,,,,,,,,,,,,
,,,p,1,2.0137,0,0.45739951,#f3af84,,right_orange.png,p,8,3,35,1,1,o,right_blue.png,right_orange.png,p,60638b9a7e201e12e43a2e33,001,2021-07-18_16h29.25.576,arrow_simon_norep,2021.1.2,Win32,59.90534955,,,,,,,,,,,,,,,,,,,,,,,,,,,,,,,,,,,,,
,,,o,1,1.0106,0,0.555740751,#a3d0fb,,right_blue.png,o,9,0,36,0,1,o,right_blue.png,right_orange.png,p,60638b9a7e201e12e43a2e33,001,2021-07-18_16h29.25.576,arrow_simon_norep,2021.1.2,Win32,59.90534955,,,,,,,,,,,,,,,,,,,,,,,,,,,,,,,,,,,,,
,,,p,1,0.8637,0,0.348330486,#f3af84,,right_orange.png,p,9,1,37,0,1,o,right_blue.png,right_orange.png,p,60638b9a7e201e12e43a2e33,001,2021-07-18_16h29.25.576,arrow_simon_norep,2021.1.2,Win32,59.90534955,,,,,,,,,,,,,,,,,,,,,,,,,,,,,,,,,,,,,
,,,o,1,1.2242,0,0.592619397,#a3d0fb,,right_blue.png,o,9,2,38,0,1,o,right_blue.png,right_orange.png,p,60638b9a7e201e12e43a2e33,001,2021-07-18_16h29.25.576,arrow_simon_norep,2021.1.2,Win32,59.90534955,,,,,,,,,,,,,,,,,,,,,,,,,,,,,,,,,,,,,
,,,q,1,1.3798,0,0.919207267,#f3af84,,left_orange.png,q,9,3,39,2,1,w,left_blue.png,left_orange.png,q,60638b9a7e201e12e43a2e33,001,2021-07-18_16h29.25.576,arrow_simon_norep,2021.1.2,Win32,59.90534955,,,,,,,,,,,,,,,,,,,,,,,,,,,,,,,,,,,,,
,,,w,1,1.4457,0,0.909966781,#a3d0fb,,left_blue.png,w,10,0,40,2,1,w,left_blue.png,left_orange.png,q,60638b9a7e201e12e43a2e33,001,2021-07-18_16h29.25.576,arrow_simon_norep,2021.1.2,Win32,59.90534955,,,,,,,,,,,,,,,,,,,,,,,,,,,,,,,,,,,,,
,,,q,1,0.7172,0,0.024136567,#f3af84,,left_orange.png,q,10,1,41,2,1,w,left_blue.png,left_orange.png,q,60638b9a7e201e12e43a2e33,001,2021-07-18_16h29.25.576,arrow_simon_norep,2021.1.2,Win32,59.90534955,,,,,,,,,,,,,,,,,,,,,,,,,,,,,,,,,,,,,
,,,w,1,1.125,0,0.724478263,#a3d0fb,,left_blue.png,w,10,2,42,2,1,w,left_blue.png,left_orange.png,q,60638b9a7e201e12e43a2e33,001,2021-07-18_16h29.25.576,arrow_simon_norep,2021.1.2,Win32,59.90534955,,,,,,,,,,,,,,,,,,,,,,,,,,,,,,,,,,,,,
,,,p,1,0.6173,0,0.08324648,#f3af84,,right_orange.png,p,10,3,43,0,1,o,right_blue.png,right_orange.png,p,60638b9a7e201e12e43a2e33,001,2021-07-18_16h29.25.576,arrow_simon_norep,2021.1.2,Win32,59.90534955,,,,,,,,,,,,,,,,,,,,,,,,,,,,,,,,,,,,,
,,,o,1,1.367,0,0.896892202,#a3d0fb,,right_blue.png,o,11,0,44,0,1,o,right_blue.png,right_orange.png,p,60638b9a7e201e12e43a2e33,001,2021-07-18_16h29.25.576,arrow_simon_norep,2021.1.2,Win32,59.90534955,,,,,,,,,,,,,,,,,,,,,,,,,,,,,,,,,,,,,
,,,p,1,0.6701,0,0.256932489,#f3af84,,right_orange.png,p,11,1,45,1,1,o,right_blue.png,right_orange.png,p,60638b9a7e201e12e43a2e33,001,2021-07-18_16h29.25.576,arrow_simon_norep,2021.1.2,Win32,59.90534955,,,,,,,,,,,,,,,,,,,,,,,,,,,,,,,,,,,,,
,,,q,0,0.4837,1,0.033654729,#a3d0fb,,left_blue.png,w,11,2,46,2,1,w,left_blue.png,left_orange.png,q,60638b9a7e201e12e43a2e33,001,2021-07-18_16h29.25.576,arrow_simon_norep,2021.1.2,Win32,59.90534955,,,,,,,,,,,,,,,,,,,,,,,,,,,,,,,,,,,,,
,,,p,1,1.3174,0,0.814873462,#f3af84,,right_orange.png,p,11,3,47,0,1,o,right_blue.png,right_orange.png,p,60638b9a7e201e12e43a2e33,001,2021-07-18_16h29.25.576,arrow_simon_norep,2021.1.2,Win32,59.90534955,,,,,,,,,,,,,,,,,,,,,,,,,,,,,,,,,,,,,
,,,o,1,0.9367,0,0.444734897,#a3d0fb,,right_blue.png,o,12,0,48,1,1,o,right_blue.png,right_orange.png,p,60638b9a7e201e12e43a2e33,001,2021-07-18_16h29.25.576,arrow_simon_norep,2021.1.2,Win32,59.90534955,,,,,,,,,,,,,,,,,,,,,,,,,,,,,,,,,,,,,
,,,p,1,0.8548,0,0.333952171,#f3af84,,right_orange.png,p,12,1,49,0,1,o,right_blue.png,right_orange.png,p,60638b9a7e201e12e43a2e33,001,2021-07-18_16h29.25.576,arrow_simon_norep,2021.1.2,Win32,59.90534955,,,,,,,,,,,,,,,,,,,,,,,,,,,,,,,,,,,,,
,,,o,1,1.1962,0,0.779135709,#a3d0fb,,right_blue.png,o,12,2,50,1,1,o,right_blue.png,right_orange.png,p,60638b9a7e201e12e43a2e33,001,2021-07-18_16h29.25.576,arrow_simon_norep,2021.1.2,Win32,59.90534955,,,,,,,,,,,,,,,,,,,,,,,,,,,,,,,,,,,,,
,,,p,1,0.9695,0,0.074296948,#f3af84,,right_orange.png,p,12,3,51,0,1,o,right_blue.png,right_orange.png,p,60638b9a7e201e12e43a2e33,001,2021-07-18_16h29.25.576,arrow_simon_norep,2021.1.2,Win32,59.90534955,,,,,,,,,,,,,,,,,,,,,,,,,,,,,,,,,,,,,
,,,o,1,1.1146,0,0.680902583,#a3d0fb,,right_blue.png,o,13,0,52,1,1,o,right_blue.png,right_orange.png,p,60638b9a7e201e12e43a2e33,001,2021-07-18_16h29.25.576,arrow_simon_norep,2021.1.2,Win32,59.90534955,,,,,,,,,,,,,,,,,,,,,,,,,,,,,,,,,,,,,
,,,p,1,1.2625,0,0.842754264,#f3af84,,right_orange.png,p,13,1,53,1,1,o,right_blue.png,right_orange.png,p,60638b9a7e201e12e43a2e33,001,2021-07-18_16h29.25.576,arrow_simon_norep,2021.1.2,Win32,59.90534955,,,,,,,,,,,,,,,,,,,,,,,,,,,,,,,,,,,,,
,,,w,1,1.5098,0,0.887195788,#a3d0fb,,left_blue.png,w,13,2,54,3,1,w,left_blue.png,left_orange.png,q,60638b9a7e201e12e43a2e33,001,2021-07-18_16h29.25.576,arrow_simon_norep,2021.1.2,Win32,59.90534955,,,,,,,,,,,,,,,,,,,,,,,,,,,,,,,,,,,,,
,,,q,1,0.9804,0,0.311658533,#f3af84,,left_orange.png,q,13,3,55,3,1,w,left_blue.png,left_orange.png,q,60638b9a7e201e12e43a2e33,001,2021-07-18_16h29.25.576,arrow_simon_norep,2021.1.2,Win32,59.90534955,,,,,,,,,,,,,,,,,,,,,,,,,,,,,,,,,,,,,
,,,w,1,1.0356,0,0.264588363,#a3d0fb,,left_blue.png,w,14,0,56,3,1,w,left_blue.png,left_orange.png,q,60638b9a7e201e12e43a2e33,001,2021-07-18_16h29.25.576,arrow_simon_norep,2021.1.2,Win32,59.90534955,,,,,,,,,,,,,,,,,,,,,,,,,,,,,,,,,,,,,
,,,q,1,1.0238,0,0.522764987,#f3af84,,left_orange.png,q,14,1,57,2,1,w,left_blue.png,left_orange.png,q,60638b9a7e201e12e43a2e33,001,2021-07-18_16h29.25.576,arrow_simon_norep,2021.1.2,Win32,59.90534955,,,,,,,,,,,,,,,,,,,,,,,,,,,,,,,,,,,,,
,,,w,1,1.2839,0,0.610250268,#a3d0fb,,left_blue.png,w,14,2,58,2,1,w,left_blue.png,left_orange.png,q,60638b9a7e201e12e43a2e33,001,2021-07-18_16h29.25.576,arrow_simon_norep,2021.1.2,Win32,59.90534955,,,,,,,,,,,,,,,,,,,,,,,,,,,,,,,,,,,,,
,,,p,1,1.3445,0,0.885689284,#f3af84,,right_orange.png,p,14,3,59,1,1,o,right_blue.png,right_orange.png,p,60638b9a7e201e12e43a2e33,001,2021-07-18_16h29.25.576,arrow_simon_norep,2021.1.2,Win32,59.90534955,,,,,,,,,,,,,,,,,,,,,,,,,,,,,,,,,,,,,
,,,,,,,,,,,,,,,,,,,,,60638b9a7e201e12e43a2e33,001,2021-07-18_16h29.25.576,arrow_simon_norep,2021.1.2,Win32,59.90534955,space,8.6216,1,0,1,0,1,,,,,,,,,,,,,,,,,,,,,,,,,,,,,,
,,,,,,,,,,,,,,,,,,,,,60638b9a7e201e12e43a2e33,001,2021-07-18_16h29.25.576,arrow_simon_norep,2021.1.2,Win32,59.90534955,,,,,,,,space,0,34.4937,w,2.8379,0,0,0,0,1,,,,,,,,,,,,,,,,,,,,
,,,,,,,,,,,,,,,,,,,,,60638b9a7e201e12e43a2e33,001,2021-07-18_16h29.25.576,arrow_simon_norep,2021.1.2,Win32,59.90534955,,,,,,,,,,,o,2.7297,1,0,1,0,1,,,,,,,,,,,,,,,,,,,,
,,,,,,,,,,,,,,,,,,,,,60638b9a7e201e12e43a2e33,001,2021-07-18_16h29.25.576,arrow_simon_norep,2021.1.2,Win32,59.90534955,,,,,,,,,,,o,2.7673,2,0,2,0,1,,,,,,,,,,,,,,,,,,,,
,,,,,,,,,,,,,,,,,,,,,60638b9a7e201e12e43a2e33,001,2021-07-18_16h29.25.576,arrow_simon_norep,2021.1.2,Win32,59.90534955,,,,,,,,,,,p,2.5004,3,0,3,0,1,,,,,,,,,,,,,,,,,,,,
,,,,,,,,,,,,,,,,,,,,,60638b9a7e201e12e43a2e33,001,2021-07-18_16h29.25.576,arrow_simon_norep,2021.1.2,Win32,59.90534955,,,,,,,,,,,q,2.3556,4,0,4,0,1,,,,,,,,,,,,,,,,,,,,
,,,,,,,,,,,,,,,,,,,,,60638b9a7e201e12e43a2e33,001,2021-07-18_16h29.25.576,arrow_simon_norep,2021.1.2,Win32,59.90534955,,,,,,,,,,,w,2.8267,5,0,5,0,1,,,,,,,,,,,,,,,,,,,,
,,,,,,,,,,,,,,,,,,,,,60638b9a7e201e12e43a2e33,001,2021-07-18_16h29.25.576,arrow_simon_norep,2021.1.2,Win32,59.90534955,,,,,,,,,,,w,2.645,6,0,6,0,1,,,,,,,,,,,,,,,,,,,,
,,,,,,,,,,,,,,,,,,,,,60638b9a7e201e12e43a2e33,001,2021-07-18_16h29.25.576,arrow_simon_norep,2021.1.2,Win32,59.90534955,,,,,,,,,,,o,2.4562,7,0,7,0,1,,,,,,,,,,,,,,,,,,,,
,,,,,,,,,,,,,,,,,,,,,60638b9a7e201e12e43a2e33,001,2021-07-18_16h29.25.576,arrow_simon_norep,2021.1.2,Win32,59.90534955,,,,,,,,,,,p,2.5508,8,0,8,0,1,,,,,,,,,,,,,,,,,,,,
,,,,,,,,,,,,,,,,,,,,,60638b9a7e201e12e43a2e33,001,2021-07-18_16h29.25.576,arrow_simon_norep,2021.1.2,Win32,59.90534955,,,,,,,,,,,q,2.4503,9,0,9,0,1,,,,,,,,,,,,,,,,,,,,
,,,,,,,,,,,,,,,,,,,,,60638b9a7e201e12e43a2e33,001,2021-07-18_16h29.25.576,arrow_simon_norep,2021.1.2,Win32,59.90534955,,,,,,,,,,,w,2.6004,10,0,10,0,1,,,,,,,,,,,,,,,,,,,,
,,,,,,,,,,,,,,,,,,,,,60638b9a7e201e12e43a2e33,001,2021-07-18_16h29.25.576,arrow_simon_norep,2021.1.2,Win32,59.90534955,,,,,,,,,,,p,2.6204,11,0,11,0,1,,,,,,,,,,,,,,,,,,,,
,,,,,,,,,,,,,,,,,,,,,60638b9a7e201e12e43a2e33,001,2021-07-18_16h29.25.576,arrow_simon_norep,2021.1.2,Win32,59.90534955,,,,,,,,,,,o,2.3882,12,0,12,0,1,,,,,,,,,,,,,,,,,,,,
,,,,,,,,,,,,,,,,,,,,,60638b9a7e201e12e43a2e33,001,2021-07-18_16h29.25.576,arrow_simon_norep,2021.1.2,Win32,59.90534955,,,,,,,,,,,o,2.3505,13,0,13,0,1,,,,,,,,,,,,,,,,,,,,
,,,,,,,,,,,,,,,,,,,,,60638b9a7e201e12e43a2e33,001,2021-07-18_16h29.25.576,arrow_simon_norep,2021.1.2,Win32,59.90534955,,,,,,,,,,,o,2.5297,14,0,14,0,1,,,,,,,,,,,,,,,,,,,,
,,,,,,,,,,,,,,,,,,,,,60638b9a7e201e12e43a2e33,001,2021-07-18_16h29.25.576,arrow_simon_norep,2021.1.2,Win32,59.90534955,,,,,,,,,,,w,2.6138,15,0,15,0,1,,,,,,,,,,,,,,,,,,,,
,,,,,,,,,,,,,,,,,,,,,60638b9a7e201e12e43a2e33,001,2021-07-18_16h29.25.576,arrow_simon_norep,2021.1.2,Win32,59.90534955,,,,,,,,,,,q,2.4086,16,0,16,0,1,,,,,,,,,,,,,,,,,,,,
,,,,,,,,,,,,,,,,,,,,,60638b9a7e201e12e43a2e33,001,2021-07-18_16h29.25.576,arrow_simon_norep,2021.1.2,Win32,59.90534955,,,,,,,,,,,q,2.367,17,0,17,0,1,,,,,,,,,,,,,,,,,,,,
,,,,,,,,,,,,,,,,,,,,,60638b9a7e201e12e43a2e33,001,2021-07-18_16h29.25.576,arrow_simon_norep,2021.1.2,Win32,59.90534955,,,,,,,,,,,o,2.3931,18,0,18,0,1,,,,,,,,,,,,,,,,,,,,
,,,,,,,,,,,,,,,,,,,,,60638b9a7e201e12e43a2e33,001,2021-07-18_16h29.25.576,arrow_simon_norep,2021.1.2,Win32,59.90534955,,,,,,,,,,,p,2.6148,19,0,19,0,1,,,,,,,,,,,,,,,,,,,,
,,,,,,,,,,,,,,,,,,,,,60638b9a7e201e12e43a2e33,001,2021-07-18_16h29.25.576,arrow_simon_norep,2021.1.2,Win32,59.90534955,,,,,,,,,,,o,2.634,20,0,20,0,1,,,,,,,,,,,,,,,,,,,,
,,,,,,,,,,,,,,,,,,,,,60638b9a7e201e12e43a2e33,001,2021-07-18_16h29.25.576,arrow_simon_norep,2021.1.2,Win32,59.90534955,,,,,,,,,,,p,2.3872,21,0,21,0,1,,,,,,,,,,,,,,,,,,,,
,,,,,,,,,,,,,,,,,,,,,60638b9a7e201e12e43a2e33,001,2021-07-18_16h29.25.576,arrow_simon_norep,2021.1.2,Win32,59.90534955,,,,,,,,,,,q,2.4646,22,0,22,0,1,,,,,,,,,,,,,,,,,,,,
,,,,,,,,,,,,,,,,,,,,,60638b9a7e201e12e43a2e33,001,2021-07-18_16h29.25.576,arrow_simon_norep,2021.1.2,Win32,59.90534955,,,,,,,,,,,w,2.4794,23,0,23,0,1,,,,,,,,,,,,,,,,,,,,
,,,,,,,,,,,,,,,,,,,,,60638b9a7e201e12e43a2e33,001,2021-07-18_16h29.25.576,arrow_simon_norep,2021.1.2,Win32,59.90534955,,,,,,,,,,,o,2.5584,24,0,24,0,1,,,,,,,,,,,,,,,,,,,,
,,,,,,,,,,,,,,,,,,,,,60638b9a7e201e12e43a2e33,001,2021-07-18_16h29.25.576,arrow_simon_norep,2021.1.2,Win32,59.90534955,,,,,,,,,,,p,2.4675,25,0,25,0,1,,,,,,,,,,,,,,,,,,,,
,,,,,,,,,,,,,,,,,,,,,60638b9a7e201e12e43a2e33,001,2021-07-18_16h29.25.576,arrow_simon_norep,2021.1.2,Win32,59.90534955,,,,,,,,,,,q,2.6172,26,0,26,0,1,,,,,,,,,,,,,,,,,,,,
,,,,,,,,,,,,,,,,,,,,,60638b9a7e201e12e43a2e33,001,2021-07-18_16h29.25.576,arrow_simon_norep,2021.1.2,Win32,59.90534955,,,,,,,,,,,w,2.5505,27,0,27,0,1,,,,,,,,,,,,,,,,,,,,
,,,,,,,,,,,,,,,,,,,,,60638b9a7e201e12e43a2e33,001,2021-07-18_16h29.25.576,arrow_simon_norep,2021.1.2,Win32,59.90534955,,,,,,,,,,,q,2.5842,28,0,28,0,1,,,,,,,,,,,,,,,,,,,,
,,,,,,,,,,,,,,,,,,,,,60638b9a7e201e12e43a2e33,001,2021-07-18_16h29.25.576,arrow_simon_norep,2021.1.2,Win32,59.90534955,,,,,,,,,,,o,2.5753,29,0,29,0,1,,,,,,,,,,,,,,,,,,,,
,,,,,,,,,,,,,,,,,,,,,60638b9a7e201e12e43a2e33,001,2021-07-18_16h29.25.576,arrow_simon_norep,2021.1.2,Win32,59.90534955,,,,,,,,,,,p,2.534,30,0,30,0,1,,,,,,,,,,,,,,,,,,,,
,,,,,,,,,,,,,,,,,,,,,60638b9a7e201e12e43a2e33,001,2021-07-18_16h29.25.576,arrow_simon_norep,2021.1.2,Win32,59.90534955,,,,,,,,,,,w,2.6174,31,0,31,0,1,,,,,,,,,,,,,,,,,,,,
,,,,,,,,,,,,,,,,,,,,,60638b9a7e201e12e43a2e33,001,2021-07-18_16h29.25.576,arrow_simon_norep,2021.1.2,Win32,59.90534955,,,,,,,,,,,w,2.4314,32,0,32,0,1,,,,,,,,,,,,,,,,,,,,
,,,,,,,,,,,,,,,,,,,,,60638b9a7e201e12e43a2e33,001,2021-07-18_16h29.25.576,arrow_simon_norep,2021.1.2,Win32,59.90534955,,,,,,,,,,,w,2.3594,33,0,33,0,1,,,,,,,,,,,,,,,,,,,,
,,,,,,,,,,,,,,,,,,,,,60638b9a7e201e12e43a2e33,001,2021-07-18_16h29.25.576,arrow_simon_norep,2021.1.2,Win32,59.90534955,,,,,,,,,,,o,2.6173,34,0,34,0,1,,,,,,,,,,,,,,,,,,,,
,,,,,,,,,,,,,,,,,,,,,60638b9a7e201e12e43a2e33,001,2021-07-18_16h29.25.576,arrow_simon_norep,2021.1.2,Win32,59.90534955,,,,,,,,,,,w,2.4742,35,0,35,0,1,,,,,,,,,,,,,,,,,,,,
,,,,,,,,,,,,,,,,,,,,,60638b9a7e201e12e43a2e33,001,2021-07-18_16h29.25.576,arrow_simon_norep,2021.1.2,Win32,59.90534955,,,,,,,,,,,w,2.5065,36,0,36,0,1,,,,,,,,,,,,,,,,,,,,
,,,,,,,,,,,,,,,,,,,,,60638b9a7e201e12e43a2e33,001,2021-07-18_16h29.25.576,arrow_simon_norep,2021.1.2,Win32,59.90534955,,,,,,,,,,,o,2.4978,37,0,37,0,1,,,,,,,,,,,,,,,,,,,,
,,,,,,,,,,,,,,,,,,,,,60638b9a7e201e12e43a2e33,001,2021-07-18_16h29.25.576,arrow_simon_norep,2021.1.2,Win32,59.90534955,,,,,,,,,,,p,2.5171,38,0,38,0,1,,,,,,,,,,,,,,,,,,,,
,,,,,,,,,,,,,,,,,,,,,60638b9a7e201e12e43a2e33,001,2021-07-18_16h29.25.576,arrow_simon_norep,2021.1.2,Win32,59.90534955,,,,,,,,,,,q,2.4482,39,0,39,0,1,,,,,,,,,,,,,,,,,,,,
,,,,,,,,,,,,,,,,,,,,,60638b9a7e201e12e43a2e33,001,2021-07-18_16h29.25.576,arrow_simon_norep,2021.1.2,Win32,59.90534955,,,,,,,,,,,w,2.4957,40,0,40,0,1,,,,,,,,,,,,,,,,,,,,
,,,,,,,,,,,,,,,,,,,,,60638b9a7e201e12e43a2e33,001,2021-07-18_16h29.25.576,arrow_simon_norep,2021.1.2,Win32,59.90534955,,,,,,,,,,,p,2.5383,41,0,41,0,1,,,,,,,,,,,,,,,,,,,,
,,,,,,,,,,,,,,,,,,,,,60638b9a7e201e12e43a2e33,001,2021-07-18_16h29.25.576,arrow_simon_norep,2021.1.2,Win32,59.90534955,,,,,,,,,,,q,2.5191,42,0,42,0,1,,,,,,,,,,,,,,,,,,,,
,,,,,,,,,,,,,,,,,,,,,60638b9a7e201e12e43a2e33,001,2021-07-18_16h29.25.576,arrow_simon_norep,2021.1.2,Win32,59.90534955,,,,,,,,,,,p,2.4335,43,0,43,0,1,,,,,,,,,,,,,,,,,,,,
,,,,,,,,,,,,,,,,,,,,,60638b9a7e201e12e43a2e33,001,2021-07-18_16h29.25.576,arrow_simon_norep,2021.1.2,Win32,59.90534955,,,,,,,,,,,q,2.5839,44,0,44,0,1,,,,,,,,,,,,,,,,,,,,
,,,,,,,,,,,,,,,,,,,,,60638b9a7e201e12e43a2e33,001,2021-07-18_16h29.25.576,arrow_simon_norep,2021.1.2,Win32,59.90534955,,,,,,,,,,,o,2.3842,45,0,45,0,1,,,,,,,,,,,,,,,,,,,,
,,,,,,,,,,,,,,,,,,,,,60638b9a7e201e12e43a2e33,001,2021-07-18_16h29.25.576,arrow_simon_norep,2021.1.2,Win32,59.90534955,,,,,,,,,,,o,2.4006,46,0,46,0,1,,,,,,,,,,,,,,,,,,,,
,,,,,,,,,,,,,,,,,,,,,60638b9a7e201e12e43a2e33,001,2021-07-18_16h29.25.576,arrow_simon_norep,2021.1.2,Win32,59.90534955,,,,,,,,,,,o,2.5249,47,0,47,0,1,,,,,,,,,,,,,,,,,,,,
,,,,,,,,,,,,,,,,,,,,,60638b9a7e201e12e43a2e33,001,2021-07-18_16h29.25.576,arrow_simon_norep,2021.1.2,Win32,59.90534955,,,,,,,,,,,w,2.3483,48,0,48,0,1,,,,,,,,,,,,,,,,,,,,
,,,,,,,,,,,,,,,,,,,,,60638b9a7e201e12e43a2e33,001,2021-07-18_16h29.25.576,arrow_simon_norep,2021.1.2,Win32,59.90534955,,,,,,,,,,,w,2.5604,49,0,49,0,1,,,,,,,,,,,,,,,,,,,,
,,,,,,,,,,,,,,,,,,,,,60638b9a7e201e12e43a2e33,001,2021-07-18_16h29.25.576,arrow_simon_norep,2021.1.2,Win32,59.90534955,,,,,,,,,,,q,2.5849,50,0,50,0,1,,,,,,,,,,,,,,,,,,,,
,,,,,,,,,,,,,,,,,,,,,60638b9a7e201e12e43a2e33,001,2021-07-18_16h29.25.576,arrow_simon_norep,2021.1.2,Win32,59.90534955,,,,,,,,,,,w,2.4417,51,0,51,0,1,,,,,,,,,,,,,,,,,,,,
,,,,,,,,,,,,,,,,,,,,,60638b9a7e201e12e43a2e33,001,2021-07-18_16h29.25.576,arrow_simon_norep,2021.1.2,Win32,59.90534955,,,,,,,,,,,p,2.4737,52,0,52,0,1,,,,,,,,,,,,,,,,,,,,
,,,,,,,,,,,,,,,,,,,,,60638b9a7e201e12e43a2e33,001,2021-07-18_16h29.25.576,arrow_simon_norep,2021.1.2,Win32,59.90534955,,,,,,,,,,,q,2.4863,53,0,53,0,1,,,,,,,,,,,,,,,,,,,,
,,,,,,,,,,,,,,,,,,,,,60638b9a7e201e12e43a2e33,001,2021-07-18_16h29.25.576,arrow_simon_norep,2021.1.2,Win32,59.90534955,,,,,,,,,,,w,2.5339,54,0,54,0,1,,,,,,,,,,,,,,,,,,,,
,,,,,,,,,,,,,,,,,,,,,60638b9a7e201e12e43a2e33,001,2021-07-18_16h29.25.576,arrow_simon_norep,2021.1.2,Win32,59.90534955,,,,,,,,,,,o,2.6338,55,0,55,0,1,,,,,,,,,,,,,,,,,,,,
,,,,,,,,,,,,,,,,,,,,,60638b9a7e201e12e43a2e33,001,2021-07-18_16h29.25.576,arrow_simon_norep,2021.1.2,Win32,59.90534955,,,,,,,,,,,w,2.4672,56,0,56,0,1,,,,,,,,,,,,,,,,,,,,
,,,,,,,,,,,,,,,,,,,,,60638b9a7e201e12e43a2e33,001,2021-07-18_16h29.25.576,arrow_simon_norep,2021.1.2,Win32,59.90534955,,,,,,,,,,,w,2.4635,57,0,57,0,1,,,,,,,,,,,,,,,,,,,,
,,,,,,,,,,,,,,,,,,,,,60638b9a7e201e12e43a2e33,001,2021-07-18_16h29.25.576,arrow_simon_norep,2021.1.2,Win32,59.90534955,,,,,,,,,,,o,2.6037,58,0,58,0,1,,,,,,,,,,,,,,,,,,,,
,,,,,,,,,,,,,,,,,,,,,60638b9a7e201e12e43a2e33,001,2021-07-18_16h29.25.576,arrow_simon_norep,2021.1.2,Win32,59.90534955,,,,,,,,,,,o,2.4144,59,0,59,0,1,,,,,,,,,,,,,,,,,,,,
,,,,,,1,2.41965762,#a3d0fb,,right_blue.png,o,,,,,,o,right_blue.png,right_orange.png,p,60638b9a7e201e12e43a2e33,001,2021-07-18_16h29.25.576,arrow_simon_norep,2021.1.2,Win32,59.90534955,,,,,,,,,,,,,,,,,,space,0,24.5908,w,0,1.584,FALSE,FALSE,0,0,0,1,1,,,,,,,
,,,,,,1,2.34939114,#f3af84,,left_orange.png,q,,,,,,w,left_blue.png,left_orange.png,q,60638b9a7e201e12e43a2e33,001,2021-07-18_16h29.25.576,arrow_simon_norep,2021.1.2,Win32,59.90534955,,,,,,,,,,,,,,,,,,,,,q,1,1.7222,TRUE,FALSE,0,1,1,3,1,,,,,,,
,,,,,,1,1.662847364,#a3d0fb,,left_blue.png,w,,,,,,w,left_blue.png,left_orange.png,q,60638b9a7e201e12e43a2e33,001,2021-07-18_16h29.25.576,arrow_simon_norep,2021.1.2,Win32,59.90534955,,,,,,,,,,,,,,,,,,,,,w,1,1.1561,FALSE,TRUE,0,2,2,2,1,,,,,,,
,,,,,,1,2.317508607,#f3af84,,right_orange.png,p,,,,,,o,right_blue.png,right_orange.png,p,60638b9a7e201e12e43a2e33,001,2021-07-18_16h29.25.576,arrow_simon_norep,2021.1.2,Win32,59.90534955,,,,,,,,,,,,,,,,,,,,,q,0,1.6578,TRUE,FALSE,0,3,3,0,1,,,,,,,
,,,,,,1,2.344269586,#a3d0fb,,left_blue.png,w,,,,,,w,left_blue.png,left_orange.png,q,60638b9a7e201e12e43a2e33,001,2021-07-18_16h29.25.576,arrow_simon_norep,2021.1.2,Win32,59.90534955,,,,,,,,,,,,,,,,,,,,,w,1,1.6674,TRUE,FALSE,1,0,4,2,1,,,,,,,
,,,,,,1,2.000507773,#f3af84,,left_orange.png,q,,,,,,w,left_blue.png,left_orange.png,q,60638b9a7e201e12e43a2e33,001,2021-07-18_16h29.25.576,arrow_simon_norep,2021.1.2,Win32,59.90534955,,,,,,,,,,,,,,,,,,,,,q,1,1.6673,TRUE,FALSE,1,1,5,2,1,,,,,,,
,,,,,,0,1.868925996,#a3d0fb,,right_blue.png,o,,,,,,o,right_blue.png,right_orange.png,p,60638b9a7e201e12e43a2e33,001,2021-07-18_16h29.25.576,arrow_simon_norep,2021.1.2,Win32,59.90534955,,,,,,,,,,,,,,,,,,,,,o,1,1.4888,FALSE,FALSE,1,2,6,1,1,,,,,,,
,,,,,,0,2.485098883,#f3af84,,right_orange.png,p,,,,,,o,right_blue.png,right_orange.png,p,60638b9a7e201e12e43a2e33,001,2021-07-18_16h29.25.576,arrow_simon_norep,2021.1.2,Win32,59.90534955,,,,,,,,,,,,,,,,,,,,,q,0,1.7901,TRUE,FALSE,1,3,7,0,1,,,,,,,
,,,,,,0,2.296661374,#a3d0fb,,left_blue.png,w,,,,,,w,left_blue.png,left_orange.png,q,60638b9a7e201e12e43a2e33,001,2021-07-18_16h29.25.576,arrow_simon_norep,2021.1.2,Win32,59.90534955,,,,,,,,,,,,,,,,,,,,,w,1,1.7076,TRUE,FALSE,2,0,8,3,1,,,,,,,
,,,,,,0,1.867278444,#f3af84,,left_orange.png,q,,,,,,w,left_blue.png,left_orange.png,q,60638b9a7e201e12e43a2e33,001,2021-07-18_16h29.25.576,arrow_simon_norep,2021.1.2,Win32,59.90534955,,,,,,,,,,,,,,,,,,,,,q,1,1.3777,FALSE,TRUE,2,1,9,2,1,,,,,,,
,,,,,,0,2.41309431,#a3d0fb,,right_blue.png,o,,,,,,o,right_blue.png,right_orange.png,p,60638b9a7e201e12e43a2e33,001,2021-07-18_16h29.25.576,arrow_simon_norep,2021.1.2,Win32,59.90534955,,,,,,,,,,,,,,,,,,,,,o,1,1.8117,TRUE,FALSE,2,2,10,1,1,,,,,,,
,,,,,,0,1.587181995,#f3af84,,right_orange.png,p,,,,,,o,right_blue.png,right_orange.png,p,60638b9a7e201e12e43a2e33,001,2021-07-18_16h29.25.576,arrow_simon_norep,2021.1.2,Win32,59.90534955,,,,,,,,,,,,,,,,,,,,,p,1,1.3209,FALSE,TRUE,2,3,11,0,1,,,,,,,
,,,,,,0,2.170234879,#a3d0fb,,right_blue.png,o,,,,,,o,right_blue.png,right_orange.png,p,60638b9a7e201e12e43a2e33,001,2021-07-18_16h29.25.576,arrow_simon_norep,2021.1.2,Win32,59.90534955,,,,,,,,,,,,,,,,,,,,,o,1,1.5543,FALSE,FALSE,3,0,12,1,1,,,,,,,
,,,,,,0,1.761419267,#f3af84,,right_orange.png,p,,,,,,o,right_blue.png,right_orange.png,p,60638b9a7e201e12e43a2e33,001,2021-07-18_16h29.25.576,arrow_simon_norep,2021.1.2,Win32,59.90534955,,,,,,,,,,,,,,,,,,,,,p,1,1.6037,TRUE,FALSE,3,1,13,1,1,,,,,,,
,,,,,,0,2.341505126,#a3d0fb,,left_blue.png,w,,,,,,w,left_blue.png,left_orange.png,q,60638b9a7e201e12e43a2e33,001,2021-07-18_16h29.25.576,arrow_simon_norep,2021.1.2,Win32,59.90534955,,,,,,,,,,,,,,,,,,,,,w,1,1.6694,TRUE,FALSE,3,2,14,2,1,,,,,,,
,,,,,,0,2.050539072,#f3af84,,right_orange.png,p,,,,,,o,right_blue.png,right_orange.png,p,60638b9a7e201e12e43a2e33,001,2021-07-18_16h29.25.576,arrow_simon_norep,2021.1.2,Win32,59.90534955,,,,,,,,,,,,,,,,,,,,,p,1,1.5007,FALSE,FALSE,3,3,15,1,1,,,,,,,
,,,,,,0,1.944364064,#a3d0fb,,right_blue.png,o,,,,,,o,right_blue.png,right_orange.png,p,60638b9a7e201e12e43a2e33,001,2021-07-18_16h29.25.576,arrow_simon_norep,2021.1.2,Win32,59.90534955,,,,,,,,,,,,,,,,,,,,,o,1,1.4007,FALSE,FALSE,4,0,16,0,1,,,,,,,
,,,,,,0,2.082194346,#f3af84,,left_orange.png,q,,,,,,w,left_blue.png,left_orange.png,q,60638b9a7e201e12e43a2e33,001,2021-07-18_16h29.25.576,arrow_simon_norep,2021.1.2,Win32,59.90534955,,,,,,,,,,,,,,,,,,,,,q,1,1.4816,FALSE,FALSE,4,1,17,3,1,,,,,,,
,,,,,,0,2.333696735,#a3d0fb,,left_blue.png,w,,,,,,w,left_blue.png,left_orange.png,q,60638b9a7e201e12e43a2e33,001,2021-07-18_16h29.25.576,arrow_simon_norep,2021.1.2,Win32,59.90534955,,,,,,,,,,,,,,,,,,,,,w,1,1.684,TRUE,FALSE,4,2,18,2,1,,,,,,,
,,,,,,0,1.827171374,#f3af84,,right_orange.png,p,,,,,,o,right_blue.png,right_orange.png,p,60638b9a7e201e12e43a2e33,001,2021-07-18_16h29.25.576,arrow_simon_norep,2021.1.2,Win32,59.90534955,,,,,,,,,,,,,,,,,,,,,p,1,1.2532,FALSE,TRUE,4,3,19,0,1,,,,,,,
,,,,,,0,1.897555615,#a3d0fb,,left_blue.png,w,,,,,,w,left_blue.png,left_orange.png,q,60638b9a7e201e12e43a2e33,001,2021-07-18_16h29.25.576,arrow_simon_norep,2021.1.2,Win32,59.90534955,,,,,,,,,,,,,,,,,,,,,w,1,1.4581,FALSE,FALSE,5,0,20,2,1,,,,,,,
,,,,,,1,1.658073556,#f3af84,,left_orange.png,q,,,,,,w,left_blue.png,left_orange.png,q,60638b9a7e201e12e43a2e33,001,2021-07-18_16h29.25.576,arrow_simon_norep,2021.1.2,Win32,59.90534955,,,,,,,,,,,,,,,,,,,,,w,0,1.4878,FALSE,FALSE,5,1,21,3,1,,,,,,,
,,,,,,0,1.785738692,#a3d0fb,,right_blue.png,o,,,,,,o,right_blue.png,right_orange.png,p,60638b9a7e201e12e43a2e33,001,2021-07-18_16h29.25.576,arrow_simon_norep,2021.1.2,Win32,59.90534955,,,,,,,,,,,,,,,,,,,,,o,1,1.495,FALSE,FALSE,5,2,22,1,1,,,,,,,
,,,,,,0,1.686773678,#f3af84,,left_orange.png,q,,,,,,w,left_blue.png,left_orange.png,q,60638b9a7e201e12e43a2e33,001,2021-07-18_16h29.25.576,arrow_simon_norep,2021.1.2,Win32,59.90534955,,,,,,,,,,,,,,,,,,,,,q,1,1.484,FALSE,FALSE,5,3,23,2,1,,,,,,,
,,,,,,0,2.082979987,#a3d0fb,,right_blue.png,o,,,,,,o,right_blue.png,right_orange.png,p,60638b9a7e201e12e43a2e33,001,2021-07-18_16h29.25.576,arrow_simon_norep,2021.1.2,Win32,59.90534955,,,,,,,,,,,,,,,,,,,,,o,1,1.6186,TRUE,FALSE,6,0,24,0,1,,,,,,,
,,,,,,0,2.396217929,#f3af84,,left_orange.png,q,,,,,,w,left_blue.png,left_orange.png,q,60638b9a7e201e12e43a2e33,001,2021-07-18_16h29.25.576,arrow_simon_norep,2021.1.2,Win32,59.90534955,,,,,,,,,,,,,,,,,,,,,q,1,1.6775,TRUE,FALSE,6,1,25,2,1,,,,,,,
,,,,,,0,2.426974825,#a3d0fb,,left_blue.png,w,,,,,,w,left_blue.png,left_orange.png,q,60638b9a7e201e12e43a2e33,001,2021-07-18_16h29.25.576,arrow_simon_norep,2021.1.2,Win32,59.90534955,,,,,,,,,,,,,,,,,,,,,o,0,1.6951,TRUE,FALSE,6,2,26,3,1,,,,,,,
,,,,,,0,2.489852476,#f3af84,,left_orange.png,q,,,,,,w,left_blue.png,left_orange.png,q,60638b9a7e201e12e43a2e33,001,2021-07-18_16h29.25.576,arrow_simon_norep,2021.1.2,Win32,59.90534955,,,,,,,,,,,,,,,,,,,,,q,1,1.7173,TRUE,FALSE,6,3,27,3,1,,,,,,,
,,,,,,0,1.744356227,#a3d0fb,,right_blue.png,o,,,,,,o,right_blue.png,right_orange.png,p,60638b9a7e201e12e43a2e33,001,2021-07-18_16h29.25.576,arrow_simon_norep,2021.1.2,Win32,59.90534955,,,,,,,,,,,,,,,,,,,,,o,1,1.5326,FALSE,FALSE,7,0,28,1,1,,,,,,,
,,,,,,0,2.089426566,#f3af84,,right_orange.png,p,,,,,,o,right_blue.png,right_orange.png,p,60638b9a7e201e12e43a2e33,001,2021-07-18_16h29.25.576,arrow_simon_norep,2021.1.2,Win32,59.90534955,,,,,,,,,,,,,,,,,,,,,p,1,1.4879,FALSE,FALSE,7,1,29,0,1,,,,,,,
,,,,,,0,1.729325155,#a3d0fb,,right_blue.png,o,,,,,,o,right_blue.png,right_orange.png,p,60638b9a7e201e12e43a2e33,001,2021-07-18_16h29.25.576,arrow_simon_norep,2021.1.2,Win32,59.90534955,,,,,,,,,,,,,,,,,,,,,o,1,1.4225,FALSE,FALSE,7,2,30,1,1,,,,,,,
,,,,,,0,2.381143381,#f3af84,,left_orange.png,q,,,,,,w,left_blue.png,left_orange.png,q,60638b9a7e201e12e43a2e33,001,2021-07-18_16h29.25.576,arrow_simon_norep,2021.1.2,Win32,59.90534955,,,,,,,,,,,,,,,,,,,,,q,1,1.6761,TRUE,FALSE,7,3,31,2,1,,,,,,,
,,,,,,0,1.502497502,#a3d0fb,,left_blue.png,w,,,,,,w,left_blue.png,left_orange.png,q,60638b9a7e201e12e43a2e33,001,2021-07-18_16h29.25.576,arrow_simon_norep,2021.1.2,Win32,59.90534955,,,,,,,,,,,,,,,,,,,,,w,1,1.3942,FALSE,TRUE,8,0,32,3,1,,,,,,,
,,,,,,0,1.949599139,#f3af84,,left_orange.png,q,,,,,,w,left_blue.png,left_orange.png,q,60638b9a7e201e12e43a2e33,001,2021-07-18_16h29.25.576,arrow_simon_norep,2021.1.2,Win32,59.90534955,,,,,,,,,,,,,,,,,,,,,q,1,1.5619,FALSE,FALSE,8,1,33,2,1,,,,,,,
,,,,,,0,1.622257267,#a3d0fb,,right_blue.png,o,,,,,,o,right_blue.png,right_orange.png,p,60638b9a7e201e12e43a2e33,001,2021-07-18_16h29.25.576,arrow_simon_norep,2021.1.2,Win32,59.90534955,,,,,,,,,,,,,,,,,,,,,o,1,1.2711,FALSE,TRUE,8,2,34,0,1,,,,,,,
,,,,,,0,1.603279399,#f3af84,,left_orange.png,q,,,,,,w,left_blue.png,left_orange.png,q,60638b9a7e201e12e43a2e33,001,2021-07-18_16h29.25.576,arrow_simon_norep,2021.1.2,Win32,59.90534955,,,,,,,,,,,,,,,,,,,,,q,1,1.5171,FALSE,FALSE,8,3,35,3,1,,,,,,,
,,,,,,0,2.43427588,#a3d0fb,,right_blue.png,o,,,,,,o,right_blue.png,right_orange.png,p,60638b9a7e201e12e43a2e33,001,2021-07-18_16h29.25.576,arrow_simon_norep,2021.1.2,Win32,59.90534955,,,,,,,,,,,,,,,,,,,,,w,0,1.8289,TRUE,FALSE,9,0,36,1,1,,,,,,,
,,,,,,0,1.703263618,#f3af84,,right_orange.png,p,,,,,,o,right_blue.png,right_orange.png,p,60638b9a7e201e12e43a2e33,001,2021-07-18_16h29.25.576,arrow_simon_norep,2021.1.2,Win32,59.90534955,,,,,,,,,,,,,,,,,,,,,p,1,1.2909,FALSE,TRUE,9,1,37,0,1,,,,,,,
,,,,,,0,1.696603232,#a3d0fb,,left_blue.png,w,,,,,,w,left_blue.png,left_orange.png,q,60638b9a7e201e12e43a2e33,001,2021-07-18_16h29.25.576,arrow_simon_norep,2021.1.2,Win32,59.90534955,,,,,,,,,,,,,,,,,,,,,w,1,1.5063,FALSE,FALSE,9,2,38,3,1,,,,,,,
,,,,,,0,1.823261337,#f3af84,,right_orange.png,p,,,,,,o,right_blue.png,right_orange.png,p,60638b9a7e201e12e43a2e33,001,2021-07-18_16h29.25.576,arrow_simon_norep,2021.1.2,Win32,59.90534955,,,,,,,,,,,,,,,,,,,,,p,1,1.5296,FALSE,FALSE,9,3,39,0,1,,,,,,,
,,,,,,0,2.122103992,#a3d0fb,,left_blue.png,w,,,,,,w,left_blue.png,left_orange.png,q,60638b9a7e201e12e43a2e33,001,2021-07-18_16h29.25.576,arrow_simon_norep,2021.1.2,Win32,59.90534955,,,,,,,,,,,,,,,,,,,,,w,1,1.4966,FALSE,FALSE,10,0,40,3,1,,,,,,,
,,,,,,0,2.273567688,#f3af84,,right_orange.png,p,,,,,,o,right_blue.png,right_orange.png,p,60638b9a7e201e12e43a2e33,001,2021-07-18_16h29.25.576,arrow_simon_norep,2021.1.2,Win32,59.90534955,,,,,,,,,,,,,,,,,,,,,p,1,1.606,TRUE,FALSE,10,1,41,1,1,,,,,,,
,,,,,,0,2.102642486,#a3d0fb,,right_blue.png,o,,,,,,o,right_blue.png,right_orange.png,p,60638b9a7e201e12e43a2e33,001,2021-07-18_16h29.25.576,arrow_simon_norep,2021.1.2,Win32,59.90534955,,,,,,,,,,,,,,,,,,,,,o,1,1.5274,FALSE,FALSE,10,2,42,1,1,,,,,,,
,,,,,,0,2.338809927,#f3af84,,right_orange.png,p,,,,,,o,right_blue.png,right_orange.png,p,60638b9a7e201e12e43a2e33,001,2021-07-18_16h29.25.576,arrow_simon_norep,2021.1.2,Win32,59.90534955,,,,,,,,,,,,,,,,,,,,,p,1,1.8005,TRUE,FALSE,10,3,43,0,1,,,,,,,
,,,,,,0,1.691755028,#a3d0fb,,left_blue.png,w,,,,,,w,left_blue.png,left_orange.png,q,60638b9a7e201e12e43a2e33,001,2021-07-18_16h29.25.576,arrow_simon_norep,2021.1.2,Win32,59.90534955,,,,,,,,,,,,,,,,,,,,,w,1,1.5183,FALSE,FALSE,11,0,44,3,1,,,,,,,
,,,,,,0,2.233905351,#f3af84,,right_orange.png,p,,,,,,o,right_blue.png,right_orange.png,p,60638b9a7e201e12e43a2e33,001,2021-07-18_16h29.25.576,arrow_simon_norep,2021.1.2,Win32,59.90534955,,,,,,,,,,,,,,,,,,,,,p,1,1.9145,TRUE,FALSE,11,1,45,0,1,,,,,,,
,,,,,,0,1.910064358,#a3d0fb,,left_blue.png,w,,,,,,w,left_blue.png,left_orange.png,q,60638b9a7e201e12e43a2e33,001,2021-07-18_16h29.25.576,arrow_simon_norep,2021.1.2,Win32,59.90534955,,,,,,,,,,,,,,,,,,,,,w,1,1.3636,FALSE,TRUE,11,2,46,3,1,,,,,,,
,,,,,,0,2.102641906,#f3af84,,left_orange.png,q,,,,,,w,left_blue.png,left_orange.png,q,60638b9a7e201e12e43a2e33,001,2021-07-18_16h29.25.576,arrow_simon_norep,2021.1.2,Win32,59.90534955,,,,,,,,,,,,,,,,,,,,,q,1,1.4839,FALSE,FALSE,11,3,47,2,1,,,,,,,
,,,,,,0,2.092763423,#a3d0fb,,right_blue.png,o,,,,,,o,right_blue.png,right_orange.png,p,60638b9a7e201e12e43a2e33,001,2021-07-18_16h29.25.576,arrow_simon_norep,2021.1.2,Win32,59.90534955,,,,,,,,,,,,,,,,,,,,,o,1,1.4306,FALSE,FALSE,12,0,48,1,1,,,,,,,
,,,,,,0,1.686807029,#f3af84,,left_orange.png,q,,,,,,w,left_blue.png,left_orange.png,q,60638b9a7e201e12e43a2e33,001,2021-07-18_16h29.25.576,arrow_simon_norep,2021.1.2,Win32,59.90534955,,,,,,,,,,,,,,,,,,,,,q,1,1.0523,FALSE,TRUE,12,1,49,2,1,,,,,,,
,,,,,,0,1.751213032,#a3d0fb,,left_blue.png,w,,,,,,w,left_blue.png,left_orange.png,q,60638b9a7e201e12e43a2e33,001,2021-07-18_16h29.25.576,arrow_simon_norep,2021.1.2,Win32,59.90534955,,,,,,,,,,,,,,,,,,,,,w,1,1.5718,FALSE,FALSE,12,2,50,3,1,,,,,,,
,,,,,,0,1.505774443,#f3af84,,left_orange.png,q,,,,,,w,left_blue.png,left_orange.png,q,60638b9a7e201e12e43a2e33,001,2021-07-18_16h29.25.576,arrow_simon_norep,2021.1.2,Win32,59.90534955,,,,,,,,,,,,,,,,,,,,,q,1,1.5709,FALSE,FALSE,12,3,51,3,1,,,,,,,
,,,,,,0,1.562005388,#a3d0fb,,right_blue.png,o,,,,,,o,right_blue.png,right_orange.png,p,60638b9a7e201e12e43a2e33,001,2021-07-18_16h29.25.576,arrow_simon_norep,2021.1.2,Win32,59.90534955,,,,,,,,,,,,,,,,,,,,,o,1,1.4385,FALSE,FALSE,13,0,52,1,1,,,,,,,
,,,,,,0,2.425593183,#f3af84,,left_orange.png,q,,,,,,w,left_blue.png,left_orange.png,q,60638b9a7e201e12e43a2e33,001,2021-07-18_16h29.25.576,arrow_simon_norep,2021.1.2,Win32,59.90534955,,,,,,,,,,,,,,,,,,,,,p,0,1.7039,TRUE,FALSE,13,1,53,3,1,,,,,,,
,,,,,,0,1.950508777,#a3d0fb,,right_blue.png,o,,,,,,o,right_blue.png,right_orange.png,p,60638b9a7e201e12e43a2e33,001,2021-07-18_16h29.25.576,arrow_simon_norep,2021.1.2,Win32,59.90534955,,,,,,,,,,,,,,,,,,,,,o,1,1.4158,FALSE,FALSE,13,2,54,0,1,,,,,,,
,,,,,,0,2.305483739,#f3af84,,right_orange.png,p,,,,,,o,right_blue.png,right_orange.png,p,60638b9a7e201e12e43a2e33,001,2021-07-18_16h29.25.576,arrow_simon_norep,2021.1.2,Win32,59.90534955,,,,,,,,,,,,,,,,,,,,,p,1,1.6042,TRUE,FALSE,13,3,55,1,1,,,,,,,
,,,,,,0,1.728070049,#a3d0fb,,left_blue.png,w,,,,,,w,left_blue.png,left_orange.png,q,60638b9a7e201e12e43a2e33,001,2021-07-18_16h29.25.576,arrow_simon_norep,2021.1.2,Win32,59.90534955,,,,,,,,,,,,,,,,,,,,,w,1,1.341,FALSE,TRUE,14,0,56,2,1,,,,,,,
,,,,,,0,1.57355585,#f3af84,,right_orange.png,p,,,,,,o,right_blue.png,right_orange.png,p,60638b9a7e201e12e43a2e33,001,2021-07-18_16h29.25.576,arrow_simon_norep,2021.1.2,Win32,59.90534955,,,,,,,,,,,,,,,,,,,,,p,1,1.3256,FALSE,TRUE,14,1,57,0,1,,,,,,,
,,,,,,0,1.770411826,#a3d0fb,,right_blue.png,o,,,,,,o,right_blue.png,right_orange.png,p,60638b9a7e201e12e43a2e33,001,2021-07-18_16h29.25.576,arrow_simon_norep,2021.1.2,Win32,59.90534955,,,,,,,,,,,,,,,,,,,,,o,1,1.3748,FALSE,TRUE,14,2,58,0,1,,,,,,,
,,,,,,0,2.315011806,#f3af84,,left_orange.png,q,,,,,,w,left_blue.png,left_orange.png,q,60638b9a7e201e12e43a2e33,001,2021-07-18_16h29.25.576,arrow_simon_norep,2021.1.2,Win32,59.90534955,,,,,,,,,,,,,,,,,,,,,q,1,1.5541,FALSE,FALSE,14,3,59,2,1,,,,,,,
,,,,,,,,,,,,,,,,,,,,,60638b9a7e201e12e43a2e33,001,2021-07-18_16h29.25.576,arrow_simon_norep,2021.1.2,Win32,59.90534955,,,,,,,,,,,,,,,,,,,,,,,,,,,,,,,space,56.0006,0,0,0,0,1
,,,,,,0,1.638393742,#a3d0fb,,right_blue.png,o,,,,,,o,right_blue.png,right_orange.png,p,60638b9a7e201e12e43a2e33,001,2021-07-18_16h29.25.576,arrow_simon_norep,2021.1.2,Win32,59.90534955,,,,,,,,,,,,,,,,,,,,,o,1,1.5343,FALSE,FALSE,0,0,0,0,1,,,,,,,
,,,,,,0,2.115252101,#f3af84,,right_orange.png,p,,,,,,o,right_blue.png,right_orange.png,p,60638b9a7e201e12e43a2e33,001,2021-07-18_16h29.25.576,arrow_simon_norep,2021.1.2,Win32,59.90534955,,,,,,,,,,,,,,,,,,,,,p,1,1.5586,FALSE,FALSE,0,1,1,1,1,,,,,,,
,,,,,,0,1.729169289,#a3d0fb,,left_blue.png,w,,,,,,w,left_blue.png,left_orange.png,q,60638b9a7e201e12e43a2e33,001,2021-07-18_16h29.25.576,arrow_simon_norep,2021.1.2,Win32,59.90534955,,,,,,,,,,,,,,,,,,,,,w,1,1.4174,FALSE,FALSE,0,2,2,3,1,,,,,,,
,,,,,,0,2.263755685,#f3af84,,right_orange.png,p,,,,,,o,right_blue.png,right_orange.png,p,60638b9a7e201e12e43a2e33,001,2021-07-18_16h29.25.576,arrow_simon_norep,2021.1.2,Win32,59.90534955,,,,,,,,,,,,,,,,,,,,,p,1,1.6088,TRUE,FALSE,0,3,3,1,1,,,,,,,
,,,,,,0,1.997917026,#a3d0fb,,right_blue.png,o,,,,,,o,right_blue.png,right_orange.png,p,60638b9a7e201e12e43a2e33,001,2021-07-18_16h29.25.576,arrow_simon_norep,2021.1.2,Win32,59.90534955,,,,,,,,,,,,,,,,,,,,,o,1,1.484,FALSE,FALSE,1,0,4,1,1,,,,,,,
,,,,,,0,1.73561547,#f3af84,,right_orange.png,p,,,,,,o,right_blue.png,right_orange.png,p,60638b9a7e201e12e43a2e33,001,2021-07-18_16h29.25.576,arrow_simon_norep,2021.1.2,Win32,59.90534955,,,,,,,,,,,,,,,,,,,,,p,1,1.347,FALSE,TRUE,1,1,5,0,1,,,,,,,
,,,,,,0,2.364219999,#a3d0fb,,left_blue.png,w,,,,,,w,left_blue.png,left_orange.png,q,60638b9a7e201e12e43a2e33,001,2021-07-18_16h29.25.576,arrow_simon_norep,2021.1.2,Win32,59.90534955,,,,,,,,,,,,,,,,,,,,,w,1,1.6768,TRUE,FALSE,1,2,6,3,1,,,,,,,
,,,,,,0,1.583869993,#f3af84,,left_orange.png,q,,,,,,w,left_blue.png,left_orange.png,q,60638b9a7e201e12e43a2e33,001,2021-07-18_16h29.25.576,arrow_simon_norep,2021.1.2,Win32,59.90534955,,,,,,,,,,,,,,,,,,,,,q,1,1.4006,FALSE,FALSE,1,3,7,3,1,,,,,,,
,,,,,,0,2.491258369,#a3d0fb,,right_blue.png,o,,,,,,o,right_blue.png,right_orange.png,p,60638b9a7e201e12e43a2e33,001,2021-07-18_16h29.25.576,arrow_simon_norep,2021.1.2,Win32,59.90534955,,,,,,,,,,,,,,,,,,,,,o,1,1.7823,TRUE,FALSE,2,0,8,1,1,,,,,,,
,,,,,,0,1.85217008,#f3af84,,left_orange.png,q,,,,,,w,left_blue.png,left_orange.png,q,60638b9a7e201e12e43a2e33,001,2021-07-18_16h29.25.576,arrow_simon_norep,2021.1.2,Win32,59.90534955,,,,,,,,,,,,,,,,,,,,,q,1,1.2924,FALSE,TRUE,2,1,9,3,1,,,,,,,
,,,,,,1,2.302000236,#a3d0fb,,left_blue.png,w,,,,,,w,left_blue.png,left_orange.png,q,60638b9a7e201e12e43a2e33,001,2021-07-18_16h29.25.576,arrow_simon_norep,2021.1.2,Win32,59.90534955,,,,,,,,,,,,,,,,,,,,,o,0,1.5802,FALSE,FALSE,2,2,10,3,1,,,,,,,
,,,,,,0,2.078900653,#f3af84,,left_orange.png,q,,,,,,w,left_blue.png,left_orange.png,q,60638b9a7e201e12e43a2e33,001,2021-07-18_16h29.25.576,arrow_simon_norep,2021.1.2,Win32,59.90534955,,,,,,,,,,,,,,,,,,,,,q,1,1.443,FALSE,FALSE,2,3,11,3,1,,,,,,,
,,,,,,0,2.437135564,#a3d0fb,,right_blue.png,o,,,,,,o,right_blue.png,right_orange.png,p,60638b9a7e201e12e43a2e33,001,2021-07-18_16h29.25.576,arrow_simon_norep,2021.1.2,Win32,59.90534955,,,,,,,,,,,,,,,,,,,,,o,1,1.7458,TRUE,FALSE,3,0,12,0,1,,,,,,,
,,,,,,0,2.217666166,#f3af84,,right_orange.png,p,,,,,,o,right_blue.png,right_orange.png,p,60638b9a7e201e12e43a2e33,001,2021-07-18_16h29.25.576,arrow_simon_norep,2021.1.2,Win32,59.90534955,,,,,,,,,,,,,,,,,,,,,p,1,1.5558,FALSE,FALSE,3,1,13,1,1,,,,,,,
,,,,,,0,1.679036321,#a3d0fb,,right_blue.png,o,,,,,,o,right_blue.png,right_orange.png,p,60638b9a7e201e12e43a2e33,001,2021-07-18_16h29.25.576,arrow_simon_norep,2021.1.2,Win32,59.90534955,,,,,,,,,,,,,,,,,,,,,o,1,1.4507,FALSE,FALSE,3,2,14,0,1,,,,,,,
,,,,,,0,2.309927579,#f3af84,,right_orange.png,p,,,,,,o,right_blue.png,right_orange.png,p,60638b9a7e201e12e43a2e33,001,2021-07-18_16h29.25.576,arrow_simon_norep,2021.1.2,Win32,59.90534955,,,,,,,,,,,,,,,,,,,,,p,1,1.649,TRUE,FALSE,3,3,15,0,1,,,,,,,
,,,,,,0,2.287256189,#a3d0fb,,right_blue.png,o,,,,,,o,right_blue.png,right_orange.png,p,60638b9a7e201e12e43a2e33,001,2021-07-18_16h29.25.576,arrow_simon_norep,2021.1.2,Win32,59.90534955,,,,,,,,,,,,,,,,,,,,,o,1,1.684,TRUE,FALSE,4,0,16,0,1,,,,,,,
,,,,,,0,1.564352609,#f3af84,,right_orange.png,p,,,,,,o,right_blue.png,right_orange.png,p,60638b9a7e201e12e43a2e33,001,2021-07-18_16h29.25.576,arrow_simon_norep,2021.1.2,Win32,59.90534955,,,,,,,,,,,,,,,,,,,,,p,1,1.2196,FALSE,TRUE,4,1,17,0,1,,,,,,,
,,,,,,0,2.028598621,#a3d0fb,,left_blue.png,w,,,,,,w,left_blue.png,left_orange.png,q,60638b9a7e201e12e43a2e33,001,2021-07-18_16h29.25.576,arrow_simon_norep,2021.1.2,Win32,59.90534955,,,,,,,,,,,,,,,,,,,,,w,1,1.6283,TRUE,FALSE,4,2,18,2,1,,,,,,,
,,,,,,0,1.605501876,#f3af84,,right_orange.png,p,,,,,,o,right_blue.png,right_orange.png,p,60638b9a7e201e12e43a2e33,001,2021-07-18_16h29.25.576,arrow_simon_norep,2021.1.2,Win32,59.90534955,,,,,,,,,,,,,,,,,,,,,p,1,0.9672,FALSE,TRUE,4,3,19,0,1,,,,,,,
,,,,,,0,1.688859123,#a3d0fb,,right_blue.png,o,,,,,,o,right_blue.png,right_orange.png,p,60638b9a7e201e12e43a2e33,001,2021-07-18_16h29.25.576,arrow_simon_norep,2021.1.2,Win32,59.90534955,,,,,,,,,,,,,,,,,,,,,o,1,1.284,FALSE,TRUE,5,0,20,0,1,,,,,,,
,,,,,,0,1.616527186,#f3af84,,left_orange.png,q,,,,,,w,left_blue.png,left_orange.png,q,60638b9a7e201e12e43a2e33,001,2021-07-18_16h29.25.576,arrow_simon_norep,2021.1.2,Win32,59.90534955,,,,,,,,,,,,,,,,,,,,,q,1,1.3921,FALSE,TRUE,5,1,21,2,1,,,,,,,
,,,,,,0,1.996059401,#a3d0fb,,right_blue.png,o,,,,,,o,right_blue.png,right_orange.png,p,60638b9a7e201e12e43a2e33,001,2021-07-18_16h29.25.576,arrow_simon_norep,2021.1.2,Win32,59.90534955,,,,,,,,,,,,,,,,,,,,,o,1,1.6031,TRUE,FALSE,5,2,22,1,1,,,,,,,
,,,,,,0,1.817872095,#f3af84,,left_orange.png,q,,,,,,w,left_blue.png,left_orange.png,q,60638b9a7e201e12e43a2e33,001,2021-07-18_16h29.25.576,arrow_simon_norep,2021.1.2,Win32,59.90534955,,,,,,,,,,,,,,,,,,,,,q,1,1.5338,FALSE,FALSE,5,3,23,3,1,,,,,,,
,,,,,,0,2.214459894,#a3d0fb,,left_blue.png,w,,,,,,w,left_blue.png,left_orange.png,q,60638b9a7e201e12e43a2e33,001,2021-07-18_16h29.25.576,arrow_simon_norep,2021.1.2,Win32,59.90534955,,,,,,,,,,,,,,,,,,,,,w,1,1.5173,FALSE,FALSE,6,0,24,2,1,,,,,,,
,,,,,,0,1.832161164,#f3af84,,left_orange.png,q,,,,,,w,left_blue.png,left_orange.png,q,60638b9a7e201e12e43a2e33,001,2021-07-18_16h29.25.576,arrow_simon_norep,2021.1.2,Win32,59.90534955,,,,,,,,,,,,,,,,,,,,,q,1,1.1838,FALSE,TRUE,6,1,25,3,1,,,,,,,
,,,,,,0,2.191356518,#a3d0fb,,left_blue.png,w,,,,,,w,left_blue.png,left_orange.png,q,60638b9a7e201e12e43a2e33,001,2021-07-18_16h29.25.576,arrow_simon_norep,2021.1.2,Win32,59.90534955,,,,,,,,,,,,,,,,,,,,,w,1,1.5124,FALSE,FALSE,6,2,26,2,1,,,,,,,
,,,,,,0,1.586972876,#f3af84,,right_orange.png,p,,,,,,o,right_blue.png,right_orange.png,p,60638b9a7e201e12e43a2e33,001,2021-07-18_16h29.25.576,arrow_simon_norep,2021.1.2,Win32,59.90534955,,,,,,,,,,,,,,,,,,,,,p,1,1.2553,FALSE,TRUE,6,3,27,0,1,,,,,,,
,,,,,,0,2.290339559,#a3d0fb,,left_blue.png,w,,,,,,w,left_blue.png,left_orange.png,q,60638b9a7e201e12e43a2e33,001,2021-07-18_16h29.25.576,arrow_simon_norep,2021.1.2,Win32,59.90534955,,,,,,,,,,,,,,,,,,,,,w,1,1.5784,FALSE,FALSE,7,0,28,3,1,,,,,,,
,,,,,,0,1.510279113,#f3af84,,left_orange.png,q,,,,,,w,left_blue.png,left_orange.png,q,60638b9a7e201e12e43a2e33,001,2021-07-18_16h29.25.576,arrow_simon_norep,2021.1.2,Win32,59.90534955,,,,,,,,,,,,,,,,,,,,,q,1,1.4319,FALSE,FALSE,7,1,29,2,1,,,,,,,
,,,,,,0,1.897462592,#a3d0fb,,left_blue.png,w,,,,,,w,left_blue.png,left_orange.png,q,60638b9a7e201e12e43a2e33,001,2021-07-18_16h29.25.576,arrow_simon_norep,2021.1.2,Win32,59.90534955,,,,,,,,,,,,,,,,,,,,,q,0,1.3428,FALSE,TRUE,7,2,30,2,1,,,,,,,
,,,,,,0,1.524328033,#f3af84,,left_orange.png,q,,,,,,w,left_blue.png,left_orange.png,q,60638b9a7e201e12e43a2e33,001,2021-07-18_16h29.25.576,arrow_simon_norep,2021.1.2,Win32,59.90534955,,,,,,,,,,,,,,,,,,,,,q,1,1.4503,FALSE,FALSE,7,3,31,3,1,,,,,,,
,,,,,,0,2.349139449,#a3d0fb,,left_blue.png,w,,,,,,w,left_blue.png,left_orange.png,q,60638b9a7e201e12e43a2e33,001,2021-07-18_16h29.25.576,arrow_simon_norep,2021.1.2,Win32,59.90534955,,,,,,,,,,,,,,,,,,,,,w,1,1.6858,TRUE,FALSE,8,0,32,2,1,,,,,,,
,,,,,,0,2.389834098,#f3af84,,right_orange.png,p,,,,,,o,right_blue.png,right_orange.png,p,60638b9a7e201e12e43a2e33,001,2021-07-18_16h29.25.576,arrow_simon_norep,2021.1.2,Win32,59.90534955,,,,,,,,,,,,,,,,,,,,,p,1,1.6393,TRUE,FALSE,8,1,33,1,1,,,,,,,
,,,,,,0,2.052427058,#a3d0fb,,right_blue.png,o,,,,,,o,right_blue.png,right_orange.png,p,60638b9a7e201e12e43a2e33,001,2021-07-18_16h29.25.576,arrow_simon_norep,2021.1.2,Win32,59.90534955,,,,,,,,,,,,,,,,,,,,,o,1,1.6371,TRUE,FALSE,8,2,34,0,1,,,,,,,
,,,,,,0,2.215042419,#f3af84,,right_orange.png,p,,,,,,o,right_blue.png,right_orange.png,p,60638b9a7e201e12e43a2e33,001,2021-07-18_16h29.25.576,arrow_simon_norep,2021.1.2,Win32,59.90534955,,,,,,,,,,,,,,,,,,,,,p,1,1.5037,FALSE,FALSE,8,3,35,1,1,,,,,,,
,,,,,,0,2.357070287,#a3d0fb,,right_blue.png,o,,,,,,o,right_blue.png,right_orange.png,p,60638b9a7e201e12e43a2e33,001,2021-07-18_16h29.25.576,arrow_simon_norep,2021.1.2,Win32,59.90534955,,,,,,,,,,,,,,,,,,,,,o,1,1.6783,TRUE,FALSE,9,0,36,1,1,,,,,,,
,,,,,,0,2.379802407,#f3af84,,right_orange.png,p,,,,,,o,right_blue.png,right_orange.png,p,60638b9a7e201e12e43a2e33,001,2021-07-18_16h29.25.576,arrow_simon_norep,2021.1.2,Win32,59.90534955,,,,,,,,,,,,,,,,,,,,,p,1,1.6679,TRUE,FALSE,9,1,37,1,1,,,,,,,
,,,,,,0,2.442955303,#a3d0fb,,left_blue.png,w,,,,,,w,left_blue.png,left_orange.png,q,60638b9a7e201e12e43a2e33,001,2021-07-18_16h29.25.576,arrow_simon_norep,2021.1.2,Win32,59.90534955,,,,,,,,,,,,,,,,,,,,,w,1,1.6936,TRUE,FALSE,9,2,38,2,1,,,,,,,
,,,,,,0,2.04661021,#f3af84,,left_orange.png,q,,,,,,w,left_blue.png,left_orange.png,q,60638b9a7e201e12e43a2e33,001,2021-07-18_16h29.25.576,arrow_simon_norep,2021.1.2,Win32,59.90534955,,,,,,,,,,,,,,,,,,,,,p,0,1.357,FALSE,TRUE,9,3,39,3,1,,,,,,,
,,,,,,0,2.054200001,#a3d0fb,,right_blue.png,o,,,,,,o,right_blue.png,right_orange.png,p,60638b9a7e201e12e43a2e33,001,2021-07-18_16h29.25.576,arrow_simon_norep,2021.1.2,Win32,59.90534955,,,,,,,,,,,,,,,,,,,,,o,1,1.6014,TRUE,FALSE,10,0,40,1,1,,,,,,,
,,,,,,0,2.242452259,#f3af84,,right_orange.png,p,,,,,,o,right_blue.png,right_orange.png,p,60638b9a7e201e12e43a2e33,001,2021-07-18_16h29.25.576,arrow_simon_norep,2021.1.2,Win32,59.90534955,,,,,,,,,,,,,,,,,,,,,p,1,1.5321,FALSE,FALSE,10,1,41,1,1,,,,,,,
,,,,,,0,2.455871101,#a3d0fb,,left_blue.png,w,,,,,,w,left_blue.png,left_orange.png,q,60638b9a7e201e12e43a2e33,001,2021-07-18_16h29.25.576,arrow_simon_norep,2021.1.2,Win32,59.90534955,,,,,,,,,,,,,,,,,,,,,w,1,1.6855,TRUE,FALSE,10,2,42,2,1,,,,,,,
,,,,,,0,1.971018613,#f3af84,,left_orange.png,q,,,,,,w,left_blue.png,left_orange.png,q,60638b9a7e201e12e43a2e33,001,2021-07-18_16h29.25.576,arrow_simon_norep,2021.1.2,Win32,59.90534955,,,,,,,,,,,,,,,,,,,,,q,1,1.4773,FALSE,FALSE,10,3,43,2,1,,,,,,,
,,,,,,0,2.176888678,#a3d0fb,,left_blue.png,w,,,,,,w,left_blue.png,left_orange.png,q,60638b9a7e201e12e43a2e33,001,2021-07-18_16h29.25.576,arrow_simon_norep,2021.1.2,Win32,59.90534955,,,,,,,,,,,,,,,,,,,,,w,1,1.5249,FALSE,FALSE,11,0,44,2,1,,,,,,,
,,,,,,0,1.548857153,#f3af84,,left_orange.png,q,,,,,,w,left_blue.png,left_orange.png,q,60638b9a7e201e12e43a2e33,001,2021-07-18_16h29.25.576,arrow_simon_norep,2021.1.2,Win32,59.90534955,,,,,,,,,,,,,,,,,,,,,q,1,1.2708,FALSE,TRUE,11,1,45,2,1,,,,,,,
,,,,,,0,2.498020968,#a3d0fb,,left_blue.png,w,,,,,,w,left_blue.png,left_orange.png,q,60638b9a7e201e12e43a2e33,001,2021-07-18_16h29.25.576,arrow_simon_norep,2021.1.2,Win32,59.90534955,,,,,,,,,,,,,,,,,,,,,o,0,1.7602,TRUE,FALSE,11,2,46,3,1,,,,,,,
,,,,,,0,2.310178741,#f3af84,,right_orange.png,p,,,,,,o,right_blue.png,right_orange.png,p,60638b9a7e201e12e43a2e33,001,2021-07-18_16h29.25.576,arrow_simon_norep,2021.1.2,Win32,59.90534955,,,,,,,,,,,,,,,,,,,,,p,1,1.67,TRUE,FALSE,11,3,47,0,1,,,,,,,
,,,,,,0,2.225366502,#a3d0fb,,right_blue.png,o,,,,,,o,right_blue.png,right_orange.png,p,60638b9a7e201e12e43a2e33,001,2021-07-18_16h29.25.576,arrow_simon_norep,2021.1.2,Win32,59.90534955,,,,,,,,,,,,,,,,,,,,,o,1,1.5613,FALSE,FALSE,12,0,48,1,1,,,,,,,
,,,,,,0,2.064304353,#f3af84,,left_orange.png,q,,,,,,w,left_blue.png,left_orange.png,q,60638b9a7e201e12e43a2e33,001,2021-07-18_16h29.25.576,arrow_simon_norep,2021.1.2,Win32,59.90534955,,,,,,,,,,,,,,,,,,,,,q,1,1.4314,FALSE,FALSE,12,1,49,3,1,,,,,,,
,,,,,,0,2.21947696,#a3d0fb,,right_blue.png,o,,,,,,o,right_blue.png,right_orange.png,p,60638b9a7e201e12e43a2e33,001,2021-07-18_16h29.25.576,arrow_simon_norep,2021.1.2,Win32,59.90534955,,,,,,,,,,,,,,,,,,,,,o,1,1.569,FALSE,FALSE,12,2,50,1,1,,,,,,,
,,,,,,0,1.58287623,#f3af84,,left_orange.png,q,,,,,,w,left_blue.png,left_orange.png,q,60638b9a7e201e12e43a2e33,001,2021-07-18_16h29.25.576,arrow_simon_norep,2021.1.2,Win32,59.90534955,,,,,,,,,,,,,,,,,,,,,q,1,1.0021,FALSE,TRUE,12,3,51,3,1,,,,,,,
,,,,,,0,2.042848629,#a3d0fb,,left_blue.png,w,,,,,,w,left_blue.png,left_orange.png,q,60638b9a7e201e12e43a2e33,001,2021-07-18_16h29.25.576,arrow_simon_norep,2021.1.2,Win32,59.90534955,,,,,,,,,,,,,,,,,,,,,w,1,1.3971,FALSE,TRUE,13,0,52,2,1,,,,,,,
,,,,,,0,1.569181187,#f3af84,,left_orange.png,q,,,,,,w,left_blue.png,left_orange.png,q,60638b9a7e201e12e43a2e33,001,2021-07-18_16h29.25.576,arrow_simon_norep,2021.1.2,Win32,59.90534955,,,,,,,,,,,,,,,,,,,,,q,1,1.3558,FALSE,TRUE,13,1,53,3,1,,,,,,,
,,,,,,0,1.623542844,#a3d0fb,,right_blue.png,o,,,,,,o,right_blue.png,right_orange.png,p,60638b9a7e201e12e43a2e33,001,2021-07-18_16h29.25.576,arrow_simon_norep,2021.1.2,Win32,59.90534955,,,,,,,,,,,,,,,,,,,,,o,1,1.4178,FALSE,FALSE,13,2,54,1,1,,,,,,,
,,,,,,0,2.388817857,#f3af84,,right_orange.png,p,,,,,,o,right_blue.png,right_orange.png,p,60638b9a7e201e12e43a2e33,001,2021-07-18_16h29.25.576,arrow_simon_norep,2021.1.2,Win32,59.90534955,,,,,,,,,,,,,,,,,,,,,q,0,1.6819,TRUE,FALSE,13,3,55,0,1,,,,,,,
,,,,,,0,1.62322916,#a3d0fb,,left_blue.png,w,,,,,,w,left_blue.png,left_orange.png,q,60638b9a7e201e12e43a2e33,001,2021-07-18_16h29.25.576,arrow_simon_norep,2021.1.2,Win32,59.90534955,,,,,,,,,,,,,,,,,,,,,w,1,1.6233,TRUE,FALSE,14,0,56,2,1,,,,,,,
,,,,,,0,1.965813871,#f3af84,,right_orange.png,p,,,,,,o,right_blue.png,right_orange.png,p,60638b9a7e201e12e43a2e33,001,2021-07-18_16h29.25.576,arrow_simon_norep,2021.1.2,Win32,59.90534955,,,,,,,,,,,,,,,,,,,,,p,1,1.3196,FALSE,TRUE,14,1,57,0,1,,,,,,,
,,,,,,0,2.464818718,#a3d0fb,,left_blue.png,w,,,,,,w,left_blue.png,left_orange.png,q,60638b9a7e201e12e43a2e33,001,2021-07-18_16h29.25.576,arrow_simon_norep,2021.1.2,Win32,59.90534955,,,,,,,,,,,,,,,,,,,,,o,0,1.7994,TRUE,FALSE,14,2,58,2,1,,,,,,,
,,,,,,0,1.779153913,#f3af84,,right_orange.png,p,,,,,,o,right_blue.png,right_orange.png,p,60638b9a7e201e12e43a2e33,001,2021-07-18_16h29.25.576,arrow_simon_norep,2021.1.2,Win32,59.90534955,,,,,,,,,,,,,,,,,,,,,p,1,1.2001,FALSE,TRUE,14,3,59,0,1,,,,,,,
,,,,,,,,,,,,,,,,,,,,,60638b9a7e201e12e43a2e33,001,2021-07-18_16h29.25.576,arrow_simon_norep,2021.1.2,Win32,59.90534955,,,,,,,,,,,,,,,,,,,,,,,,,,,,,,,space,82.8569,1,0,1,0,1
,,,,,,0,1.57148736,#a3d0fb,,left_blue.png,w,,,,,,w,left_blue.png,left_orange.png,q,60638b9a7e201e12e43a2e33,001,2021-07-18_16h29.25.576,arrow_simon_norep,2021.1.2,Win32,59.90534955,,,,,,,,,,,,,,,,,,,,,w,1,1.3982,FALSE,TRUE,0,0,0,3,1,,,,,,,
,,,,,,0,2.375356683,#f3af84,,left_orange.png,q,,,,,,w,left_blue.png,left_orange.png,q,60638b9a7e201e12e43a2e33,001,2021-07-18_16h29.25.576,arrow_simon_norep,2021.1.2,Win32,59.90534955,,,,,,,,,,,,,,,,,,,,,q,1,1.7339,TRUE,FALSE,0,1,1,3,1,,,,,,,
,,,,,,0,2.379390771,#a3d0fb,,left_blue.png,w,,,,,,w,left_blue.png,left_orange.png,q,60638b9a7e201e12e43a2e33,001,2021-07-18_16h29.25.576,arrow_simon_norep,2021.1.2,Win32,59.90534955,,,,,,,,,,,,,,,,,,,,,w,1,1.6979,TRUE,FALSE,0,2,2,2,1,,,,,,,
,,,,,,0,1.932753277,#f3af84,,right_orange.png,p,,,,,,o,right_blue.png,right_orange.png,p,60638b9a7e201e12e43a2e33,001,2021-07-18_16h29.25.576,arrow_simon_norep,2021.1.2,Win32,59.90534955,,,,,,,,,,,,,,,,,,,,,p,1,1.2895,FALSE,TRUE,0,3,3,0,1,,,,,,,
,,,,,,0,2.457110613,#a3d0fb,,right_blue.png,o,,,,,,o,right_blue.png,right_orange.png,p,60638b9a7e201e12e43a2e33,001,2021-07-18_16h29.25.576,arrow_simon_norep,2021.1.2,Win32,59.90534955,,,,,,,,,,,,,,,,,,,,,w,0,1.7114,TRUE,FALSE,1,0,4,0,1,,,,,,,
,,,,,,0,1.981019403,#f3af84,,right_orange.png,p,,,,,,o,right_blue.png,right_orange.png,p,60638b9a7e201e12e43a2e33,001,2021-07-18_16h29.25.576,arrow_simon_norep,2021.1.2,Win32,59.90534955,,,,,,,,,,,,,,,,,,,,,p,1,1.3285,FALSE,TRUE,1,1,5,0,1,,,,,,,
,,,,,,0,1.977245583,#a3d0fb,,left_blue.png,w,,,,,,w,left_blue.png,left_orange.png,q,60638b9a7e201e12e43a2e33,001,2021-07-18_16h29.25.576,arrow_simon_norep,2021.1.2,Win32,59.90534955,,,,,,,,,,,,,,,,,,,,,w,1,1.3874,FALSE,TRUE,1,2,6,3,1,,,,,,,
,,,,,,1,2.092829025,#f3af84,,left_orange.png,q,,,,,,w,left_blue.png,left_orange.png,q,60638b9a7e201e12e43a2e33,001,2021-07-18_16h29.25.576,arrow_simon_norep,2021.1.2,Win32,59.90534955,,,,,,,,,,,,,,,,,,,,,w,0,1.5051,FALSE,FALSE,1,3,7,2,1,,,,,,,
,,,,,,1,2.110540146,#a3d0fb,,left_blue.png,w,,,,,,w,left_blue.png,left_orange.png,q,60638b9a7e201e12e43a2e33,001,2021-07-18_16h29.25.576,arrow_simon_norep,2021.1.2,Win32,59.90534955,,,,,,,,,,,,,,,,,,,,,w,1,1.6009,TRUE,FALSE,2,0,8,3,1,,,,,,,
,,,,,,1,2.476184163,#f3af84,,left_orange.png,q,,,,,,w,left_blue.png,left_orange.png,q,60638b9a7e201e12e43a2e33,001,2021-07-18_16h29.25.576,arrow_simon_norep,2021.1.2,Win32,59.90534955,,,,,,,,,,,,,,,,,,,,,p,0,1.8021,TRUE,FALSE,2,1,9,2,1,,,,,,,
,,,,,,1,1.762015412,#a3d0fb,,right_blue.png,o,,,,,,o,right_blue.png,right_orange.png,p,60638b9a7e201e12e43a2e33,001,2021-07-18_16h29.25.576,arrow_simon_norep,2021.1.2,Win32,59.90534955,,,,,,,,,,,,,,,,,,,,,o,1,1.1911,FALSE,TRUE,2,2,10,0,1,,,,,,,
,,,,,,0,1.6973169,#f3af84,,right_orange.png,p,,,,,,o,right_blue.png,right_orange.png,p,60638b9a7e201e12e43a2e33,001,2021-07-18_16h29.25.576,arrow_simon_norep,2021.1.2,Win32,59.90534955,,,,,,,,,,,,,,,,,,,,,p,1,1.5574,FALSE,FALSE,2,3,11,0,1,,,,,,,
,,,,,,0,1.792889203,#a3d0fb,,right_blue.png,o,,,,,,o,right_blue.png,right_orange.png,p,60638b9a7e201e12e43a2e33,001,2021-07-18_16h29.25.576,arrow_simon_norep,2021.1.2,Win32,59.90534955,,,,,,,,,,,,,,,,,,,,,o,1,1.579,FALSE,FALSE,3,0,12,1,1,,,,,,,
,,,,,,0,1.811438366,#f3af84,,right_orange.png,p,,,,,,o,right_blue.png,right_orange.png,p,60638b9a7e201e12e43a2e33,001,2021-07-18_16h29.25.576,arrow_simon_norep,2021.1.2,Win32,59.90534955,,,,,,,,,,,,,,,,,,,,,p,1,1.5007,FALSE,FALSE,3,1,13,1,1,,,,,,,
,,,,,,0,2.446018186,#a3d0fb,,right_blue.png,o,,,,,,o,right_blue.png,right_orange.png,p,60638b9a7e201e12e43a2e33,001,2021-07-18_16h29.25.576,arrow_simon_norep,2021.1.2,Win32,59.90534955,,,,,,,,,,,,,,,,,,,,,o,1,1.6868,TRUE,FALSE,3,2,14,1,1,,,,,,,
,,,,,,0,1.694698358,#f3af84,,right_orange.png,p,,,,,,o,right_blue.png,right_orange.png,p,60638b9a7e201e12e43a2e33,001,2021-07-18_16h29.25.576,arrow_simon_norep,2021.1.2,Win32,59.90534955,,,,,,,,,,,,,,,,,,,,,p,1,1.584,FALSE,FALSE,3,3,15,1,1,,,,,,,
,,,,,,0,2.161064267,#a3d0fb,,right_blue.png,o,,,,,,o,right_blue.png,right_orange.png,p,60638b9a7e201e12e43a2e33,001,2021-07-18_16h29.25.576,arrow_simon_norep,2021.1.2,Win32,59.90534955,,,,,,,,,,,,,,,,,,,,,o,1,1.5347,FALSE,FALSE,4,0,16,1,1,,,,,,,
,,,,,,0,2.111898223,#f3af84,,right_orange.png,p,,,,,,o,right_blue.png,right_orange.png,p,60638b9a7e201e12e43a2e33,001,2021-07-18_16h29.25.576,arrow_simon_norep,2021.1.2,Win32,59.90534955,,,,,,,,,,,,,,,,,,,,,q,0,1.396,FALSE,TRUE,4,1,17,0,1,,,,,,,
,,,,,,0,2.418943902,#a3d0fb,,left_blue.png,w,,,,,,w,left_blue.png,left_orange.png,q,60638b9a7e201e12e43a2e33,001,2021-07-18_16h29.25.576,arrow_simon_norep,2021.1.2,Win32,59.90534955,,,,,,,,,,,,,,,,,,,,,w,1,1.7343,TRUE,FALSE,4,2,18,3,1,,,,,,,
,,,,,,0,2.095916656,#f3af84,,right_orange.png,p,,,,,,o,right_blue.png,right_orange.png,p,60638b9a7e201e12e43a2e33,001,2021-07-18_16h29.25.576,arrow_simon_norep,2021.1.2,Win32,59.90534955,,,,,,,,,,,,,,,,,,,,,p,1,1.448,FALSE,FALSE,4,3,19,1,1,,,,,,,
,,,,,,0,2.134663013,#a3d0fb,,right_blue.png,o,,,,,,o,right_blue.png,right_orange.png,p,60638b9a7e201e12e43a2e33,001,2021-07-18_16h29.25.576,arrow_simon_norep,2021.1.2,Win32,59.90534955,,,,,,,,,,,,,,,,,,,,,o,1,1.7395,TRUE,FALSE,5,0,20,0,1,,,,,,,
,,,,,,0,2.222378252,#f3af84,,right_orange.png,p,,,,,,o,right_blue.png,right_orange.png,p,60638b9a7e201e12e43a2e33,001,2021-07-18_16h29.25.576,arrow_simon_norep,2021.1.2,Win32,59.90534955,,,,,,,,,,,,,,,,,,,,,p,1,1.5123,FALSE,FALSE,5,1,21,1,1,,,,,,,
,,,,,,0,1.807768059,#a3d0fb,,right_blue.png,o,,,,,,o,right_blue.png,right_orange.png,p,60638b9a7e201e12e43a2e33,001,2021-07-18_16h29.25.576,arrow_simon_norep,2021.1.2,Win32,59.90534955,,,,,,,,,,,,,,,,,,,,,o,1,1.5272,FALSE,FALSE,5,2,22,1,1,,,,,,,
,,,,,,0,1.942895912,#f3af84,,left_orange.png,q,,,,,,w,left_blue.png,left_orange.png,q,60638b9a7e201e12e43a2e33,001,2021-07-18_16h29.25.576,arrow_simon_norep,2021.1.2,Win32,59.90534955,,,,,,,,,,,,,,,,,,,,,q,1,1.3597,FALSE,TRUE,5,3,23,3,1,,,,,,,
,,,,,,0,2.233107171,#a3d0fb,,right_blue.png,o,,,,,,o,right_blue.png,right_orange.png,p,60638b9a7e201e12e43a2e33,001,2021-07-18_16h29.25.576,arrow_simon_norep,2021.1.2,Win32,59.90534955,,,,,,,,,,,,,,,,,,,,,o,1,1.553,FALSE,FALSE,6,0,24,1,1,,,,,,,
,,,,,,0,1.631037379,#f3af84,,left_orange.png,q,,,,,,w,left_blue.png,left_orange.png,q,60638b9a7e201e12e43a2e33,001,2021-07-18_16h29.25.576,arrow_simon_norep,2021.1.2,Win32,59.90534955,,,,,,,,,,,,,,,,,,,,,q,1,1.4136,FALSE,FALSE,6,1,25,2,1,,,,,,,
,,,,,,0,1.579653461,#a3d0fb,,left_blue.png,w,,,,,,w,left_blue.png,left_orange.png,q,60638b9a7e201e12e43a2e33,001,2021-07-18_16h29.25.576,arrow_simon_norep,2021.1.2,Win32,59.90534955,,,,,,,,,,,,,,,,,,,,,w,1,1.3065,FALSE,TRUE,6,2,26,3,1,,,,,,,
,,,,,,0,1.90357327,#f3af84,,left_orange.png,q,,,,,,w,left_blue.png,left_orange.png,q,60638b9a7e201e12e43a2e33,001,2021-07-18_16h29.25.576,arrow_simon_norep,2021.1.2,Win32,59.90534955,,,,,,,,,,,,,,,,,,,,,q,1,1.3863,FALSE,TRUE,6,3,27,2,1,,,,,,,
,,,,,,0,1.888903676,#a3d0fb,,left_blue.png,w,,,,,,w,left_blue.png,left_orange.png,q,60638b9a7e201e12e43a2e33,001,2021-07-18_16h29.25.576,arrow_simon_norep,2021.1.2,Win32,59.90534955,,,,,,,,,,,,,,,,,,,,,w,1,1.4138,FALSE,FALSE,7,0,28,2,1,,,,,,,
,,,,,,1,1.886426429,#f3af84,,right_orange.png,p,,,,,,o,right_blue.png,right_orange.png,p,60638b9a7e201e12e43a2e33,001,2021-07-18_16h29.25.576,arrow_simon_norep,2021.1.2,Win32,59.90534955,,,,,,,,,,,,,,,,,,,,,o,0,1.5552,FALSE,FALSE,7,1,29,0,1,,,,,,,
,,,,,,0,2.016654913,#a3d0fb,,right_blue.png,o,,,,,,o,right_blue.png,right_orange.png,p,60638b9a7e201e12e43a2e33,001,2021-07-18_16h29.25.576,arrow_simon_norep,2021.1.2,Win32,59.90534955,,,,,,,,,,,,,,,,,,,,,o,1,1.5364,FALSE,FALSE,7,2,30,1,1,,,,,,,
,,,,,,0,1.944921192,#f3af84,,right_orange.png,p,,,,,,o,right_blue.png,right_orange.png,p,60638b9a7e201e12e43a2e33,001,2021-07-18_16h29.25.576,arrow_simon_norep,2021.1.2,Win32,59.90534955,,,,,,,,,,,,,,,,,,,,,p,1,1.4797,FALSE,FALSE,7,3,31,0,1,,,,,,,
,,,,,,0,2.025896766,#a3d0fb,,right_blue.png,o,,,,,,o,right_blue.png,right_orange.png,p,60638b9a7e201e12e43a2e33,001,2021-07-18_16h29.25.576,arrow_simon_norep,2021.1.2,Win32,59.90534955,,,,,,,,,,,,,,,,,,,,,o,1,1.475,FALSE,FALSE,8,0,32,1,1,,,,,,,
,,,,,,0,1.575141691,#f3af84,,right_orange.png,p,,,,,,o,right_blue.png,right_orange.png,p,60638b9a7e201e12e43a2e33,001,2021-07-18_16h29.25.576,arrow_simon_norep,2021.1.2,Win32,59.90534955,,,,,,,,,,,,,,,,,,,,,p,1,1.4941,FALSE,FALSE,8,1,33,0,1,,,,,,,
,,,,,,0,1.673863602,#a3d0fb,,right_blue.png,o,,,,,,o,right_blue.png,right_orange.png,p,60638b9a7e201e12e43a2e33,001,2021-07-18_16h29.25.576,arrow_simon_norep,2021.1.2,Win32,59.90534955,,,,,,,,,,,,,,,,,,,,,o,1,1.3031,FALSE,TRUE,8,2,34,1,1,,,,,,,
,,,,,,0,2.459941147,#f3af84,,left_orange.png,q,,,,,,w,left_blue.png,left_orange.png,q,60638b9a7e201e12e43a2e33,001,2021-07-18_16h29.25.576,arrow_simon_norep,2021.1.2,Win32,59.90534955,,,,,,,,,,,,,,,,,,,,,q,1,1.7531,TRUE,FALSE,8,3,35,2,1,,,,,,,
,,,,,,0,1.688846368,#a3d0fb,,left_blue.png,w,,,,,,w,left_blue.png,left_orange.png,q,60638b9a7e201e12e43a2e33,001,2021-07-18_16h29.25.576,arrow_simon_norep,2021.1.2,Win32,59.90534955,,,,,,,,,,,,,,,,,,,,,w,1,1.5359,FALSE,FALSE,9,0,36,2,1,,,,,,,
,,,,,,0,2.231884996,#f3af84,,right_orange.png,p,,,,,,o,right_blue.png,right_orange.png,p,60638b9a7e201e12e43a2e33,001,2021-07-18_16h29.25.576,arrow_simon_norep,2021.1.2,Win32,59.90534955,,,,,,,,,,,,,,,,,,,,,p,1,1.5476,FALSE,FALSE,9,1,37,1,1,,,,,,,
,,,,,,0,1.996431681,#a3d0fb,,left_blue.png,w,,,,,,w,left_blue.png,left_orange.png,q,60638b9a7e201e12e43a2e33,001,2021-07-18_16h29.25.576,arrow_simon_norep,2021.1.2,Win32,59.90534955,,,,,,,,,,,,,,,,,,,,,w,1,1.5583,FALSE,FALSE,9,2,38,2,1,,,,,,,
,,,,,,0,2.330748693,#f3af84,,right_orange.png,p,,,,,,o,right_blue.png,right_orange.png,p,60638b9a7e201e12e43a2e33,001,2021-07-18_16h29.25.576,arrow_simon_norep,2021.1.2,Win32,59.90534955,,,,,,,,,,,,,,,,,,,,,w,0,1.6443,TRUE,FALSE,9,3,39,0,1,,,,,,,
,,,,,,0,2.318854154,#a3d0fb,,left_blue.png,w,,,,,,w,left_blue.png,left_orange.png,q,60638b9a7e201e12e43a2e33,001,2021-07-18_16h29.25.576,arrow_simon_norep,2021.1.2,Win32,59.90534955,,,,,,,,,,,,,,,,,,,,,q,0,1.7071,TRUE,FALSE,10,0,40,3,1,,,,,,,
,,,,,,0,1.74093109,#f3af84,,right_orange.png,p,,,,,,o,right_blue.png,right_orange.png,p,60638b9a7e201e12e43a2e33,001,2021-07-18_16h29.25.576,arrow_simon_norep,2021.1.2,Win32,59.90534955,,,,,,,,,,,,,,,,,,,,,p,1,1.5185,FALSE,FALSE,10,1,41,0,1,,,,,,,
,,,,,,0,2.494151173,#a3d0fb,,left_blue.png,w,,,,,,w,left_blue.png,left_orange.png,q,60638b9a7e201e12e43a2e33,001,2021-07-18_16h29.25.576,arrow_simon_norep,2021.1.2,Win32,59.90534955,,,,,,,,,,,,,,,,,,,,,o,0,1.765,TRUE,FALSE,10,2,42,2,1,,,,,,,
,,,,,,0,2.060436556,#f3af84,,right_orange.png,p,,,,,,o,right_blue.png,right_orange.png,p,60638b9a7e201e12e43a2e33,001,2021-07-18_16h29.25.576,arrow_simon_norep,2021.1.2,Win32,59.90534955,,,,,,,,,,,,,,,,,,,,,p,1,1.4032,FALSE,FALSE,10,3,43,1,1,,,,,,,
,,,,,,0,2.425744072,#a3d0fb,,left_blue.png,w,,,,,,w,left_blue.png,left_orange.png,q,60638b9a7e201e12e43a2e33,001,2021-07-18_16h29.25.576,arrow_simon_norep,2021.1.2,Win32,59.90534955,,,,,,,,,,,,,,,,,,,,,w,1,1.7712,TRUE,FALSE,11,0,44,3,1,,,,,,,
,,,,,,0,1.909865065,#f3af84,,left_orange.png,q,,,,,,w,left_blue.png,left_orange.png,q,60638b9a7e201e12e43a2e33,001,2021-07-18_16h29.25.576,arrow_simon_norep,2021.1.2,Win32,59.90534955,,,,,,,,,,,,,,,,,,,,,q,1,1.5699,FALSE,FALSE,11,1,45,3,1,,,,,,,
,,,,,,0,1.706408082,#a3d0fb,,left_blue.png,w,,,,,,w,left_blue.png,left_orange.png,q,60638b9a7e201e12e43a2e33,001,2021-07-18_16h29.25.576,arrow_simon_norep,2021.1.2,Win32,59.90534955,,,,,,,,,,,,,,,,,,,,,w,1,1.4839,FALSE,FALSE,11,2,46,2,1,,,,,,,
,,,,,,0,2.471452761,#f3af84,,right_orange.png,p,,,,,,o,right_blue.png,right_orange.png,p,60638b9a7e201e12e43a2e33,001,2021-07-18_16h29.25.576,arrow_simon_norep,2021.1.2,Win32,59.90534955,,,,,,,,,,,,,,,,,,,,,p,1,1.8338,TRUE,FALSE,11,3,47,0,1,,,,,,,
,,,,,,0,2.012164892,#a3d0fb,,left_blue.png,w,,,,,,w,left_blue.png,left_orange.png,q,60638b9a7e201e12e43a2e33,001,2021-07-18_16h29.25.576,arrow_simon_norep,2021.1.2,Win32,59.90534955,,,,,,,,,,,,,,,,,,,,,w,1,1.519,FALSE,FALSE,12,0,48,2,1,,,,,,,
,,,,,,0,2.285812249,#f3af84,,left_orange.png,q,,,,,,w,left_blue.png,left_orange.png,q,60638b9a7e201e12e43a2e33,001,2021-07-18_16h29.25.576,arrow_simon_norep,2021.1.2,Win32,59.90534955,,,,,,,,,,,,,,,,,,,,,q,1,1.609,TRUE,FALSE,12,1,49,2,1,,,,,,,
,,,,,,0,1.566220474,#a3d0fb,,left_blue.png,w,,,,,,w,left_blue.png,left_orange.png,q,60638b9a7e201e12e43a2e33,001,2021-07-18_16h29.25.576,arrow_simon_norep,2021.1.2,Win32,59.90534955,,,,,,,,,,,,,,,,,,,,,w,1,1.4392,FALSE,FALSE,12,2,50,2,1,,,,,,,
,,,,,,0,1.75805216,#f3af84,,left_orange.png,q,,,,,,w,left_blue.png,left_orange.png,q,60638b9a7e201e12e43a2e33,001,2021-07-18_16h29.25.576,arrow_simon_norep,2021.1.2,Win32,59.90534955,,,,,,,,,,,,,,,,,,,,,q,1,1.5029,FALSE,FALSE,12,3,51,3,1,,,,,,,
,,,,,,1,2.362101554,#a3d0fb,,left_blue.png,w,,,,,,w,left_blue.png,left_orange.png,q,60638b9a7e201e12e43a2e33,001,2021-07-18_16h29.25.576,arrow_simon_norep,2021.1.2,Win32,59.90534955,,,,,,,,,,,,,,,,,,,,,o,0,1.5952,FALSE,FALSE,13,0,52,3,1,,,,,,,
,,,,,,0,1.92760796,#f3af84,,left_orange.png,q,,,,,,w,left_blue.png,left_orange.png,q,60638b9a7e201e12e43a2e33,001,2021-07-18_16h29.25.576,arrow_simon_norep,2021.1.2,Win32,59.90534955,,,,,,,,,,,,,,,,,,,,,q,1,1.504,FALSE,FALSE,13,1,53,3,1,,,,,,,
,,,,,,0,1.894878647,#a3d0fb,,right_blue.png,o,,,,,,o,right_blue.png,right_orange.png,p,60638b9a7e201e12e43a2e33,001,2021-07-18_16h29.25.576,arrow_simon_norep,2021.1.2,Win32,59.90534955,,,,,,,,,,,,,,,,,,,,,o,1,1.6743,TRUE,FALSE,13,2,54,0,1,,,,,,,
,,,,,,0,1.818326972,#f3af84,,left_orange.png,q,,,,,,w,left_blue.png,left_orange.png,q,60638b9a7e201e12e43a2e33,001,2021-07-18_16h29.25.576,arrow_simon_norep,2021.1.2,Win32,59.90534955,,,,,,,,,,,,,,,,,,,,,q,1,1.5377,FALSE,FALSE,13,3,55,3,1,,,,,,,
,,,,,,0,1.983430808,#a3d0fb,,left_blue.png,w,,,,,,w,left_blue.png,left_orange.png,q,60638b9a7e201e12e43a2e33,001,2021-07-18_16h29.25.576,arrow_simon_norep,2021.1.2,Win32,59.90534955,,,,,,,,,,,,,,,,,,,,,w,1,1.4839,FALSE,FALSE,14,0,56,3,1,,,,,,,
,,,,,,0,2.295350773,#f3af84,,left_orange.png,q,,,,,,w,left_blue.png,left_orange.png,q,60638b9a7e201e12e43a2e33,001,2021-07-18_16h29.25.576,arrow_simon_norep,2021.1.2,Win32,59.90534955,,,,,,,,,,,,,,,,,,,,,q,1,1.6552,TRUE,FALSE,14,1,57,2,1,,,,,,,
,,,,,,0,1.933144466,#a3d0fb,,right_blue.png,o,,,,,,o,right_blue.png,right_orange.png,p,60638b9a7e201e12e43a2e33,001,2021-07-18_16h29.25.576,arrow_simon_norep,2021.1.2,Win32,59.90534955,,,,,,,,,,,,,,,,,,,,,o,1,1.4672,FALSE,FALSE,14,2,58,0,1,,,,,,,
,,,,,,0,2.043619479,#f3af84,,right_orange.png,p,,,,,,o,right_blue.png,right_orange.png,p,60638b9a7e201e12e43a2e33,001,2021-07-18_16h29.25.576,arrow_simon_norep,2021.1.2,Win32,59.90534955,,,,,,,,,,,,,,,,,,,,,p,1,1.3898,FALSE,TRUE,14,3,59,1,1,,,,,,,
,,,,,,,,,,,,,,,,,,,,,60638b9a7e201e12e43a2e33,001,2021-07-18_16h29.25.576,arrow_simon_norep,2021.1.2,Win32,59.90534955,,,,,,,,,,,,,,,,,,,,,,,,,,,,,,,space,163.3272,2,0,2,0,1
,,,,,,0,2.131356195,#a3d0fb,,right_blue.png,o,,,,,,o,right_blue.png,right_orange.png,p,60638b9a7e201e12e43a2e33,001,2021-07-18_16h29.25.576,arrow_simon_norep,2021.1.2,Win32,59.90534955,,,,,,,,,,,,,,,,,,,,,o,1,1.4737,FALSE,FALSE,0,0,0,1,1,,,,,,,
,,,,,,0,1.813117081,#f3af84,,left_orange.png,q,,,,,,w,left_blue.png,left_orange.png,q,60638b9a7e201e12e43a2e33,001,2021-07-18_16h29.25.576,arrow_simon_norep,2021.1.2,Win32,59.90534955,,,,,,,,,,,,,,,,,,,,,q,1,1.3565,FALSE,TRUE,0,1,1,3,1,,,,,,,
,,,,,,0,1.752932761,#a3d0fb,,right_blue.png,o,,,,,,o,right_blue.png,right_orange.png,p,60638b9a7e201e12e43a2e33,001,2021-07-18_16h29.25.576,arrow_simon_norep,2021.1.2,Win32,59.90534955,,,,,,,,,,,,,,,,,,,,,o,1,1.3116,FALSE,TRUE,0,2,2,1,1,,,,,,,
,,,,,,0,2.494074727,#f3af84,,left_orange.png,q,,,,,,w,left_blue.png,left_orange.png,q,60638b9a7e201e12e43a2e33,001,2021-07-18_16h29.25.576,arrow_simon_norep,2021.1.2,Win32,59.90534955,,,,,,,,,,,,,,,,,,,,,q,1,1.7055,TRUE,FALSE,0,3,3,3,1,,,,,,,
,,,,,,0,2.036150743,#a3d0fb,,left_blue.png,w,,,,,,w,left_blue.png,left_orange.png,q,60638b9a7e201e12e43a2e33,001,2021-07-18_16h29.25.576,arrow_simon_norep,2021.1.2,Win32,59.90534955,,,,,,,,,,,,,,,,,,,,,w,1,1.5477,FALSE,FALSE,1,0,4,3,1,,,,,,,
,,,,,,1,2.131629795,#f3af84,,right_orange.png,p,,,,,,o,right_blue.png,right_orange.png,p,60638b9a7e201e12e43a2e33,001,2021-07-18_16h29.25.576,arrow_simon_norep,2021.1.2,Win32,59.90534955,,,,,,,,,,,,,,,,,,,,,q,0,1.4541,FALSE,FALSE,1,1,5,0,1,,,,,,,
,,,,,,0,2.15278333,#a3d0fb,,right_blue.png,o,,,,,,o,right_blue.png,right_orange.png,p,60638b9a7e201e12e43a2e33,001,2021-07-18_16h29.25.576,arrow_simon_norep,2021.1.2,Win32,59.90534955,,,,,,,,,,,,,,,,,,,,,o,1,1.4595,FALSE,FALSE,1,2,6,1,1,,,,,,,
,,,,,,0,2.078340644,#f3af84,,left_orange.png,q,,,,,,w,left_blue.png,left_orange.png,q,60638b9a7e201e12e43a2e33,001,2021-07-18_16h29.25.576,arrow_simon_norep,2021.1.2,Win32,59.90534955,,,,,,,,,,,,,,,,,,,,,q,1,1.5007,FALSE,FALSE,1,3,7,3,1,,,,,,,
,,,,,,0,1.552115152,#a3d0fb,,left_blue.png,w,,,,,,w,left_blue.png,left_orange.png,q,60638b9a7e201e12e43a2e33,001,2021-07-18_16h29.25.576,arrow_simon_norep,2021.1.2,Win32,59.90534955,,,,,,,,,,,,,,,,,,,,,w,1,1.379,FALSE,TRUE,2,0,8,2,1,,,,,,,
,,,,,,0,1.878232611,#f3af84,,left_orange.png,q,,,,,,w,left_blue.png,left_orange.png,q,60638b9a7e201e12e43a2e33,001,2021-07-18_16h29.25.576,arrow_simon_norep,2021.1.2,Win32,59.90534955,,,,,,,,,,,,,,,,,,,,,q,1,1.5172,FALSE,FALSE,2,1,9,2,1,,,,,,,
,,,,,,0,1.964467638,#a3d0fb,,left_blue.png,w,,,,,,w,left_blue.png,left_orange.png,q,60638b9a7e201e12e43a2e33,001,2021-07-18_16h29.25.576,arrow_simon_norep,2021.1.2,Win32,59.90534955,,,,,,,,,,,,,,,,,,,,,w,1,1.4035,FALSE,FALSE,2,2,10,2,1,,,,,,,
,,,,,,0,2.009458002,#f3af84,,left_orange.png,q,,,,,,w,left_blue.png,left_orange.png,q,60638b9a7e201e12e43a2e33,001,2021-07-18_16h29.25.576,arrow_simon_norep,2021.1.2,Win32,59.90534955,,,,,,,,,,,,,,,,,,,,,q,1,1.4954,FALSE,FALSE,2,3,11,2,1,,,,,,,
,,,,,,0,2.27237423,#a3d0fb,,right_blue.png,o,,,,,,o,right_blue.png,right_orange.png,p,60638b9a7e201e12e43a2e33,001,2021-07-18_16h29.25.576,arrow_simon_norep,2021.1.2,Win32,59.90534955,,,,,,,,,,,,,,,,,,,,,o,1,1.6477,TRUE,FALSE,3,0,12,0,1,,,,,,,
,,,,,,0,1.807572437,#f3af84,,left_orange.png,q,,,,,,w,left_blue.png,left_orange.png,q,60638b9a7e201e12e43a2e33,001,2021-07-18_16h29.25.576,arrow_simon_norep,2021.1.2,Win32,59.90534955,,,,,,,,,,,,,,,,,,,,,q,1,1.3363,FALSE,TRUE,3,1,13,2,1,,,,,,,
,,,,,,0,1.927878204,#a3d0fb,,left_blue.png,w,,,,,,w,left_blue.png,left_orange.png,q,60638b9a7e201e12e43a2e33,001,2021-07-18_16h29.25.576,arrow_simon_norep,2021.1.2,Win32,59.90534955,,,,,,,,,,,,,,,,,,,,,w,1,1.4829,FALSE,FALSE,3,2,14,2,1,,,,,,,
,,,,,,0,1.891071318,#f3af84,,left_orange.png,q,,,,,,w,left_blue.png,left_orange.png,q,60638b9a7e201e12e43a2e33,001,2021-07-18_16h29.25.576,arrow_simon_norep,2021.1.2,Win32,59.90534955,,,,,,,,,,,,,,,,,,,,,q,1,1.4403,FALSE,FALSE,3,3,15,3,1,,,,,,,
,,,,,,0,2.054452465,#a3d0fb,,right_blue.png,o,,,,,,o,right_blue.png,right_orange.png,p,60638b9a7e201e12e43a2e33,001,2021-07-18_16h29.25.576,arrow_simon_norep,2021.1.2,Win32,59.90534955,,,,,,,,,,,,,,,,,,,,,o,1,1.381,FALSE,TRUE,4,0,16,0,1,,,,,,,
,,,,,,1,2.154069594,#f3af84,,right_orange.png,p,,,,,,o,right_blue.png,right_orange.png,p,60638b9a7e201e12e43a2e33,001,2021-07-18_16h29.25.576,arrow_simon_norep,2021.1.2,Win32,59.90534955,,,,,,,,,,,,,,,,,,,,,q,0,1.5293,FALSE,FALSE,4,1,17,1,1,,,,,,,
,,,,,,0,2.187853068,#a3d0fb,,right_blue.png,o,,,,,,o,right_blue.png,right_orange.png,p,60638b9a7e201e12e43a2e33,001,2021-07-18_16h29.25.576,arrow_simon_norep,2021.1.2,Win32,59.90534955,,,,,,,,,,,,,,,,,,,,,o,1,1.528,FALSE,FALSE,4,2,18,1,1,,,,,,,
,,,,,,0,1.841438569,#f3af84,,left_orange.png,q,,,,,,w,left_blue.png,left_orange.png,q,60638b9a7e201e12e43a2e33,001,2021-07-18_16h29.25.576,arrow_simon_norep,2021.1.2,Win32,59.90534955,,,,,,,,,,,,,,,,,,,,,q,1,1.4286,FALSE,FALSE,4,3,19,3,1,,,,,,,
,,,,,,0,1.884410321,#a3d0fb,,right_blue.png,o,,,,,,o,right_blue.png,right_orange.png,p,60638b9a7e201e12e43a2e33,001,2021-07-18_16h29.25.576,arrow_simon_norep,2021.1.2,Win32,59.90534955,,,,,,,,,,,,,,,,,,,,,o,1,1.8811,TRUE,FALSE,5,0,20,1,1,,,,,,,
,,,,,,0,2.251825799,#f3af84,,left_orange.png,q,,,,,,w,left_blue.png,left_orange.png,q,60638b9a7e201e12e43a2e33,001,2021-07-18_16h29.25.576,arrow_simon_norep,2021.1.2,Win32,59.90534955,,,,,,,,,,,,,,,,,,,,,q,1,1.6121,TRUE,FALSE,5,1,21,3,1,,,,,,,
,,,,,,0,1.590897684,#a3d0fb,,right_blue.png,o,,,,,,o,right_blue.png,right_orange.png,p,60638b9a7e201e12e43a2e33,001,2021-07-18_16h29.25.576,arrow_simon_norep,2021.1.2,Win32,59.90534955,,,,,,,,,,,,,,,,,,,,,o,1,1.4159,FALSE,FALSE,5,2,22,0,1,,,,,,,
,,,,,,0,2.401514611,#f3af84,,right_orange.png,p,,,,,,o,right_blue.png,right_orange.png,p,60638b9a7e201e12e43a2e33,001,2021-07-18_16h29.25.576,arrow_simon_norep,2021.1.2,Win32,59.90534955,,,,,,,,,,,,,,,,,,,,,p,1,1.6353,TRUE,FALSE,5,3,23,1,1,,,,,,,
,,,,,,0,1.927557846,#a3d0fb,,right_blue.png,o,,,,,,o,right_blue.png,right_orange.png,p,60638b9a7e201e12e43a2e33,001,2021-07-18_16h29.25.576,arrow_simon_norep,2021.1.2,Win32,59.90534955,,,,,,,,,,,,,,,,,,,,,o,1,1.5133,FALSE,FALSE,6,0,24,1,1,,,,,,,
,,,,,,0,1.949284944,#f3af84,,left_orange.png,q,,,,,,w,left_blue.png,left_orange.png,q,60638b9a7e201e12e43a2e33,001,2021-07-18_16h29.25.576,arrow_simon_norep,2021.1.2,Win32,59.90534955,,,,,,,,,,,,,,,,,,,,,q,1,1.5122,FALSE,FALSE,6,1,25,3,1,,,,,,,
,,,,,,0,1.967194793,#a3d0fb,,right_blue.png,o,,,,,,o,right_blue.png,right_orange.png,p,60638b9a7e201e12e43a2e33,001,2021-07-18_16h29.25.576,arrow_simon_norep,2021.1.2,Win32,59.90534955,,,,,,,,,,,,,,,,,,,,,o,1,1.372,FALSE,TRUE,6,2,26,0,1,,,,,,,
,,,,,,0,2.313878245,#f3af84,,left_orange.png,q,,,,,,w,left_blue.png,left_orange.png,q,60638b9a7e201e12e43a2e33,001,2021-07-18_16h29.25.576,arrow_simon_norep,2021.1.2,Win32,59.90534955,,,,,,,,,,,,,,,,,,,,,q,1,1.6062,TRUE,FALSE,6,3,27,2,1,,,,,,,
,,,,,,0,2.202423373,#a3d0fb,,right_blue.png,o,,,,,,o,right_blue.png,right_orange.png,p,60638b9a7e201e12e43a2e33,001,2021-07-18_16h29.25.576,arrow_simon_norep,2021.1.2,Win32,59.90534955,,,,,,,,,,,,,,,,,,,,,o,1,1.4662,FALSE,FALSE,7,0,28,1,1,,,,,,,
,,,,,,0,1.96453011,#f3af84,,right_orange.png,p,,,,,,o,right_blue.png,right_orange.png,p,60638b9a7e201e12e43a2e33,001,2021-07-18_16h29.25.576,arrow_simon_norep,2021.1.2,Win32,59.90534955,,,,,,,,,,,,,,,,,,,,,p,1,1.3599,FALSE,TRUE,7,1,29,0,1,,,,,,,
,,,,,,0,1.996758619,#a3d0fb,,right_blue.png,o,,,,,,o,right_blue.png,right_orange.png,p,60638b9a7e201e12e43a2e33,001,2021-07-18_16h29.25.576,arrow_simon_norep,2021.1.2,Win32,59.90534955,,,,,,,,,,,,,,,,,,,,,o,1,1.2856,FALSE,TRUE,7,2,30,1,1,,,,,,,
,,,,,,0,1.973717033,#f3af84,,left_orange.png,q,,,,,,w,left_blue.png,left_orange.png,q,60638b9a7e201e12e43a2e33,001,2021-07-18_16h29.25.576,arrow_simon_norep,2021.1.2,Win32,59.90534955,,,,,,,,,,,,,,,,,,,,,q,1,1.4702,FALSE,FALSE,7,3,31,2,1,,,,,,,
,,,,,,0,1.821503424,#a3d0fb,,right_blue.png,o,,,,,,o,right_blue.png,right_orange.png,p,60638b9a7e201e12e43a2e33,001,2021-07-18_16h29.25.576,arrow_simon_norep,2021.1.2,Win32,59.90534955,,,,,,,,,,,,,,,,,,,,,o,1,1.5248,FALSE,FALSE,8,0,32,0,1,,,,,,,
,,,,,,0,2.209220151,#f3af84,,right_orange.png,p,,,,,,o,right_blue.png,right_orange.png,p,60638b9a7e201e12e43a2e33,001,2021-07-18_16h29.25.576,arrow_simon_norep,2021.1.2,Win32,59.90534955,,,,,,,,,,,,,,,,,,,,,p,1,1.5048,FALSE,FALSE,8,1,33,1,1,,,,,,,
,,,,,,0,2.084281036,#a3d0fb,,left_blue.png,w,,,,,,w,left_blue.png,left_orange.png,q,60638b9a7e201e12e43a2e33,001,2021-07-18_16h29.25.576,arrow_simon_norep,2021.1.2,Win32,59.90534955,,,,,,,,,,,,,,,,,,,,,w,1,1.5967,FALSE,FALSE,8,2,34,2,1,,,,,,,
,,,,,,0,1.597072074,#f3af84,,right_orange.png,p,,,,,,o,right_blue.png,right_orange.png,p,60638b9a7e201e12e43a2e33,001,2021-07-18_16h29.25.576,arrow_simon_norep,2021.1.2,Win32,59.90534955,,,,,,,,,,,,,,,,,,,,,p,1,1.454,FALSE,FALSE,8,3,35,0,1,,,,,,,
,,,,,,0,1.918704304,#a3d0fb,,right_blue.png,o,,,,,,o,right_blue.png,right_orange.png,p,60638b9a7e201e12e43a2e33,001,2021-07-18_16h29.25.576,arrow_simon_norep,2021.1.2,Win32,59.90534955,,,,,,,,,,,,,,,,,,,,,o,1,1.3693,FALSE,TRUE,9,0,36,0,1,,,,,,,
,,,,,,1,2.276337395,#f3af84,,right_orange.png,p,,,,,,o,right_blue.png,right_orange.png,p,60638b9a7e201e12e43a2e33,001,2021-07-18_16h29.25.576,arrow_simon_norep,2021.1.2,Win32,59.90534955,,,,,,,,,,,,,,,,,,,,,q,0,1.5361,FALSE,FALSE,9,1,37,0,1,,,,,,,
,,,,,,1,1.559792919,#a3d0fb,,right_blue.png,o,,,,,,o,right_blue.png,right_orange.png,p,60638b9a7e201e12e43a2e33,001,2021-07-18_16h29.25.576,arrow_simon_norep,2021.1.2,Win32,59.90534955,,,,,,,,,,,,,,,,,,,,,o,1,1.3652,FALSE,TRUE,9,2,38,1,1,,,,,,,
,,,,,,0,1.708838948,#f3af84,,left_orange.png,q,,,,,,w,left_blue.png,left_orange.png,q,60638b9a7e201e12e43a2e33,001,2021-07-18_16h29.25.576,arrow_simon_norep,2021.1.2,Win32,59.90534955,,,,,,,,,,,,,,,,,,,,,q,1,1.4754,FALSE,FALSE,9,3,39,2,1,,,,,,,
,,,,,,0,2.017241525,#a3d0fb,,left_blue.png,w,,,,,,w,left_blue.png,left_orange.png,q,60638b9a7e201e12e43a2e33,001,2021-07-18_16h29.25.576,arrow_simon_norep,2021.1.2,Win32,59.90534955,,,,,,,,,,,,,,,,,,,,,o,0,1.1052,FALSE,TRUE,10,0,40,3,1,,,,,,,
,,,,,,0,2.376217758,#f3af84,,left_orange.png,q,,,,,,w,left_blue.png,left_orange.png,q,60638b9a7e201e12e43a2e33,001,2021-07-18_16h29.25.576,arrow_simon_norep,2021.1.2,Win32,59.90534955,,,,,,,,,,,,,,,,,,,,,q,1,1.7691,TRUE,FALSE,10,1,41,2,1,,,,,,,
,,,,,,0,2.343632401,#a3d0fb,,left_blue.png,w,,,,,,w,left_blue.png,left_orange.png,q,60638b9a7e201e12e43a2e33,001,2021-07-18_16h29.25.576,arrow_simon_norep,2021.1.2,Win32,59.90534955,,,,,,,,,,,,,,,,,,,,,o,0,1.1988,FALSE,TRUE,10,2,42,3,1,,,,,,,
,,,,,,0,2.387019228,#f3af84,,left_orange.png,q,,,,,,w,left_blue.png,left_orange.png,q,60638b9a7e201e12e43a2e33,001,2021-07-18_16h29.25.576,arrow_simon_norep,2021.1.2,Win32,59.90534955,,,,,,,,,,,,,,,,,,,,,p,0,1.7262,TRUE,FALSE,10,3,43,2,1,,,,,,,
,,,,,,0,1.963394911,#a3d0fb,,right_blue.png,o,,,,,,o,right_blue.png,right_orange.png,p,60638b9a7e201e12e43a2e33,001,2021-07-18_16h29.25.576,arrow_simon_norep,2021.1.2,Win32,59.90534955,,,,,,,,,,,,,,,,,,,,,o,1,1.5542,FALSE,FALSE,11,0,44,1,1,,,,,,,
,,,,,,0,2.104064472,#f3af84,,right_orange.png,p,,,,,,o,right_blue.png,right_orange.png,p,60638b9a7e201e12e43a2e33,001,2021-07-18_16h29.25.576,arrow_simon_norep,2021.1.2,Win32,59.90534955,,,,,,,,,,,,,,,,,,,,,p,1,1.441,FALSE,FALSE,11,1,45,0,1,,,,,,,
,,,,,,0,2.390825573,#a3d0fb,,left_blue.png,w,,,,,,w,left_blue.png,left_orange.png,q,60638b9a7e201e12e43a2e33,001,2021-07-18_16h29.25.576,arrow_simon_norep,2021.1.2,Win32,59.90534955,,,,,,,,,,,,,,,,,,,,,w,1,1.6808,TRUE,FALSE,11,2,46,2,1,,,,,,,
,,,,,,0,1.561571833,#f3af84,,right_orange.png,p,,,,,,o,right_blue.png,right_orange.png,p,60638b9a7e201e12e43a2e33,001,2021-07-18_16h29.25.576,arrow_simon_norep,2021.1.2,Win32,59.90534955,,,,,,,,,,,,,,,,,,,,,p,1,1.3896,FALSE,TRUE,11,3,47,1,1,,,,,,,
,,,,,,0,2.384851352,#a3d0fb,,right_blue.png,o,,,,,,o,right_blue.png,right_orange.png,p,60638b9a7e201e12e43a2e33,001,2021-07-18_16h29.25.576,arrow_simon_norep,2021.1.2,Win32,59.90534955,,,,,,,,,,,,,,,,,,,,,o,1,1.6917,TRUE,FALSE,12,0,48,0,1,,,,,,,
,,,,,,0,2.462697987,#f3af84,,left_orange.png,q,,,,,,w,left_blue.png,left_orange.png,q,60638b9a7e201e12e43a2e33,001,2021-07-18_16h29.25.576,arrow_simon_norep,2021.1.2,Win32,59.90534955,,,,,,,,,,,,,,,,,,,,,q,1,1.8062,TRUE,FALSE,12,1,49,3,1,,,,,,,
,,,,,,0,2.413762594,#a3d0fb,,left_blue.png,w,,,,,,w,left_blue.png,left_orange.png,q,60638b9a7e201e12e43a2e33,001,2021-07-18_16h29.25.576,arrow_simon_norep,2021.1.2,Win32,59.90534955,,,,,,,,,,,,,,,,,,,,,w,1,1.7018,TRUE,FALSE,12,2,50,3,1,,,,,,,
,,,,,,0,2.259779442,#f3af84,,left_orange.png,q,,,,,,w,left_blue.png,left_orange.png,q,60638b9a7e201e12e43a2e33,001,2021-07-18_16h29.25.576,arrow_simon_norep,2021.1.2,Win32,59.90534955,,,,,,,,,,,,,,,,,,,,,q,1,1.6251,TRUE,FALSE,12,3,51,2,1,,,,,,,
,,,,,,0,2.197921208,#a3d0fb,,right_blue.png,o,,,,,,o,right_blue.png,right_orange.png,p,60638b9a7e201e12e43a2e33,001,2021-07-18_16h29.25.576,arrow_simon_norep,2021.1.2,Win32,59.90534955,,,,,,,,,,,,,,,,,,,,,o,1,1.5686,FALSE,FALSE,13,0,52,0,1,,,,,,,
,,,,,,0,1.712966156,#f3af84,,right_orange.png,p,,,,,,o,right_blue.png,right_orange.png,p,60638b9a7e201e12e43a2e33,001,2021-07-18_16h29.25.576,arrow_simon_norep,2021.1.2,Win32,59.90534955,,,,,,,,,,,,,,,,,,,,,p,1,1.5171,FALSE,FALSE,13,1,53,0,1,,,,,,,
,,,,,,0,1.924688524,#a3d0fb,,left_blue.png,w,,,,,,w,left_blue.png,left_orange.png,q,60638b9a7e201e12e43a2e33,001,2021-07-18_16h29.25.576,arrow_simon_norep,2021.1.2,Win32,59.90534955,,,,,,,,,,,,,,,,,,,,,w,1,1.255,FALSE,TRUE,13,2,54,3,1,,,,,,,
,,,,,,0,1.747852467,#f3af84,,right_orange.png,p,,,,,,o,right_blue.png,right_orange.png,p,60638b9a7e201e12e43a2e33,001,2021-07-18_16h29.25.576,arrow_simon_norep,2021.1.2,Win32,59.90534955,,,,,,,,,,,,,,,,,,,,,p,1,1.6049,TRUE,FALSE,13,3,55,1,1,,,,,,,
,,,,,,0,1.998078902,#a3d0fb,,left_blue.png,w,,,,,,w,left_blue.png,left_orange.png,q,60638b9a7e201e12e43a2e33,001,2021-07-18_16h29.25.576,arrow_simon_norep,2021.1.2,Win32,59.90534955,,,,,,,,,,,,,,,,,,,,,w,1,1.5647,FALSE,FALSE,14,0,56,2,1,,,,,,,
,,,,,,0,2.206771896,#f3af84,,right_orange.png,p,,,,,,o,right_blue.png,right_orange.png,p,60638b9a7e201e12e43a2e33,001,2021-07-18_16h29.25.576,arrow_simon_norep,2021.1.2,Win32,59.90534955,,,,,,,,,,,,,,,,,,,,,p,1,1.5308,FALSE,FALSE,14,1,57,0,1,,,,,,,
,,,,,,0,2.201920585,#a3d0fb,,left_blue.png,w,,,,,,w,left_blue.png,left_orange.png,q,60638b9a7e201e12e43a2e33,001,2021-07-18_16h29.25.576,arrow_simon_norep,2021.1.2,Win32,59.90534955,,,,,,,,,,,,,,,,,,,,,w,1,1.5583,FALSE,FALSE,14,2,58,3,1,,,,,,,
,,,,,,0,2.008526581,#f3af84,,left_orange.png,q,,,,,,w,left_blue.png,left_orange.png,q,60638b9a7e201e12e43a2e33,001,2021-07-18_16h29.25.576,arrow_simon_norep,2021.1.2,Win32,59.90534955,,,,,,,,,,,,,,,,,,,,,q,1,1.4127,FALSE,FALSE,14,3,59,3,1,,,,,,,
,,,,,,,,,,,,,,,,,,,,,60638b9a7e201e12e43a2e33,001,2021-07-18_16h29.25.576,arrow_simon_norep,2021.1.2,Win32,59.90534955,,,,,,,,,,,,,,,,,,,,,,,,,,,,,,,space,128.5018,3,0,3,0,1
,,,,,,0,2.051258678,#a3d0fb,,right_blue.png,o,,,,,,o,right_blue.png,right_orange.png,p,60638b9a7e201e12e43a2e33,001,2021-07-18_16h29.25.576,arrow_simon_norep,2021.1.2,Win32,59.90534955,,,,,,,,,,,,,,,,,,,,,o,1,1.5588,FALSE,FALSE,0,0,0,1,1,,,,,,,
,,,,,,0,1.65949024,#f3af84,,left_orange.png,q,,,,,,w,left_blue.png,left_orange.png,q,60638b9a7e201e12e43a2e33,001,2021-07-18_16h29.25.576,arrow_simon_norep,2021.1.2,Win32,59.90534955,,,,,,,,,,,,,,,,,,,,,q,1,1.4542,FALSE,FALSE,0,1,1,3,1,,,,,,,
