instruct_resp_simon.keys,instruct_resp_simon.corr,instruct_resp_simon.rt,trial_resp_simon.keys,trial_resp_simon.corr,trial_resp_simon.rt,kerr,target_onset,target_color,target_pos,target_file,target_resp,trials_train_simon.thisRepN,trials_train_simon.thisTrialN,trials_train_simon.thisN,trials_train_simon.thisIndex,trials_train_simon.ran,odd_target_resp,odd_target_file,even_target_file,even_target_resp,target_side,participant,session,date,expName,psychopyVersion,OS,frameRate,train_block_note_resp.keys,train_block_note_resp.rt,blocks_train.thisRepN,blocks_train.thisTrialN,blocks_train.thisN,blocks_train.thisIndex,blocks_train.ran,instruct_resp_timing.keys,instruct_resp_timing.corr,instruct_resp_timing.rt,trial_resp_timing.keys,trial_resp_timing.rt,trials_train_timing.thisRepN,trials_train_timing.thisTrialN,trials_train_timing.thisN,trials_train_timing.thisIndex,trials_train_timing.ran,instruct_resp.keys,instruct_resp.corr,instruct_resp.rt,trial_resp.keys,trial_resp.corr,trial_resp.rt,trial_num,too_slow,too_soon,trials.thisRepN,trials.thisTrialN,trials.thisN,trials.thisIndex,trials.ran,block_note_resp.keys,block_note_resp.rt,blocks.thisRepN,blocks.thisTrialN,blocks.thisN,blocks.thisIndex,blocks.ran
space,0,151.6646,p,0,2.6605,1,0.682231283,#a3d0fb,,right_blue.png,o,0,0,0,1,1,o,right_blue.png,right_orange.png,p,right,6069080565375bb41ee01993,001,2021-07-29_03h03.42.132,arrow_simon_norep,2021.1.2,Win32,59.99880002,,,,,,,,,,,,,,,,,,,,,,,,,,,,,,,,,,,,,,
,,,w,0,2.7523,1,0.02149284,#f3af84,,left_orange.png,q,0,1,1,2,1,w,left_blue.png,left_orange.png,q,left,6069080565375bb41ee01993,001,2021-07-29_03h03.42.132,arrow_simon_norep,2021.1.2,Win32,59.99880002,,,,,,,,,,,,,,,,,,,,,,,,,,,,,,,,,,,,,,
,,,p,0,7.582,1,0.132118571,#a3d0fb,,right_blue.png,o,0,2,2,1,1,o,right_blue.png,right_orange.png,p,right,6069080565375bb41ee01993,001,2021-07-29_03h03.42.132,arrow_simon_norep,2021.1.2,Win32,59.99880002,,,,,,,,,,,,,,,,,,,,,,,,,,,,,,,,,,,,,,
,,,q,1,5.1922,0,0.412732343,#f3af84,,left_orange.png,q,0,3,3,3,1,w,left_blue.png,left_orange.png,q,right,6069080565375bb41ee01993,001,2021-07-29_03h03.42.132,arrow_simon_norep,2021.1.2,Win32,59.99880002,,,,,,,,,,,,,,,,,,,,,,,,,,,,,,,,,,,,,,
,,,p,0,5.1481,1,0.857391412,#a3d0fb,,right_blue.png,o,1,0,4,0,1,o,right_blue.png,right_orange.png,p,left,6069080565375bb41ee01993,001,2021-07-29_03h03.42.132,arrow_simon_norep,2021.1.2,Win32,59.99880002,,,,,,,,,,,,,,,,,,,,,,,,,,,,,,,,,,,,,,
,,,p,1,10.3601,0,0.039021432,#f3af84,,right_orange.png,p,1,1,5,1,1,o,right_blue.png,right_orange.png,p,right,6069080565375bb41ee01993,001,2021-07-29_03h03.42.132,arrow_simon_norep,2021.1.2,Win32,59.99880002,,,,,,,,,,,,,,,,,,,,,,,,,,,,,,,,,,,,,,
,,,w,1,5.4185,0,0.451845281,#a3d0fb,,left_blue.png,w,1,2,6,2,1,w,left_blue.png,left_orange.png,q,left,6069080565375bb41ee01993,001,2021-07-29_03h03.42.132,arrow_simon_norep,2021.1.2,Win32,59.99880002,,,,,,,,,,,,,,,,,,,,,,,,,,,,,,,,,,,,,,
,,,p,1,2.227,0,0.336866589,#f3af84,,right_orange.png,p,1,3,7,0,1,o,right_blue.png,right_orange.png,p,left,6069080565375bb41ee01993,001,2021-07-29_03h03.42.132,arrow_simon_norep,2021.1.2,Win32,59.99880002,,,,,,,,,,,,,,,,,,,,,,,,,,,,,,,,,,,,,,
,,,o,1,4.6857,0,0.681365226,#a3d0fb,,right_blue.png,o,2,0,8,1,1,o,right_blue.png,right_orange.png,p,right,6069080565375bb41ee01993,001,2021-07-29_03h03.42.132,arrow_simon_norep,2021.1.2,Win32,59.99880002,,,,,,,,,,,,,,,,,,,,,,,,,,,,,,,,,,,,,,
,,,p,1,1.1618,0,0.428973049,#f3af84,,right_orange.png,p,2,1,9,1,1,o,right_blue.png,right_orange.png,p,right,6069080565375bb41ee01993,001,2021-07-29_03h03.42.132,arrow_simon_norep,2021.1.2,Win32,59.99880002,,,,,,,,,,,,,,,,,,,,,,,,,,,,,,,,,,,,,,
,,,o,1,4.1627,0,0.947694576,#a3d0fb,,right_blue.png,o,2,2,10,0,1,o,right_blue.png,right_orange.png,p,left,6069080565375bb41ee01993,001,2021-07-29_03h03.42.132,arrow_simon_norep,2021.1.2,Win32,59.99880002,,,,,,,,,,,,,,,,,,,,,,,,,,,,,,,,,,,,,,
,,,q,1,1.794,0,0.22838433,#f3af84,,left_orange.png,q,2,3,11,2,1,w,left_blue.png,left_orange.png,q,left,6069080565375bb41ee01993,001,2021-07-29_03h03.42.132,arrow_simon_norep,2021.1.2,Win32,59.99880002,,,,,,,,,,,,,,,,,,,,,,,,,,,,,,,,,,,,,,
,,,o,1,1.8134,0,0.23370568,#a3d0fb,,right_blue.png,o,3,0,12,1,1,o,right_blue.png,right_orange.png,p,right,6069080565375bb41ee01993,001,2021-07-29_03h03.42.132,arrow_simon_norep,2021.1.2,Win32,59.99880002,,,,,,,,,,,,,,,,,,,,,,,,,,,,,,,,,,,,,,
,,,q,1,1.8503,0,0.442728845,#f3af84,,left_orange.png,q,3,1,13,2,1,w,left_blue.png,left_orange.png,q,left,6069080565375bb41ee01993,001,2021-07-29_03h03.42.132,arrow_simon_norep,2021.1.2,Win32,59.99880002,,,,,,,,,,,,,,,,,,,,,,,,,,,,,,,,,,,,,,
,,,w,1,2.1781,0,0.407323065,#a3d0fb,,left_blue.png,w,3,2,14,3,1,w,left_blue.png,left_orange.png,q,right,6069080565375bb41ee01993,001,2021-07-29_03h03.42.132,arrow_simon_norep,2021.1.2,Win32,59.99880002,,,,,,,,,,,,,,,,,,,,,,,,,,,,,,,,,,,,,,
,,,p,1,2.2282,0,0.802251908,#f3af84,,right_orange.png,p,3,3,15,1,1,o,right_blue.png,right_orange.png,p,right,6069080565375bb41ee01993,001,2021-07-29_03h03.42.132,arrow_simon_norep,2021.1.2,Win32,59.99880002,,,,,,,,,,,,,,,,,,,,,,,,,,,,,,,,,,,,,,
,,,o,1,1.9884,0,0.000416433,#a3d0fb,,right_blue.png,o,4,0,16,0,1,o,right_blue.png,right_orange.png,p,left,6069080565375bb41ee01993,001,2021-07-29_03h03.42.132,arrow_simon_norep,2021.1.2,Win32,59.99880002,,,,,,,,,,,,,,,,,,,,,,,,,,,,,,,,,,,,,,
,,,q,1,2.5155,0,0.508938471,#f3af84,,left_orange.png,q,4,1,17,3,1,w,left_blue.png,left_orange.png,q,right,6069080565375bb41ee01993,001,2021-07-29_03h03.42.132,arrow_simon_norep,2021.1.2,Win32,59.99880002,,,,,,,,,,,,,,,,,,,,,,,,,,,,,,,,,,,,,,
,,,w,1,1.6292,0,0.421298378,#a3d0fb,,left_blue.png,w,4,2,18,3,1,w,left_blue.png,left_orange.png,q,right,6069080565375bb41ee01993,001,2021-07-29_03h03.42.132,arrow_simon_norep,2021.1.2,Win32,59.99880002,,,,,,,,,,,,,,,,,,,,,,,,,,,,,,,,,,,,,,
,,,p,1,1.2582,0,0.132622815,#f3af84,,right_orange.png,p,4,3,19,0,1,o,right_blue.png,right_orange.png,p,left,6069080565375bb41ee01993,001,2021-07-29_03h03.42.132,arrow_simon_norep,2021.1.2,Win32,59.99880002,,,,,,,,,,,,,,,,,,,,,,,,,,,,,,,,,,,,,,
,,,o,1,1.7636,0,0.483860006,#a3d0fb,,right_blue.png,o,5,0,20,0,1,o,right_blue.png,right_orange.png,p,left,6069080565375bb41ee01993,001,2021-07-29_03h03.42.132,arrow_simon_norep,2021.1.2,Win32,59.99880002,,,,,,,,,,,,,,,,,,,,,,,,,,,,,,,,,,,,,,
,,,q,1,1.2213,0,0.022147467,#f3af84,,left_orange.png,q,5,1,21,2,1,w,left_blue.png,left_orange.png,q,left,6069080565375bb41ee01993,001,2021-07-29_03h03.42.132,arrow_simon_norep,2021.1.2,Win32,59.99880002,,,,,,,,,,,,,,,,,,,,,,,,,,,,,,,,,,,,,,
,,,w,1,0.986,0,0.207620552,#a3d0fb,,left_blue.png,w,5,2,22,2,1,w,left_blue.png,left_orange.png,q,left,6069080565375bb41ee01993,001,2021-07-29_03h03.42.132,arrow_simon_norep,2021.1.2,Win32,59.99880002,,,,,,,,,,,,,,,,,,,,,,,,,,,,,,,,,,,,,,
,,,q,1,2.0493,0,0.987688247,#f3af84,,left_orange.png,q,5,3,23,3,1,w,left_blue.png,left_orange.png,q,right,6069080565375bb41ee01993,001,2021-07-29_03h03.42.132,arrow_simon_norep,2021.1.2,Win32,59.99880002,,,,,,,,,,,,,,,,,,,,,,,,,,,,,,,,,,,,,,
,,,w,1,1.8103,0,0.874951332,#a3d0fb,,left_blue.png,w,6,0,24,3,1,w,left_blue.png,left_orange.png,q,right,6069080565375bb41ee01993,001,2021-07-29_03h03.42.132,arrow_simon_norep,2021.1.2,Win32,59.99880002,,,,,,,,,,,,,,,,,,,,,,,,,,,,,,,,,,,,,,
,,,q,1,0.8814,0,0.686305799,#f3af84,,left_orange.png,q,6,1,25,2,1,w,left_blue.png,left_orange.png,q,left,6069080565375bb41ee01993,001,2021-07-29_03h03.42.132,arrow_simon_norep,2021.1.2,Win32,59.99880002,,,,,,,,,,,,,,,,,,,,,,,,,,,,,,,,,,,,,,
,,,o,1,1.5142,0,0.469592137,#a3d0fb,,right_blue.png,o,6,2,26,1,1,o,right_blue.png,right_orange.png,p,right,6069080565375bb41ee01993,001,2021-07-29_03h03.42.132,arrow_simon_norep,2021.1.2,Win32,59.99880002,,,,,,,,,,,,,,,,,,,,,,,,,,,,,,,,,,,,,,
,,,p,1,1.3035,0,0.148071015,#f3af84,,right_orange.png,p,6,3,27,0,1,o,right_blue.png,right_orange.png,p,left,6069080565375bb41ee01993,001,2021-07-29_03h03.42.132,arrow_simon_norep,2021.1.2,Win32,59.99880002,,,,,,,,,,,,,,,,,,,,,,,,,,,,,,,,,,,,,,
,,,w,0,1.8913,1,0.984965568,#a3d0fb,,right_blue.png,o,7,0,28,0,1,o,right_blue.png,right_orange.png,p,left,6069080565375bb41ee01993,001,2021-07-29_03h03.42.132,arrow_simon_norep,2021.1.2,Win32,59.99880002,,,,,,,,,,,,,,,,,,,,,,,,,,,,,,,,,,,,,,
,,,p,1,1.6543,0,0.674134805,#f3af84,,right_orange.png,p,7,1,29,0,1,o,right_blue.png,right_orange.png,p,left,6069080565375bb41ee01993,001,2021-07-29_03h03.42.132,arrow_simon_norep,2021.1.2,Win32,59.99880002,,,,,,,,,,,,,,,,,,,,,,,,,,,,,,,,,,,,,,
,,,o,0,1.7079,1,0.549721353,#a3d0fb,,left_blue.png,w,7,2,30,3,1,w,left_blue.png,left_orange.png,q,right,6069080565375bb41ee01993,001,2021-07-29_03h03.42.132,arrow_simon_norep,2021.1.2,Win32,59.99880002,,,,,,,,,,,,,,,,,,,,,,,,,,,,,,,,,,,,,,
,,,w,0,2.8941,1,0.592171061,#f3af84,,left_orange.png,q,7,3,31,2,1,w,left_blue.png,left_orange.png,q,left,6069080565375bb41ee01993,001,2021-07-29_03h03.42.132,arrow_simon_norep,2021.1.2,Win32,59.99880002,,,,,,,,,,,,,,,,,,,,,,,,,,,,,,,,,,,,,,
,,,w,1,2.4835,0,0.125539361,#a3d0fb,,left_blue.png,w,8,0,32,3,1,w,left_blue.png,left_orange.png,q,right,6069080565375bb41ee01993,001,2021-07-29_03h03.42.132,arrow_simon_norep,2021.1.2,Win32,59.99880002,,,,,,,,,,,,,,,,,,,,,,,,,,,,,,,,,,,,,,
,,,q,1,1.655,0,0.837905134,#f3af84,,left_orange.png,q,8,1,33,3,1,w,left_blue.png,left_orange.png,q,right,6069080565375bb41ee01993,001,2021-07-29_03h03.42.132,arrow_simon_norep,2021.1.2,Win32,59.99880002,,,,,,,,,,,,,,,,,,,,,,,,,,,,,,,,,,,,,,
,,,o,1,1.4104,0,0.293360519,#a3d0fb,,right_blue.png,o,8,2,34,0,1,o,right_blue.png,right_orange.png,p,left,6069080565375bb41ee01993,001,2021-07-29_03h03.42.132,arrow_simon_norep,2021.1.2,Win32,59.99880002,,,,,,,,,,,,,,,,,,,,,,,,,,,,,,,,,,,,,,
,,,p,1,1.9502,0,0.066386602,#f3af84,,right_orange.png,p,8,3,35,1,1,o,right_blue.png,right_orange.png,p,right,6069080565375bb41ee01993,001,2021-07-29_03h03.42.132,arrow_simon_norep,2021.1.2,Win32,59.99880002,,,,,,,,,,,,,,,,,,,,,,,,,,,,,,,,,,,,,,
,,,o,1,2.9464,0,0.890676293,#a3d0fb,,right_blue.png,o,9,0,36,1,1,o,right_blue.png,right_orange.png,p,right,6069080565375bb41ee01993,001,2021-07-29_03h03.42.132,arrow_simon_norep,2021.1.2,Win32,59.99880002,,,,,,,,,,,,,,,,,,,,,,,,,,,,,,,,,,,,,,
,,,q,1,1.4633,0,0.570671333,#f3af84,,left_orange.png,q,9,1,37,2,1,w,left_blue.png,left_orange.png,q,left,6069080565375bb41ee01993,001,2021-07-29_03h03.42.132,arrow_simon_norep,2021.1.2,Win32,59.99880002,,,,,,,,,,,,,,,,,,,,,,,,,,,,,,,,,,,,,,
,,,p,0,1.4296,1,0.223966313,#a3d0fb,,right_blue.png,o,9,2,38,1,1,o,right_blue.png,right_orange.png,p,right,6069080565375bb41ee01993,001,2021-07-29_03h03.42.132,arrow_simon_norep,2021.1.2,Win32,59.99880002,,,,,,,,,,,,,,,,,,,,,,,,,,,,,,,,,,,,,,
,,,p,0,1.8807,1,0.468394988,#f3af84,,left_orange.png,q,9,3,39,3,1,w,left_blue.png,left_orange.png,q,right,6069080565375bb41ee01993,001,2021-07-29_03h03.42.132,arrow_simon_norep,2021.1.2,Win32,59.99880002,,,,,,,,,,,,,,,,,,,,,,,,,,,,,,,,,,,,,,
,,,o,1,3.1973,0,0.704924273,#a3d0fb,,right_blue.png,o,10,0,40,0,1,o,right_blue.png,right_orange.png,p,left,6069080565375bb41ee01993,001,2021-07-29_03h03.42.132,arrow_simon_norep,2021.1.2,Win32,59.99880002,,,,,,,,,,,,,,,,,,,,,,,,,,,,,,,,,,,,,,
,,,o,0,2.4094,1,0.11050193,#f3af84,,right_orange.png,p,10,1,41,0,1,o,right_blue.png,right_orange.png,p,left,6069080565375bb41ee01993,001,2021-07-29_03h03.42.132,arrow_simon_norep,2021.1.2,Win32,59.99880002,,,,,,,,,,,,,,,,,,,,,,,,,,,,,,,,,,,,,,
,,,w,1,4.3451,0,0.288935406,#a3d0fb,,left_blue.png,w,10,2,42,2,1,w,left_blue.png,left_orange.png,q,left,6069080565375bb41ee01993,001,2021-07-29_03h03.42.132,arrow_simon_norep,2021.1.2,Win32,59.99880002,,,,,,,,,,,,,,,,,,,,,,,,,,,,,,,,,,,,,,
,,,p,1,1.9878,0,0.369010384,#f3af84,,right_orange.png,p,10,3,43,1,1,o,right_blue.png,right_orange.png,p,right,6069080565375bb41ee01993,001,2021-07-29_03h03.42.132,arrow_simon_norep,2021.1.2,Win32,59.99880002,,,,,,,,,,,,,,,,,,,,,,,,,,,,,,,,,,,,,,
,,,o,1,2.2961,0,0.729712947,#a3d0fb,,right_blue.png,o,11,0,44,1,1,o,right_blue.png,right_orange.png,p,right,6069080565375bb41ee01993,001,2021-07-29_03h03.42.132,arrow_simon_norep,2021.1.2,Win32,59.99880002,,,,,,,,,,,,,,,,,,,,,,,,,,,,,,,,,,,,,,
,,,q,1,2.0605,0,0.358280573,#f3af84,,left_orange.png,q,11,1,45,3,1,w,left_blue.png,left_orange.png,q,right,6069080565375bb41ee01993,001,2021-07-29_03h03.42.132,arrow_simon_norep,2021.1.2,Win32,59.99880002,,,,,,,,,,,,,,,,,,,,,,,,,,,,,,,,,,,,,,
,,,o,1,1.4759,0,0.360971161,#a3d0fb,,right_blue.png,o,11,2,46,0,1,o,right_blue.png,right_orange.png,p,left,6069080565375bb41ee01993,001,2021-07-29_03h03.42.132,arrow_simon_norep,2021.1.2,Win32,59.99880002,,,,,,,,,,,,,,,,,,,,,,,,,,,,,,,,,,,,,,
,,,q,1,1.3233,0,0.184027247,#f3af84,,left_orange.png,q,11,3,47,2,1,w,left_blue.png,left_orange.png,q,left,6069080565375bb41ee01993,001,2021-07-29_03h03.42.132,arrow_simon_norep,2021.1.2,Win32,59.99880002,,,,,,,,,,,,,,,,,,,,,,,,,,,,,,,,,,,,,,
,,,w,1,1.9016,0,0.355795207,#a3d0fb,,left_blue.png,w,12,0,48,3,1,w,left_blue.png,left_orange.png,q,right,6069080565375bb41ee01993,001,2021-07-29_03h03.42.132,arrow_simon_norep,2021.1.2,Win32,59.99880002,,,,,,,,,,,,,,,,,,,,,,,,,,,,,,,,,,,,,,
,,,q,1,1.7083,0,0.403071215,#f3af84,,left_orange.png,q,12,1,49,2,1,w,left_blue.png,left_orange.png,q,left,6069080565375bb41ee01993,001,2021-07-29_03h03.42.132,arrow_simon_norep,2021.1.2,Win32,59.99880002,,,,,,,,,,,,,,,,,,,,,,,,,,,,,,,,,,,,,,
,,,w,1,1.0228,0,0.144302461,#a3d0fb,,left_blue.png,w,12,2,50,2,1,w,left_blue.png,left_orange.png,q,left,6069080565375bb41ee01993,001,2021-07-29_03h03.42.132,arrow_simon_norep,2021.1.2,Win32,59.99880002,,,,,,,,,,,,,,,,,,,,,,,,,,,,,,,,,,,,,,
,,,p,1,1.5295,0,0.396279402,#f3af84,,right_orange.png,p,12,3,51,0,1,o,right_blue.png,right_orange.png,p,left,6069080565375bb41ee01993,001,2021-07-29_03h03.42.132,arrow_simon_norep,2021.1.2,Win32,59.99880002,,,,,,,,,,,,,,,,,,,,,,,,,,,,,,,,,,,,,,
,,,o,1,1.2349,0,0.184550678,#a3d0fb,,right_blue.png,o,13,0,52,1,1,o,right_blue.png,right_orange.png,p,right,6069080565375bb41ee01993,001,2021-07-29_03h03.42.132,arrow_simon_norep,2021.1.2,Win32,59.99880002,,,,,,,,,,,,,,,,,,,,,,,,,,,,,,,,,,,,,,
,,,p,1,2.0797,0,0.888908809,#f3af84,,right_orange.png,p,13,1,53,1,1,o,right_blue.png,right_orange.png,p,right,6069080565375bb41ee01993,001,2021-07-29_03h03.42.132,arrow_simon_norep,2021.1.2,Win32,59.99880002,,,,,,,,,,,,,,,,,,,,,,,,,,,,,,,,,,,,,,
,,,w,1,1.5392,0,0.692015284,#a3d0fb,,left_blue.png,w,13,2,54,3,1,w,left_blue.png,left_orange.png,q,right,6069080565375bb41ee01993,001,2021-07-29_03h03.42.132,arrow_simon_norep,2021.1.2,Win32,59.99880002,,,,,,,,,,,,,,,,,,,,,,,,,,,,,,,,,,,,,,
,,,q,1,1.1914,0,0.06766428,#f3af84,,left_orange.png,q,13,3,55,2,1,w,left_blue.png,left_orange.png,q,left,6069080565375bb41ee01993,001,2021-07-29_03h03.42.132,arrow_simon_norep,2021.1.2,Win32,59.99880002,,,,,,,,,,,,,,,,,,,,,,,,,,,,,,,,,,,,,,
,,,o,0,1.5654,1,0.271659464,#a3d0fb,,left_blue.png,w,14,0,56,3,1,w,left_blue.png,left_orange.png,q,right,6069080565375bb41ee01993,001,2021-07-29_03h03.42.132,arrow_simon_norep,2021.1.2,Win32,59.99880002,,,,,,,,,,,,,,,,,,,,,,,,,,,,,,,,,,,,,,
,,,q,1,1.3561,0,0.224954709,#f3af84,,left_orange.png,q,14,1,57,2,1,w,left_blue.png,left_orange.png,q,left,6069080565375bb41ee01993,001,2021-07-29_03h03.42.132,arrow_simon_norep,2021.1.2,Win32,59.99880002,,,,,,,,,,,,,,,,,,,,,,,,,,,,,,,,,,,,,,
,,,w,1,2.1796,0,0.178917459,#a3d0fb,,left_blue.png,w,14,2,58,3,1,w,left_blue.png,left_orange.png,q,right,6069080565375bb41ee01993,001,2021-07-29_03h03.42.132,arrow_simon_norep,2021.1.2,Win32,59.99880002,,,,,,,,,,,,,,,,,,,,,,,,,,,,,,,,,,,,,,
,,,p,1,1.8233,0,0.805830028,#f3af84,,right_orange.png,p,14,3,59,0,1,o,right_blue.png,right_orange.png,p,left,6069080565375bb41ee01993,001,2021-07-29_03h03.42.132,arrow_simon_norep,2021.1.2,Win32,59.99880002,,,,,,,,,,,,,,,,,,,,,,,,,,,,,,,,,,,,,,
,,,,,,,,,,,,,,,,,,,,,,6069080565375bb41ee01993,001,2021-07-29_03h03.42.132,arrow_simon_norep,2021.1.2,Win32,59.99880002,space,74.4052,0,0,0,0,1,,,,,,,,,,,,,,,,,,,,,,,,,,,,,,,
,,,o,1,3.1976,0,0.443133296,#a3d0fb,,right_blue.png,o,0,0,0,0,1,o,right_blue.png,right_orange.png,p,left,6069080565375bb41ee01993,001,2021-07-29_03h03.42.132,arrow_simon_norep,2021.1.2,Win32,59.99880002,,,,,,,,,,,,,,,,,,,,,,,,,,,,,,,,,,,,,,
,,,q,1,1.3841,0,0.218777998,#f3af84,,left_orange.png,q,0,1,1,3,1,w,left_blue.png,left_orange.png,q,right,6069080565375bb41ee01993,001,2021-07-29_03h03.42.132,arrow_simon_norep,2021.1.2,Win32,59.99880002,,,,,,,,,,,,,,,,,,,,,,,,,,,,,,,,,,,,,,
,,,o,1,2.6209,0,0.751417665,#a3d0fb,,right_blue.png,o,0,2,2,0,1,o,right_blue.png,right_orange.png,p,left,6069080565375bb41ee01993,001,2021-07-29_03h03.42.132,arrow_simon_norep,2021.1.2,Win32,59.99880002,,,,,,,,,,,,,,,,,,,,,,,,,,,,,,,,,,,,,,
,,,p,1,2.6336,0,0.766936274,#f3af84,,right_orange.png,p,0,3,3,0,1,o,right_blue.png,right_orange.png,p,left,6069080565375bb41ee01993,001,2021-07-29_03h03.42.132,arrow_simon_norep,2021.1.2,Win32,59.99880002,,,,,,,,,,,,,,,,,,,,,,,,,,,,,,,,,,,,,,
,,,o,1,3.6081,0,0.325047896,#a3d0fb,,right_blue.png,o,1,0,4,1,1,o,right_blue.png,right_orange.png,p,right,6069080565375bb41ee01993,001,2021-07-29_03h03.42.132,arrow_simon_norep,2021.1.2,Win32,59.99880002,,,,,,,,,,,,,,,,,,,,,,,,,,,,,,,,,,,,,,
,,,q,0,2.2288,1,0.560230143,#f3af84,,right_orange.png,p,1,1,5,1,1,o,right_blue.png,right_orange.png,p,right,6069080565375bb41ee01993,001,2021-07-29_03h03.42.132,arrow_simon_norep,2021.1.2,Win32,59.99880002,,,,,,,,,,,,,,,,,,,,,,,,,,,,,,,,,,,,,,
,,,w,0,1.568,1,0.629707853,#a3d0fb,,right_blue.png,o,1,2,6,0,1,o,right_blue.png,right_orange.png,p,left,6069080565375bb41ee01993,001,2021-07-29_03h03.42.132,arrow_simon_norep,2021.1.2,Win32,59.99880002,,,,,,,,,,,,,,,,,,,,,,,,,,,,,,,,,,,,,,
,,,q,1,3.234,0,0.930667952,#f3af84,,left_orange.png,q,1,3,7,3,1,w,left_blue.png,left_orange.png,q,right,6069080565375bb41ee01993,001,2021-07-29_03h03.42.132,arrow_simon_norep,2021.1.2,Win32,59.99880002,,,,,,,,,,,,,,,,,,,,,,,,,,,,,,,,,,,,,,
,,,w,1,2.5339,0,0.789516275,#a3d0fb,,left_blue.png,w,2,0,8,2,1,w,left_blue.png,left_orange.png,q,left,6069080565375bb41ee01993,001,2021-07-29_03h03.42.132,arrow_simon_norep,2021.1.2,Win32,59.99880002,,,,,,,,,,,,,,,,,,,,,,,,,,,,,,,,,,,,,,
,,,p,1,3.2203,0,0.67583355,#f3af84,,right_orange.png,p,2,1,9,0,1,o,right_blue.png,right_orange.png,p,left,6069080565375bb41ee01993,001,2021-07-29_03h03.42.132,arrow_simon_norep,2021.1.2,Win32,59.99880002,,,,,,,,,,,,,,,,,,,,,,,,,,,,,,,,,,,,,,
,,,w,1,2.8945,0,0.297981041,#a3d0fb,,left_blue.png,w,2,2,10,2,1,w,left_blue.png,left_orange.png,q,left,6069080565375bb41ee01993,001,2021-07-29_03h03.42.132,arrow_simon_norep,2021.1.2,Win32,59.99880002,,,,,,,,,,,,,,,,,,,,,,,,,,,,,,,,,,,,,,
,,,q,1,1.2109,0,0.058223185,#f3af84,,left_orange.png,q,2,3,11,2,1,w,left_blue.png,left_orange.png,q,left,6069080565375bb41ee01993,001,2021-07-29_03h03.42.132,arrow_simon_norep,2021.1.2,Win32,59.99880002,,,,,,,,,,,,,,,,,,,,,,,,,,,,,,,,,,,,,,
,,,o,1,3.4308,0,0.762599332,#a3d0fb,,right_blue.png,o,3,0,12,1,1,o,right_blue.png,right_orange.png,p,right,6069080565375bb41ee01993,001,2021-07-29_03h03.42.132,arrow_simon_norep,2021.1.2,Win32,59.99880002,,,,,,,,,,,,,,,,,,,,,,,,,,,,,,,,,,,,,,
,,,q,0,2.1944,1,0.843111866,#f3af84,,right_orange.png,p,3,1,13,1,1,o,right_blue.png,right_orange.png,p,right,6069080565375bb41ee01993,001,2021-07-29_03h03.42.132,arrow_simon_norep,2021.1.2,Win32,59.99880002,,,,,,,,,,,,,,,,,,,,,,,,,,,,,,,,,,,,,,
,,,o,1,2.319,0,0.742608013,#a3d0fb,,right_blue.png,o,3,2,14,1,1,o,right_blue.png,right_orange.png,p,right,6069080565375bb41ee01993,001,2021-07-29_03h03.42.132,arrow_simon_norep,2021.1.2,Win32,59.99880002,,,,,,,,,,,,,,,,,,,,,,,,,,,,,,,,,,,,,,
,,,q,1,1.1205,0,0.133491401,#f3af84,,left_orange.png,q,3,3,15,3,1,w,left_blue.png,left_orange.png,q,right,6069080565375bb41ee01993,001,2021-07-29_03h03.42.132,arrow_simon_norep,2021.1.2,Win32,59.99880002,,,,,,,,,,,,,,,,,,,,,,,,,,,,,,,,,,,,,,
,,,p,0,2.9224,1,0.82661225,#a3d0fb,,right_blue.png,o,4,0,16,1,1,o,right_blue.png,right_orange.png,p,right,6069080565375bb41ee01993,001,2021-07-29_03h03.42.132,arrow_simon_norep,2021.1.2,Win32,59.99880002,,,,,,,,,,,,,,,,,,,,,,,,,,,,,,,,,,,,,,
,,,q,1,3.163,0,0.93254177,#f3af84,,left_orange.png,q,4,1,17,3,1,w,left_blue.png,left_orange.png,q,right,6069080565375bb41ee01993,001,2021-07-29_03h03.42.132,arrow_simon_norep,2021.1.2,Win32,59.99880002,,,,,,,,,,,,,,,,,,,,,,,,,,,,,,,,,,,,,,
,,,o,1,2.3693,0,0.51139687,#a3d0fb,,right_blue.png,o,4,2,18,1,1,o,right_blue.png,right_orange.png,p,right,6069080565375bb41ee01993,001,2021-07-29_03h03.42.132,arrow_simon_norep,2021.1.2,Win32,59.99880002,,,,,,,,,,,,,,,,,,,,,,,,,,,,,,,,,,,,,,
,,,q,1,2.1238,0,0.973331647,#f3af84,,left_orange.png,q,4,3,19,2,1,w,left_blue.png,left_orange.png,q,left,6069080565375bb41ee01993,001,2021-07-29_03h03.42.132,arrow_simon_norep,2021.1.2,Win32,59.99880002,,,,,,,,,,,,,,,,,,,,,,,,,,,,,,,,,,,,,,
,,,o,1,1.1948,0,0.281765026,#a3d0fb,,right_blue.png,o,5,0,20,1,1,o,right_blue.png,right_orange.png,p,right,6069080565375bb41ee01993,001,2021-07-29_03h03.42.132,arrow_simon_norep,2021.1.2,Win32,59.99880002,,,,,,,,,,,,,,,,,,,,,,,,,,,,,,,,,,,,,,
,,,p,1,2.14,0,0.687589374,#f3af84,,right_orange.png,p,5,1,21,0,1,o,right_blue.png,right_orange.png,p,left,6069080565375bb41ee01993,001,2021-07-29_03h03.42.132,arrow_simon_norep,2021.1.2,Win32,59.99880002,,,,,,,,,,,,,,,,,,,,,,,,,,,,,,,,,,,,,,
,,,o,1,1.2229,0,0.069800057,#a3d0fb,,right_blue.png,o,5,2,22,0,1,o,right_blue.png,right_orange.png,p,left,6069080565375bb41ee01993,001,2021-07-29_03h03.42.132,arrow_simon_norep,2021.1.2,Win32,59.99880002,,,,,,,,,,,,,,,,,,,,,,,,,,,,,,,,,,,,,,
,,,q,1,2.5847,0,0.778402653,#f3af84,,left_orange.png,q,5,3,23,3,1,w,left_blue.png,left_orange.png,q,right,6069080565375bb41ee01993,001,2021-07-29_03h03.42.132,arrow_simon_norep,2021.1.2,Win32,59.99880002,,,,,,,,,,,,,,,,,,,,,,,,,,,,,,,,,,,,,,
,,,w,1,1.5584,0,0.756107114,#a3d0fb,,left_blue.png,w,6,0,24,2,1,w,left_blue.png,left_orange.png,q,left,6069080565375bb41ee01993,001,2021-07-29_03h03.42.132,arrow_simon_norep,2021.1.2,Win32,59.99880002,,,,,,,,,,,,,,,,,,,,,,,,,,,,,,,,,,,,,,
,,,q,1,1.5028,0,0.553030515,#f3af84,,left_orange.png,q,6,1,25,3,1,w,left_blue.png,left_orange.png,q,right,6069080565375bb41ee01993,001,2021-07-29_03h03.42.132,arrow_simon_norep,2021.1.2,Win32,59.99880002,,,,,,,,,,,,,,,,,,,,,,,,,,,,,,,,,,,,,,
,,,w,1,1.4233,0,0.779163384,#a3d0fb,,left_blue.png,w,6,2,26,2,1,w,left_blue.png,left_orange.png,q,left,6069080565375bb41ee01993,001,2021-07-29_03h03.42.132,arrow_simon_norep,2021.1.2,Win32,59.99880002,,,,,,,,,,,,,,,,,,,,,,,,,,,,,,,,,,,,,,
,,,p,1,2.0448,0,0.967909672,#f3af84,,right_orange.png,p,6,3,27,1,1,o,right_blue.png,right_orange.png,p,right,6069080565375bb41ee01993,001,2021-07-29_03h03.42.132,arrow_simon_norep,2021.1.2,Win32,59.99880002,,,,,,,,,,,,,,,,,,,,,,,,,,,,,,,,,,,,,,
,,,o,1,1.5684,0,0.755929302,#a3d0fb,,right_blue.png,o,7,0,28,1,1,o,right_blue.png,right_orange.png,p,right,6069080565375bb41ee01993,001,2021-07-29_03h03.42.132,arrow_simon_norep,2021.1.2,Win32,59.99880002,,,,,,,,,,,,,,,,,,,,,,,,,,,,,,,,,,,,,,
,,,q,1,1.8035,0,0.62548839,#f3af84,,left_orange.png,q,7,1,29,2,1,w,left_blue.png,left_orange.png,q,left,6069080565375bb41ee01993,001,2021-07-29_03h03.42.132,arrow_simon_norep,2021.1.2,Win32,59.99880002,,,,,,,,,,,,,,,,,,,,,,,,,,,,,,,,,,,,,,
,,,w,1,1.0629,0,0.113410063,#a3d0fb,,left_blue.png,w,7,2,30,2,1,w,left_blue.png,left_orange.png,q,left,6069080565375bb41ee01993,001,2021-07-29_03h03.42.132,arrow_simon_norep,2021.1.2,Win32,59.99880002,,,,,,,,,,,,,,,,,,,,,,,,,,,,,,,,,,,,,,
,,,p,1,1.1842,0,0.418634124,#f3af84,,right_orange.png,p,7,3,31,0,1,o,right_blue.png,right_orange.png,p,left,6069080565375bb41ee01993,001,2021-07-29_03h03.42.132,arrow_simon_norep,2021.1.2,Win32,59.99880002,,,,,,,,,,,,,,,,,,,,,,,,,,,,,,,,,,,,,,
,,,o,1,1.1509,0,0.34903886,#a3d0fb,,right_blue.png,o,8,0,32,0,1,o,right_blue.png,right_orange.png,p,left,6069080565375bb41ee01993,001,2021-07-29_03h03.42.132,arrow_simon_norep,2021.1.2,Win32,59.99880002,,,,,,,,,,,,,,,,,,,,,,,,,,,,,,,,,,,,,,
,,,q,1,1.9956,0,0.881416813,#f3af84,,left_orange.png,q,8,1,33,3,1,w,left_blue.png,left_orange.png,q,right,6069080565375bb41ee01993,001,2021-07-29_03h03.42.132,arrow_simon_norep,2021.1.2,Win32,59.99880002,,,,,,,,,,,,,,,,,,,,,,,,,,,,,,,,,,,,,,
,,,w,1,0.917,0,0.053358091,#a3d0fb,,left_blue.png,w,8,2,34,2,1,w,left_blue.png,left_orange.png,q,left,6069080565375bb41ee01993,001,2021-07-29_03h03.42.132,arrow_simon_norep,2021.1.2,Win32,59.99880002,,,,,,,,,,,,,,,,,,,,,,,,,,,,,,,,,,,,,,
,,,p,1,1.4877,0,0.576403837,#f3af84,,right_orange.png,p,8,3,35,1,1,o,right_blue.png,right_orange.png,p,right,6069080565375bb41ee01993,001,2021-07-29_03h03.42.132,arrow_simon_norep,2021.1.2,Win32,59.99880002,,,,,,,,,,,,,,,,,,,,,,,,,,,,,,,,,,,,,,
,,,p,0,1.5842,1,0.877423265,#a3d0fb,,right_blue.png,o,9,0,36,1,1,o,right_blue.png,right_orange.png,p,right,6069080565375bb41ee01993,001,2021-07-29_03h03.42.132,arrow_simon_norep,2021.1.2,Win32,59.99880002,,,,,,,,,,,,,,,,,,,,,,,,,,,,,,,,,,,,,,
,,,p,1,1.4122,0,0.727554462,#f3af84,,right_orange.png,p,9,1,37,1,1,o,right_blue.png,right_orange.png,p,right,6069080565375bb41ee01993,001,2021-07-29_03h03.42.132,arrow_simon_norep,2021.1.2,Win32,59.99880002,,,,,,,,,,,,,,,,,,,,,,,,,,,,,,,,,,,,,,
,,,w,1,1.3868,0,0.593789274,#a3d0fb,,left_blue.png,w,9,2,38,3,1,w,left_blue.png,left_orange.png,q,right,6069080565375bb41ee01993,001,2021-07-29_03h03.42.132,arrow_simon_norep,2021.1.2,Win32,59.99880002,,,,,,,,,,,,,,,,,,,,,,,,,,,,,,,,,,,,,,
,,,q,1,1.5865,0,0.761713755,#f3af84,,left_orange.png,q,9,3,39,2,1,w,left_blue.png,left_orange.png,q,left,6069080565375bb41ee01993,001,2021-07-29_03h03.42.132,arrow_simon_norep,2021.1.2,Win32,59.99880002,,,,,,,,,,,,,,,,,,,,,,,,,,,,,,,,,,,,,,
,,,w,1,1.2179,0,0.570897586,#a3d0fb,,left_blue.png,w,10,0,40,2,1,w,left_blue.png,left_orange.png,q,left,6069080565375bb41ee01993,001,2021-07-29_03h03.42.132,arrow_simon_norep,2021.1.2,Win32,59.99880002,,,,,,,,,,,,,,,,,,,,,,,,,,,,,,,,,,,,,,
,,,p,1,1.8888,0,0.988928259,#f3af84,,right_orange.png,p,10,1,41,0,1,o,right_blue.png,right_orange.png,p,left,6069080565375bb41ee01993,001,2021-07-29_03h03.42.132,arrow_simon_norep,2021.1.2,Win32,59.99880002,,,,,,,,,,,,,,,,,,,,,,,,,,,,,,,,,,,,,,
,,,w,1,1.6718,0,0.891904482,#a3d0fb,,left_blue.png,w,10,2,42,3,1,w,left_blue.png,left_orange.png,q,right,6069080565375bb41ee01993,001,2021-07-29_03h03.42.132,arrow_simon_norep,2021.1.2,Win32,59.99880002,,,,,,,,,,,,,,,,,,,,,,,,,,,,,,,,,,,,,,
,,,p,1,1.8171,0,0.957250398,#f3af84,,right_orange.png,p,10,3,43,1,1,o,right_blue.png,right_orange.png,p,right,6069080565375bb41ee01993,001,2021-07-29_03h03.42.132,arrow_simon_norep,2021.1.2,Win32,59.99880002,,,,,,,,,,,,,,,,,,,,,,,,,,,,,,,,,,,,,,
,,,w,0,1.3437,1,0.530243896,#a3d0fb,,right_blue.png,o,11,0,44,0,1,o,right_blue.png,right_orange.png,p,left,6069080565375bb41ee01993,001,2021-07-29_03h03.42.132,arrow_simon_norep,2021.1.2,Win32,59.99880002,,,,,,,,,,,,,,,,,,,,,,,,,,,,,,,,,,,,,,
,,,q,1,1.8728,0,0.897227907,#f3af84,,left_orange.png,q,11,1,45,3,1,w,left_blue.png,left_orange.png,q,right,6069080565375bb41ee01993,001,2021-07-29_03h03.42.132,arrow_simon_norep,2021.1.2,Win32,59.99880002,,,,,,,,,,,,,,,,,,,,,,,,,,,,,,,,,,,,,,
,,,o,1,1.4872,0,0.138556355,#a3d0fb,,right_blue.png,o,11,2,46,1,1,o,right_blue.png,right_orange.png,p,right,6069080565375bb41ee01993,001,2021-07-29_03h03.42.132,arrow_simon_norep,2021.1.2,Win32,59.99880002,,,,,,,,,,,,,,,,,,,,,,,,,,,,,,,,,,,,,,
,,,p,1,2.0171,0,0.429753974,#f3af84,,right_orange.png,p,11,3,47,0,1,o,right_blue.png,right_orange.png,p,left,6069080565375bb41ee01993,001,2021-07-29_03h03.42.132,arrow_simon_norep,2021.1.2,Win32,59.99880002,,,,,,,,,,,,,,,,,,,,,,,,,,,,,,,,,,,,,,
,,,w,1,2.9839,0,0.827883609,#a3d0fb,,left_blue.png,w,12,0,48,3,1,w,left_blue.png,left_orange.png,q,right,6069080565375bb41ee01993,001,2021-07-29_03h03.42.132,arrow_simon_norep,2021.1.2,Win32,59.99880002,,,,,,,,,,,,,,,,,,,,,,,,,,,,,,,,,,,,,,
,,,q,1,1.185,0,0.285656927,#f3af84,,left_orange.png,q,12,1,49,2,1,w,left_blue.png,left_orange.png,q,left,6069080565375bb41ee01993,001,2021-07-29_03h03.42.132,arrow_simon_norep,2021.1.2,Win32,59.99880002,,,,,,,,,,,,,,,,,,,,,,,,,,,,,,,,,,,,,,
,,,o,1,1.2926,0,0.189420575,#a3d0fb,,right_blue.png,o,12,2,50,0,1,o,right_blue.png,right_orange.png,p,left,6069080565375bb41ee01993,001,2021-07-29_03h03.42.132,arrow_simon_norep,2021.1.2,Win32,59.99880002,,,,,,,,,,,,,,,,,,,,,,,,,,,,,,,,,,,,,,
,,,p,1,0.9288,0,0.078752599,#f3af84,,right_orange.png,p,12,3,51,0,1,o,right_blue.png,right_orange.png,p,left,6069080565375bb41ee01993,001,2021-07-29_03h03.42.132,arrow_simon_norep,2021.1.2,Win32,59.99880002,,,,,,,,,,,,,,,,,,,,,,,,,,,,,,,,,,,,,,
,,,w,1,1.0135,0,0.114697225,#a3d0fb,,left_blue.png,w,13,0,52,3,1,w,left_blue.png,left_orange.png,q,right,6069080565375bb41ee01993,001,2021-07-29_03h03.42.132,arrow_simon_norep,2021.1.2,Win32,59.99880002,,,,,,,,,,,,,,,,,,,,,,,,,,,,,,,,,,,,,,
,,,q,1,1.0087,0,0.287388692,#f3af84,,left_orange.png,q,13,1,53,3,1,w,left_blue.png,left_orange.png,q,right,6069080565375bb41ee01993,001,2021-07-29_03h03.42.132,arrow_simon_norep,2021.1.2,Win32,59.99880002,,,,,,,,,,,,,,,,,,,,,,,,,,,,,,,,,,,,,,
,,,w,1,1.6679,0,0.763836759,#a3d0fb,,left_blue.png,w,13,2,54,3,1,w,left_blue.png,left_orange.png,q,right,6069080565375bb41ee01993,001,2021-07-29_03h03.42.132,arrow_simon_norep,2021.1.2,Win32,59.99880002,,,,,,,,,,,,,,,,,,,,,,,,,,,,,,,,,,,,,,
,,,p,0,1.1843,1,0.534252266,#f3af84,,left_orange.png,q,13,3,55,3,1,w,left_blue.png,left_orange.png,q,right,6069080565375bb41ee01993,001,2021-07-29_03h03.42.132,arrow_simon_norep,2021.1.2,Win32,59.99880002,,,,,,,,,,,,,,,,,,,,,,,,,,,,,,,,,,,,,,
,,,w,1,1.5103,0,0.627128538,#a3d0fb,,left_blue.png,w,14,0,56,2,1,w,left_blue.png,left_orange.png,q,left,6069080565375bb41ee01993,001,2021-07-29_03h03.42.132,arrow_simon_norep,2021.1.2,Win32,59.99880002,,,,,,,,,,,,,,,,,,,,,,,,,,,,,,,,,,,,,,
,,,q,1,1.2019,0,0.23241253,#f3af84,,left_orange.png,q,14,1,57,2,1,w,left_blue.png,left_orange.png,q,left,6069080565375bb41ee01993,001,2021-07-29_03h03.42.132,arrow_simon_norep,2021.1.2,Win32,59.99880002,,,,,,,,,,,,,,,,,,,,,,,,,,,,,,,,,,,,,,
,,,w,1,1.342,0,0.619990553,#a3d0fb,,left_blue.png,w,14,2,58,2,1,w,left_blue.png,left_orange.png,q,left,6069080565375bb41ee01993,001,2021-07-29_03h03.42.132,arrow_simon_norep,2021.1.2,Win32,59.99880002,,,,,,,,,,,,,,,,,,,,,,,,,,,,,,,,,,,,,,
,,,p,1,1.2877,0,0.523019834,#f3af84,,right_orange.png,p,14,3,59,0,1,o,right_blue.png,right_orange.png,p,left,6069080565375bb41ee01993,001,2021-07-29_03h03.42.132,arrow_simon_norep,2021.1.2,Win32,59.99880002,,,,,,,,,,,,,,,,,,,,,,,,,,,,,,,,,,,,,,
,,,,,,,,,,,,,,,,,,,,,,6069080565375bb41ee01993,001,2021-07-29_03h03.42.132,arrow_simon_norep,2021.1.2,Win32,59.99880002,space,10.9836,1,0,1,0,1,,,,,,,,,,,,,,,,,,,,,,,,,,,,,,,
,,,,,,,,,,,,,,,,,,,,,,6069080565375bb41ee01993,001,2021-07-29_03h03.42.132,arrow_simon_norep,2021.1.2,Win32,59.99880002,,,,,,,,space,0,113.9912,q,2.9807,0,0,0,0,1,,,,,,,,,,,,,,,,,,,,,
,,,,,,,,,,,,,,,,,,,,,,6069080565375bb41ee01993,001,2021-07-29_03h03.42.132,arrow_simon_norep,2021.1.2,Win32,59.99880002,,,,,,,,,,,w,3.0179,1,0,1,0,1,,,,,,,,,,,,,,,,,,,,,
,,,,,,,,,,,,,,,,,,,,,,6069080565375bb41ee01993,001,2021-07-29_03h03.42.132,arrow_simon_norep,2021.1.2,Win32,59.99880002,,,,,,,,,,,o,2.9464,2,0,2,0,1,,,,,,,,,,,,,,,,,,,,,
,,,,,,,,,,,,,,,,,,,,,,6069080565375bb41ee01993,001,2021-07-29_03h03.42.132,arrow_simon_norep,2021.1.2,Win32,59.99880002,,,,,,,,,,,p,2.8544,3,0,3,0,1,,,,,,,,,,,,,,,,,,,,,
,,,,,,,,,,,,,,,,,,,,,,6069080565375bb41ee01993,001,2021-07-29_03h03.42.132,arrow_simon_norep,2021.1.2,Win32,59.99880002,,,,,,,,,,,p,3.5807,4,0,4,0,1,,,,,,,,,,,,,,,,,,,,,
,,,,,,,,,,,,,,,,,,,,,,6069080565375bb41ee01993,001,2021-07-29_03h03.42.132,arrow_simon_norep,2021.1.2,Win32,59.99880002,,,,,,,,,,,p,2.6667,5,0,5,0,1,,,,,,,,,,,,,,,,,,,,,
,,,,,,,,,,,,,,,,,,,,,,6069080565375bb41ee01993,001,2021-07-29_03h03.42.132,arrow_simon_norep,2021.1.2,Win32,59.99880002,,,,,,,,,,,o,2.9023,6,0,6,0,1,,,,,,,,,,,,,,,,,,,,,
,,,,,,,,,,,,,,,,,,,,,,6069080565375bb41ee01993,001,2021-07-29_03h03.42.132,arrow_simon_norep,2021.1.2,Win32,59.99880002,,,,,,,,,,,q,2.1467,7,0,7,0,1,,,,,,,,,,,,,,,,,,,,,
,,,,,,,,,,,,,,,,,,,,,,6069080565375bb41ee01993,001,2021-07-29_03h03.42.132,arrow_simon_norep,2021.1.2,Win32,59.99880002,,,,,,,,,,,o,2.5119,8,0,8,0,1,,,,,,,,,,,,,,,,,,,,,
,,,,,,,,,,,,,,,,,,,,,,6069080565375bb41ee01993,001,2021-07-29_03h03.42.132,arrow_simon_norep,2021.1.2,Win32,59.99880002,,,,,,,,,,,q,2.6743,9,0,9,0,1,,,,,,,,,,,,,,,,,,,,,
,,,,,,,,,,,,,,,,,,,,,,6069080565375bb41ee01993,001,2021-07-29_03h03.42.132,arrow_simon_norep,2021.1.2,Win32,59.99880002,,,,,,,,,,,o,2.0806,10,0,10,0,1,,,,,,,,,,,,,,,,,,,,,
,,,,,,,,,,,,,,,,,,,,,,6069080565375bb41ee01993,001,2021-07-29_03h03.42.132,arrow_simon_norep,2021.1.2,Win32,59.99880002,,,,,,,,,,,q,2.8676,11,0,11,0,1,,,,,,,,,,,,,,,,,,,,,
,,,,,,,,,,,,,,,,,,,,,,6069080565375bb41ee01993,001,2021-07-29_03h03.42.132,arrow_simon_norep,2021.1.2,Win32,59.99880002,,,,,,,,,,,o,2.1818,12,0,12,0,1,,,,,,,,,,,,,,,,,,,,,
,,,,,,,,,,,,,,,,,,,,,,6069080565375bb41ee01993,001,2021-07-29_03h03.42.132,arrow_simon_norep,2021.1.2,Win32,59.99880002,,,,,,,,,,,q,2.8447,13,0,13,0,1,,,,,,,,,,,,,,,,,,,,,
,,,,,,,,,,,,,,,,,,,,,,6069080565375bb41ee01993,001,2021-07-29_03h03.42.132,arrow_simon_norep,2021.1.2,Win32,59.99880002,,,,,,,,,,,o,2.2336,14,0,14,0,1,,,,,,,,,,,,,,,,,,,,,
,,,,,,,,,,,,,,,,,,,,,,6069080565375bb41ee01993,001,2021-07-29_03h03.42.132,arrow_simon_norep,2021.1.2,Win32,59.99880002,,,,,,,,,,,q,2.7633,15,0,15,0,1,,,,,,,,,,,,,,,,,,,,,
,,,,,,,,,,,,,,,,,,,,,,6069080565375bb41ee01993,001,2021-07-29_03h03.42.132,arrow_simon_norep,2021.1.2,Win32,59.99880002,,,,,,,,,,,o,2.7334,16,0,16,0,1,,,,,,,,,,,,,,,,,,,,,
,,,,,,,,,,,,,,,,,,,,,,6069080565375bb41ee01993,001,2021-07-29_03h03.42.132,arrow_simon_norep,2021.1.2,Win32,59.99880002,,,,,,,,,,,q,2.4786,17,0,17,0,1,,,,,,,,,,,,,,,,,,,,,
,,,,,,,,,,,,,,,,,,,,,,6069080565375bb41ee01993,001,2021-07-29_03h03.42.132,arrow_simon_norep,2021.1.2,Win32,59.99880002,,,,,,,,,,,o,2.7844,18,0,18,0,1,,,,,,,,,,,,,,,,,,,,,
,,,,,,,,,,,,,,,,,,,,,,6069080565375bb41ee01993,001,2021-07-29_03h03.42.132,arrow_simon_norep,2021.1.2,Win32,59.99880002,,,,,,,,,,,q,2.5542,19,0,19,0,1,,,,,,,,,,,,,,,,,,,,,
,,,,,,,,,,,,,,,,,,,,,,6069080565375bb41ee01993,001,2021-07-29_03h03.42.132,arrow_simon_norep,2021.1.2,Win32,59.99880002,,,,,,,,,,,o,2.4668,20,0,20,0,1,,,,,,,,,,,,,,,,,,,,,
,,,,,,,,,,,,,,,,,,,,,,6069080565375bb41ee01993,001,2021-07-29_03h03.42.132,arrow_simon_norep,2021.1.2,Win32,59.99880002,,,,,,,,,,,q,2.5636,21,0,21,0,1,,,,,,,,,,,,,,,,,,,,,
,,,,,,,,,,,,,,,,,,,,,,6069080565375bb41ee01993,001,2021-07-29_03h03.42.132,arrow_simon_norep,2021.1.2,Win32,59.99880002,,,,,,,,,,,o,2.8851,22,0,22,0,1,,,,,,,,,,,,,,,,,,,,,
,,,,,,,,,,,,,,,,,,,,,,6069080565375bb41ee01993,001,2021-07-29_03h03.42.132,arrow_simon_norep,2021.1.2,Win32,59.99880002,,,,,,,,,,,q,2.801,23,0,23,0,1,,,,,,,,,,,,,,,,,,,,,
,,,,,,,,,,,,,,,,,,,,,,6069080565375bb41ee01993,001,2021-07-29_03h03.42.132,arrow_simon_norep,2021.1.2,Win32,59.99880002,,,,,,,,,,,o,2.8617,24,0,24,0,1,,,,,,,,,,,,,,,,,,,,,
,,,,,,,,,,,,,,,,,,,,,,6069080565375bb41ee01993,001,2021-07-29_03h03.42.132,arrow_simon_norep,2021.1.2,Win32,59.99880002,,,,,,,,,,,q,2.4539,25,0,25,0,1,,,,,,,,,,,,,,,,,,,,,
,,,,,,,,,,,,,,,,,,,,,,6069080565375bb41ee01993,001,2021-07-29_03h03.42.132,arrow_simon_norep,2021.1.2,Win32,59.99880002,,,,,,,,,,,o,2.4751,26,0,26,0,1,,,,,,,,,,,,,,,,,,,,,
,,,,,,,,,,,,,,,,,,,,,,6069080565375bb41ee01993,001,2021-07-29_03h03.42.132,arrow_simon_norep,2021.1.2,Win32,59.99880002,,,,,,,,,,,q,2.4194,27,0,27,0,1,,,,,,,,,,,,,,,,,,,,,
,,,,,,,,,,,,,,,,,,,,,,6069080565375bb41ee01993,001,2021-07-29_03h03.42.132,arrow_simon_norep,2021.1.2,Win32,59.99880002,,,,,,,,,,,o,2.6093,28,0,28,0,1,,,,,,,,,,,,,,,,,,,,,
,,,,,,,,,,,,,,,,,,,,,,6069080565375bb41ee01993,001,2021-07-29_03h03.42.132,arrow_simon_norep,2021.1.2,Win32,59.99880002,,,,,,,,,,,q,2.1239,29,0,29,0,1,,,,,,,,,,,,,,,,,,,,,
,,,,,,,,,,,,,,,,,,,,,,6069080565375bb41ee01993,001,2021-07-29_03h03.42.132,arrow_simon_norep,2021.1.2,Win32,59.99880002,,,,,,,,,,,o,2.3835,30,0,30,0,1,,,,,,,,,,,,,,,,,,,,,
,,,,,,,,,,,,,,,,,,,,,,6069080565375bb41ee01993,001,2021-07-29_03h03.42.132,arrow_simon_norep,2021.1.2,Win32,59.99880002,,,,,,,,,,,q,2.4452,31,0,31,0,1,,,,,,,,,,,,,,,,,,,,,
,,,,,,,,,,,,,,,,,,,,,,6069080565375bb41ee01993,001,2021-07-29_03h03.42.132,arrow_simon_norep,2021.1.2,Win32,59.99880002,,,,,,,,,,,o,2.3398,32,0,32,0,1,,,,,,,,,,,,,,,,,,,,,
,,,,,,,,,,,,,,,,,,,,,,6069080565375bb41ee01993,001,2021-07-29_03h03.42.132,arrow_simon_norep,2021.1.2,Win32,59.99880002,,,,,,,,,,,q,2.5146,33,0,33,0,1,,,,,,,,,,,,,,,,,,,,,
,,,,,,,,,,,,,,,,,,,,,,6069080565375bb41ee01993,001,2021-07-29_03h03.42.132,arrow_simon_norep,2021.1.2,Win32,59.99880002,,,,,,,,,,,o,2.4824,34,0,34,0,1,,,,,,,,,,,,,,,,,,,,,
,,,,,,,,,,,,,,,,,,,,,,6069080565375bb41ee01993,001,2021-07-29_03h03.42.132,arrow_simon_norep,2021.1.2,Win32,59.99880002,,,,,,,,,,,q,2.6913,35,0,35,0,1,,,,,,,,,,,,,,,,,,,,,
,,,,,,,,,,,,,,,,,,,,,,6069080565375bb41ee01993,001,2021-07-29_03h03.42.132,arrow_simon_norep,2021.1.2,Win32,59.99880002,,,,,,,,,,,o,2.1635,36,0,36,0,1,,,,,,,,,,,,,,,,,,,,,
,,,,,,,,,,,,,,,,,,,,,,6069080565375bb41ee01993,001,2021-07-29_03h03.42.132,arrow_simon_norep,2021.1.2,Win32,59.99880002,,,,,,,,,,,q,2.7514,37,0,37,0,1,,,,,,,,,,,,,,,,,,,,,
,,,,,,,,,,,,,,,,,,,,,,6069080565375bb41ee01993,001,2021-07-29_03h03.42.132,arrow_simon_norep,2021.1.2,Win32,59.99880002,,,,,,,,,,,o,2.529,38,0,38,0,1,,,,,,,,,,,,,,,,,,,,,
,,,,,,,,,,,,,,,,,,,,,,6069080565375bb41ee01993,001,2021-07-29_03h03.42.132,arrow_simon_norep,2021.1.2,Win32,59.99880002,,,,,,,,,,,q,2.8181,39,0,39,0,1,,,,,,,,,,,,,,,,,,,,,
,,,,,,,,,,,,,,,,,,,,,,6069080565375bb41ee01993,001,2021-07-29_03h03.42.132,arrow_simon_norep,2021.1.2,Win32,59.99880002,,,,,,,,,,,o,2.6182,40,0,40,0,1,,,,,,,,,,,,,,,,,,,,,
,,,,,,,,,,,,,,,,,,,,,,6069080565375bb41ee01993,001,2021-07-29_03h03.42.132,arrow_simon_norep,2021.1.2,Win32,59.99880002,,,,,,,,,,,q,2.3575,41,0,41,0,1,,,,,,,,,,,,,,,,,,,,,
,,,,,,,,,,,,,,,,,,,,,,6069080565375bb41ee01993,001,2021-07-29_03h03.42.132,arrow_simon_norep,2021.1.2,Win32,59.99880002,,,,,,,,,,,o,2.6793,42,0,42,0,1,,,,,,,,,,,,,,,,,,,,,
,,,,,,,,,,,,,,,,,,,,,,6069080565375bb41ee01993,001,2021-07-29_03h03.42.132,arrow_simon_norep,2021.1.2,Win32,59.99880002,,,,,,,,,,,q,2.0796,43,0,43,0,1,,,,,,,,,,,,,,,,,,,,,
,,,,,,,,,,,,,,,,,,,,,,6069080565375bb41ee01993,001,2021-07-29_03h03.42.132,arrow_simon_norep,2021.1.2,Win32,59.99880002,,,,,,,,,,,o,2.4181,44,0,44,0,1,,,,,,,,,,,,,,,,,,,,,
,,,,,,,,,,,,,,,,,,,,,,6069080565375bb41ee01993,001,2021-07-29_03h03.42.132,arrow_simon_norep,2021.1.2,Win32,59.99880002,,,,,,,,,,,q,2.6345,45,0,45,0,1,,,,,,,,,,,,,,,,,,,,,
,,,,,,,,,,,,,,,,,,,,,,6069080565375bb41ee01993,001,2021-07-29_03h03.42.132,arrow_simon_norep,2021.1.2,Win32,59.99880002,,,,,,,,,,,o,2.5252,46,0,46,0,1,,,,,,,,,,,,,,,,,,,,,
,,,,,,,,,,,,,,,,,,,,,,6069080565375bb41ee01993,001,2021-07-29_03h03.42.132,arrow_simon_norep,2021.1.2,Win32,59.99880002,,,,,,,,,,,q,2.5144,47,0,47,0,1,,,,,,,,,,,,,,,,,,,,,
,,,,,,,,,,,,,,,,,,,,,,6069080565375bb41ee01993,001,2021-07-29_03h03.42.132,arrow_simon_norep,2021.1.2,Win32,59.99880002,,,,,,,,,,,o,2.5832,48,0,48,0,1,,,,,,,,,,,,,,,,,,,,,
,,,,,,,,,,,,,,,,,,,,,,6069080565375bb41ee01993,001,2021-07-29_03h03.42.132,arrow_simon_norep,2021.1.2,Win32,59.99880002,,,,,,,,,,,q,2.6327,49,0,49,0,1,,,,,,,,,,,,,,,,,,,,,
,,,,,,,,,,,,,,,,,,,,,,6069080565375bb41ee01993,001,2021-07-29_03h03.42.132,arrow_simon_norep,2021.1.2,Win32,59.99880002,,,,,,,,,,,o,2.5662,50,0,50,0,1,,,,,,,,,,,,,,,,,,,,,
,,,,,,,,,,,,,,,,,,,,,,6069080565375bb41ee01993,001,2021-07-29_03h03.42.132,arrow_simon_norep,2021.1.2,Win32,59.99880002,,,,,,,,,,,q,2.1814,51,0,51,0,1,,,,,,,,,,,,,,,,,,,,,
,,,,,,,,,,,,,,,,,,,,,,6069080565375bb41ee01993,001,2021-07-29_03h03.42.132,arrow_simon_norep,2021.1.2,Win32,59.99880002,,,,,,,,,,,o,2.3386,52,0,52,0,1,,,,,,,,,,,,,,,,,,,,,
,,,,,,,,,,,,,,,,,,,,,,6069080565375bb41ee01993,001,2021-07-29_03h03.42.132,arrow_simon_norep,2021.1.2,Win32,59.99880002,,,,,,,,,,,q,2.556,53,0,53,0,1,,,,,,,,,,,,,,,,,,,,,
,,,,,,,,,,,,,,,,,,,,,,6069080565375bb41ee01993,001,2021-07-29_03h03.42.132,arrow_simon_norep,2021.1.2,Win32,59.99880002,,,,,,,,,,,o,2.2205,54,0,54,0,1,,,,,,,,,,,,,,,,,,,,,
,,,,,,,,,,,,,,,,,,,,,,6069080565375bb41ee01993,001,2021-07-29_03h03.42.132,arrow_simon_norep,2021.1.2,Win32,59.99880002,,,,,,,,,,,q,2.354,55,0,55,0,1,,,,,,,,,,,,,,,,,,,,,
,,,,,,,,,,,,,,,,,,,,,,6069080565375bb41ee01993,001,2021-07-29_03h03.42.132,arrow_simon_norep,2021.1.2,Win32,59.99880002,,,,,,,,,,,o,2.5852,56,0,56,0,1,,,,,,,,,,,,,,,,,,,,,
,,,,,,,,,,,,,,,,,,,,,,6069080565375bb41ee01993,001,2021-07-29_03h03.42.132,arrow_simon_norep,2021.1.2,Win32,59.99880002,,,,,,,,,,,q,2.474,57,0,57,0,1,,,,,,,,,,,,,,,,,,,,,
,,,,,,,,,,,,,,,,,,,,,,6069080565375bb41ee01993,001,2021-07-29_03h03.42.132,arrow_simon_norep,2021.1.2,Win32,59.99880002,,,,,,,,,,,o,2.418,58,0,58,0,1,,,,,,,,,,,,,,,,,,,,,
,,,,,,,,,,,,,,,,,,,,,,6069080565375bb41ee01993,001,2021-07-29_03h03.42.132,arrow_simon_norep,2021.1.2,Win32,59.99880002,,,,,,,,,,,q,2.3271,59,0,59,0,1,,,,,,,,,,,,,,,,,,,,,
,,,,,,0,1.867335583,#a3d0fb,,left_blue.png,w,,,,,,w,left_blue.png,left_orange.png,q,left,6069080565375bb41ee01993,001,2021-07-29_03h03.42.132,arrow_simon_norep,2021.1.2,Win32,59.99880002,,,,,,,,,,,,,,,,,,space,0,133.1902,w,1,1.7272,1,TRUE,FALSE,0,0,0,2,1,,,,,,,
,,,,,,1,2.291068908,#f3af84,,right_orange.png,p,,,,,,o,right_blue.png,right_orange.png,p,right,6069080565375bb41ee01993,001,2021-07-29_03h03.42.132,arrow_simon_norep,2021.1.2,Win32,59.99880002,,,,,,,,,,,,,,,,,,,,,q,0,1.5007,2,FALSE,FALSE,0,1,1,1,1,,,,,,,
,,,,,,1,2.232791769,#a3d0fb,,left_blue.png,w,,,,,,w,left_blue.png,left_orange.png,q,right,6069080565375bb41ee01993,001,2021-07-29_03h03.42.132,arrow_simon_norep,2021.1.2,Win32,59.99880002,,,,,,,,,,,,,,,,,,,,,p,0,1.5424,3,FALSE,FALSE,0,2,2,3,1,,,,,,,
,,,,,,1,2.052553163,#f3af84,,left_orange.png,q,,,,,,w,left_blue.png,left_orange.png,q,left,6069080565375bb41ee01993,001,2021-07-29_03h03.42.132,arrow_simon_norep,2021.1.2,Win32,59.99880002,,,,,,,,,,,,,,,,,,,,,p,0,1.2333,4,FALSE,TRUE,0,3,3,2,1,,,,,,,
,,,,,,1,1.944541356,#a3d0fb,,left_blue.png,w,,,,,,w,left_blue.png,left_orange.png,q,right,6069080565375bb41ee01993,001,2021-07-29_03h03.42.132,arrow_simon_norep,2021.1.2,Win32,59.99880002,,,,,,,,,,,,,,,,,,,,,o,0,1.275,5,FALSE,TRUE,1,0,4,3,1,,,,,,,
,,,,,,1,2.003282874,#f3af84,,right_orange.png,p,,,,,,o,right_blue.png,right_orange.png,p,left,6069080565375bb41ee01993,001,2021-07-29_03h03.42.132,arrow_simon_norep,2021.1.2,Win32,59.99880002,,,,,,,,,,,,,,,,,,,,,q,0,1.2626,6,FALSE,TRUE,1,1,5,0,1,,,,,,,
,,,,,,1,1.697285459,#a3d0fb,,right_blue.png,o,,,,,,o,right_blue.png,right_orange.png,p,right,6069080565375bb41ee01993,001,2021-07-29_03h03.42.132,arrow_simon_norep,2021.1.2,Win32,59.99880002,,,,,,,,,,,,,,,,,,,,,p,0,1.1561,7,FALSE,TRUE,1,2,6,1,1,,,,,,,
,,,,,,1,1.622139289,#f3af84,,right_orange.png,p,,,,,,o,right_blue.png,right_orange.png,p,right,6069080565375bb41ee01993,001,2021-07-29_03h03.42.132,arrow_simon_norep,2021.1.2,Win32,59.99880002,,,,,,,,,,,,,,,,,,,,,o,0,1.2645,8,FALSE,TRUE,1,3,7,1,1,,,,,,,
,,,,,,1,1.574829557,#a3d0fb,,left_blue.png,w,,,,,,w,left_blue.png,left_orange.png,q,right,6069080565375bb41ee01993,001,2021-07-29_03h03.42.132,arrow_simon_norep,2021.1.2,Win32,59.99880002,,,,,,,,,,,,,,,,,,,,,w,1,1.3707,9,FALSE,TRUE,2,0,8,3,1,,,,,,,
,,,,,,1,2.175035122,#f3af84,,left_orange.png,q,,,,,,w,left_blue.png,left_orange.png,q,right,6069080565375bb41ee01993,001,2021-07-29_03h03.42.132,arrow_simon_norep,2021.1.2,Win32,59.99880002,,,,,,,,,,,,,,,,,,,,,q,1,1.6241,10,TRUE,FALSE,2,1,9,3,1,,,,,,,
,,,,,,1,1.967031202,#a3d0fb,,right_blue.png,o,,,,,,o,right_blue.png,right_orange.png,p,left,6069080565375bb41ee01993,001,2021-07-29_03h03.42.132,arrow_simon_norep,2021.1.2,Win32,59.99880002,,,,,,,,,,,,,,,,,,,,,w,0,1.5741,11,FALSE,FALSE,2,2,10,0,1,,,,,,,
,,,,,,1,2.496053828,#f3af84,,right_orange.png,p,,,,,,o,right_blue.png,right_orange.png,p,right,6069080565375bb41ee01993,001,2021-07-29_03h03.42.132,arrow_simon_norep,2021.1.2,Win32,59.99880002,,,,,,,,,,,,,,,,,,,,,q,0,1.4164,12,FALSE,FALSE,2,3,11,1,1,,,,,,,
,,,,,,0,1.883231284,#a3d0fb,,right_blue.png,o,,,,,,o,right_blue.png,right_orange.png,p,right,6069080565375bb41ee01993,001,2021-07-29_03h03.42.132,arrow_simon_norep,2021.1.2,Win32,59.99880002,,,,,,,,,,,,,,,,,,,,,o,1,1.5009,13,FALSE,FALSE,3,0,12,1,1,,,,,,,
,,,,,,0,2.151765676,#f3af84,,right_orange.png,p,,,,,,o,right_blue.png,right_orange.png,p,right,6069080565375bb41ee01993,001,2021-07-29_03h03.42.132,arrow_simon_norep,2021.1.2,Win32,59.99880002,,,,,,,,,,,,,,,,,,,,,q,0,1.3176,14,FALSE,TRUE,3,1,13,1,1,,,,,,,
,,,,,,1,1.927134627,#a3d0fb,,left_blue.png,w,,,,,,w,left_blue.png,left_orange.png,q,left,6069080565375bb41ee01993,001,2021-07-29_03h03.42.132,arrow_simon_norep,2021.1.2,Win32,59.99880002,,,,,,,,,,,,,,,,,,,,,q,0,1.4345,15,FALSE,FALSE,3,2,14,2,1,,,,,,,
,,,,,,0,1.924398465,#f3af84,,left_orange.png,q,,,,,,w,left_blue.png,left_orange.png,q,left,6069080565375bb41ee01993,001,2021-07-29_03h03.42.132,arrow_simon_norep,2021.1.2,Win32,59.99880002,,,,,,,,,,,,,,,,,,,,,q,1,1.5817,16,FALSE,FALSE,3,3,15,2,1,,,,,,,
,,,,,,0,2.048283991,#a3d0fb,,right_blue.png,o,,,,,,o,right_blue.png,right_orange.png,p,right,6069080565375bb41ee01993,001,2021-07-29_03h03.42.132,arrow_simon_norep,2021.1.2,Win32,59.99880002,,,,,,,,,,,,,,,,,,,,,o,1,1.553,17,FALSE,FALSE,4,0,16,1,1,,,,,,,
,,,,,,0,2.308426108,#f3af84,,left_orange.png,q,,,,,,w,left_blue.png,left_orange.png,q,left,6069080565375bb41ee01993,001,2021-07-29_03h03.42.132,arrow_simon_norep,2021.1.2,Win32,59.99880002,,,,,,,,,,,,,,,,,,,,,w,0,1.7973,18,TRUE,FALSE,4,1,17,2,1,,,,,,,
,,,,,,1,2.145743057,#a3d0fb,,left_blue.png,w,,,,,,w,left_blue.png,left_orange.png,q,right,6069080565375bb41ee01993,001,2021-07-29_03h03.42.132,arrow_simon_norep,2021.1.2,Win32,59.99880002,,,,,,,,,,,,,,,,,,,,,o,0,1.5882,19,FALSE,FALSE,4,2,18,3,1,,,,,,,
,,,,,,1,1.730700501,#f3af84,,right_orange.png,p,,,,,,o,right_blue.png,right_orange.png,p,left,6069080565375bb41ee01993,001,2021-07-29_03h03.42.132,arrow_simon_norep,2021.1.2,Win32,59.99880002,,,,,,,,,,,,,,,,,,,,,o,0,1.2673,20,FALSE,TRUE,4,3,19,0,1,,,,,,,
,,,,,,0,2.068929481,#a3d0fb,,right_blue.png,o,,,,,,o,right_blue.png,right_orange.png,p,right,6069080565375bb41ee01993,001,2021-07-29_03h03.42.132,arrow_simon_norep,2021.1.2,Win32,59.99880002,,,,,,,,,,,,,,,,,,,,,o,1,1.5677,21,FALSE,FALSE,5,0,20,1,1,,,,,,,
,,,,,,0,2.490683277,#f3af84,,right_orange.png,p,,,,,,o,right_blue.png,right_orange.png,p,right,6069080565375bb41ee01993,001,2021-07-29_03h03.42.132,arrow_simon_norep,2021.1.2,Win32,59.99880002,,,,,,,,,,,,,,,,,,,,,p,1,1.8665,22,TRUE,FALSE,5,1,21,1,1,,,,,,,
,,,,,,0,1.63974103,#a3d0fb,,left_blue.png,w,,,,,,w,left_blue.png,left_orange.png,q,right,6069080565375bb41ee01993,001,2021-07-29_03h03.42.132,arrow_simon_norep,2021.1.2,Win32,59.99880002,,,,,,,,,,,,,,,,,,,,,o,0,1.0614,23,FALSE,TRUE,5,2,22,3,1,,,,,,,
,,,,,,0,1.678915322,#f3af84,,left_orange.png,q,,,,,,w,left_blue.png,left_orange.png,q,right,6069080565375bb41ee01993,001,2021-07-29_03h03.42.132,arrow_simon_norep,2021.1.2,Win32,59.99880002,,,,,,,,,,,,,,,,,,,,,o,0,1.233,24,FALSE,TRUE,5,3,23,3,1,,,,,,,
,,,,,,0,2.158813541,#a3d0fb,,right_blue.png,o,,,,,,o,right_blue.png,right_orange.png,p,right,6069080565375bb41ee01993,001,2021-07-29_03h03.42.132,arrow_simon_norep,2021.1.2,Win32,59.99880002,,,,,,,,,,,,,,,,,,,,,p,0,1.6166,25,TRUE,FALSE,6,0,24,1,1,,,,,,,
,,,,,,0,1.761479498,#f3af84,,left_orange.png,q,,,,,,w,left_blue.png,left_orange.png,q,right,6069080565375bb41ee01993,001,2021-07-29_03h03.42.132,arrow_simon_norep,2021.1.2,Win32,59.99880002,,,,,,,,,,,,,,,,,,,,,p,0,1.2106,26,FALSE,TRUE,6,1,25,3,1,,,,,,,
,,,,,,0,2.36823012,#a3d0fb,,right_blue.png,o,,,,,,o,right_blue.png,right_orange.png,p,left,6069080565375bb41ee01993,001,2021-07-29_03h03.42.132,arrow_simon_norep,2021.1.2,Win32,59.99880002,,,,,,,,,,,,,,,,,,,,,w,0,1.7828,27,TRUE,FALSE,6,2,26,0,1,,,,,,,
,,,,,,1,1.923103967,#f3af84,,left_orange.png,q,,,,,,w,left_blue.png,left_orange.png,q,right,6069080565375bb41ee01993,001,2021-07-29_03h03.42.132,arrow_simon_norep,2021.1.2,Win32,59.99880002,,,,,,,,,,,,,,,,,,,,,p,0,1.4771,28,FALSE,FALSE,6,3,27,3,1,,,,,,,
,,,,,,1,1.778557746,#a3d0fb,,right_blue.png,o,,,,,,o,right_blue.png,right_orange.png,p,left,6069080565375bb41ee01993,001,2021-07-29_03h03.42.132,arrow_simon_norep,2021.1.2,Win32,59.99880002,,,,,,,,,,,,,,,,,,,,,o,1,1.2785,29,FALSE,TRUE,7,0,28,0,1,,,,,,,
,,,,,,1,1.617740348,#f3af84,,right_orange.png,p,,,,,,o,right_blue.png,right_orange.png,p,left,6069080565375bb41ee01993,001,2021-07-29_03h03.42.132,arrow_simon_norep,2021.1.2,Win32,59.99880002,,,,,,,,,,,,,,,,,,,,,p,1,1.1022,30,FALSE,TRUE,7,1,29,0,1,,,,,,,
,,,,,,1,1.884729159,#a3d0fb,,left_blue.png,w,,,,,,w,left_blue.png,left_orange.png,q,right,6069080565375bb41ee01993,001,2021-07-29_03h03.42.132,arrow_simon_norep,2021.1.2,Win32,59.99880002,,,,,,,,,,,,,,,,,,,,,w,1,1.6001,31,TRUE,FALSE,7,2,30,3,1,,,,,,,
,,,,,,1,1.76299982,#f3af84,,right_orange.png,p,,,,,,o,right_blue.png,right_orange.png,p,right,6069080565375bb41ee01993,001,2021-07-29_03h03.42.132,arrow_simon_norep,2021.1.2,Win32,59.99880002,,,,,,,,,,,,,,,,,,,,,p,1,1.2814,32,FALSE,TRUE,7,3,31,1,1,,,,,,,
,,,,,,1,1.888777144,#a3d0fb,,left_blue.png,w,,,,,,w,left_blue.png,left_orange.png,q,right,6069080565375bb41ee01993,001,2021-07-29_03h03.42.132,arrow_simon_norep,2021.1.2,Win32,59.99880002,,,,,,,,,,,,,,,,,,,,,o,0,1.6183,33,TRUE,FALSE,8,0,32,3,1,,,,,,,
,,,,,,1,1.785943113,#f3af84,,right_orange.png,p,,,,,,o,right_blue.png,right_orange.png,p,left,6069080565375bb41ee01993,001,2021-07-29_03h03.42.132,arrow_simon_norep,2021.1.2,Win32,59.99880002,,,,,,,,,,,,,,,,,,,,,p,1,1.3766,34,FALSE,TRUE,8,1,33,0,1,,,,,,,
,,,,,,1,1.849849623,#a3d0fb,,left_blue.png,w,,,,,,w,left_blue.png,left_orange.png,q,left,6069080565375bb41ee01993,001,2021-07-29_03h03.42.132,arrow_simon_norep,2021.1.2,Win32,59.99880002,,,,,,,,,,,,,,,,,,,,,q,0,1.6909,35,TRUE,FALSE,8,2,34,2,1,,,,,,,
,,,,,,1,1.814575046,#f3af84,,left_orange.png,q,,,,,,w,left_blue.png,left_orange.png,q,left,6069080565375bb41ee01993,001,2021-07-29_03h03.42.132,arrow_simon_norep,2021.1.2,Win32,59.99880002,,,,,,,,,,,,,,,,,,,,,w,0,1.3175,36,FALSE,TRUE,8,3,35,2,1,,,,,,,
,,,,,,1,1.608075174,#a3d0fb,,right_blue.png,o,,,,,,o,right_blue.png,right_orange.png,p,right,6069080565375bb41ee01993,001,2021-07-29_03h03.42.132,arrow_simon_norep,2021.1.2,Win32,59.99880002,,,,,,,,,,,,,,,,,,,,,o,1,1.654,37,TRUE,FALSE,9,0,36,1,1,,,,,,,
,,,,,,1,2.383957276,#f3af84,,left_orange.png,q,,,,,,w,left_blue.png,left_orange.png,q,right,6069080565375bb41ee01993,001,2021-07-29_03h03.42.132,arrow_simon_norep,2021.1.2,Win32,59.99880002,,,,,,,,,,,,,,,,,,,,,p,0,1.7842,38,TRUE,FALSE,9,1,37,3,1,,,,,,,
,,,,,,1,1.842933614,#a3d0fb,,right_blue.png,o,,,,,,o,right_blue.png,right_orange.png,p,left,6069080565375bb41ee01993,001,2021-07-29_03h03.42.132,arrow_simon_norep,2021.1.2,Win32,59.99880002,,,,,,,,,,,,,,,,,,,,,p,0,1.7005,39,TRUE,FALSE,9,2,38,0,1,,,,,,,
,,,,,,1,2.492677993,#f3af84,,right_orange.png,p,,,,,,o,right_blue.png,right_orange.png,p,left,6069080565375bb41ee01993,001,2021-07-29_03h03.42.132,arrow_simon_norep,2021.1.2,Win32,59.99880002,,,,,,,,,,,,,,,,,,,,,o,0,2.0676,40,TRUE,FALSE,9,3,39,0,1,,,,,,,
,,,,,,1,2.024373254,#a3d0fb,,left_blue.png,w,,,,,,w,left_blue.png,left_orange.png,q,left,6069080565375bb41ee01993,001,2021-07-29_03h03.42.132,arrow_simon_norep,2021.1.2,Win32,59.99880002,,,,,,,,,,,,,,,,,,,,,w,1,1.6531,41,TRUE,FALSE,10,0,40,2,1,,,,,,,
,,,,,,1,2.246738381,#f3af84,,left_orange.png,q,,,,,,w,left_blue.png,left_orange.png,q,right,6069080565375bb41ee01993,001,2021-07-29_03h03.42.132,arrow_simon_norep,2021.1.2,Win32,59.99880002,,,,,,,,,,,,,,,,,,,,,p,0,1.647,42,TRUE,FALSE,10,1,41,3,1,,,,,,,
,,,,,,0,1.640873551,#a3d0fb,,right_blue.png,o,,,,,,o,right_blue.png,right_orange.png,p,left,6069080565375bb41ee01993,001,2021-07-29_03h03.42.132,arrow_simon_norep,2021.1.2,Win32,59.99880002,,,,,,,,,,,,,,,,,,,,,o,1,1.567,43,FALSE,FALSE,10,2,42,0,1,,,,,,,
,,,,,,0,2.416412417,#f3af84,,left_orange.png,q,,,,,,w,left_blue.png,left_orange.png,q,left,6069080565375bb41ee01993,001,2021-07-29_03h03.42.132,arrow_simon_norep,2021.1.2,Win32,59.99880002,,,,,,,,,,,,,,,,,,,,,q,1,1.7979,44,TRUE,FALSE,10,3,43,2,1,,,,,,,
,,,,,,0,2.391914205,#a3d0fb,,right_blue.png,o,,,,,,o,right_blue.png,right_orange.png,p,left,6069080565375bb41ee01993,001,2021-07-29_03h03.42.132,arrow_simon_norep,2021.1.2,Win32,59.99880002,,,,,,,,,,,,,,,,,,,,,w,0,1.9979,45,TRUE,FALSE,11,0,44,0,1,,,,,,,
,,,,,,0,2.055629462,#f3af84,,left_orange.png,q,,,,,,w,left_blue.png,left_orange.png,q,right,6069080565375bb41ee01993,001,2021-07-29_03h03.42.132,arrow_simon_norep,2021.1.2,Win32,59.99880002,,,,,,,,,,,,,,,,,,,,,p,0,1.6171,46,TRUE,FALSE,11,1,45,3,1,,,,,,,
,,,,,,0,1.50798635,#a3d0fb,,left_blue.png,w,,,,,,w,left_blue.png,left_orange.png,q,left,6069080565375bb41ee01993,001,2021-07-29_03h03.42.132,arrow_simon_norep,2021.1.2,Win32,59.99880002,,,,,,,,,,,,,,,,,,,,,p,0,1.1001,47,FALSE,TRUE,11,2,46,2,1,,,,,,,
,,,,,,0,1.896544564,#f3af84,,left_orange.png,q,,,,,,w,left_blue.png,left_orange.png,q,right,6069080565375bb41ee01993,001,2021-07-29_03h03.42.132,arrow_simon_norep,2021.1.2,Win32,59.99880002,,,,,,,,,,,,,,,,,,,,,p,0,1.3126,48,FALSE,TRUE,11,3,47,3,1,,,,,,,
,,,,,,0,1.678325988,#a3d0fb,,right_blue.png,o,,,,,,o,right_blue.png,right_orange.png,p,right,6069080565375bb41ee01993,001,2021-07-29_03h03.42.132,arrow_simon_norep,2021.1.2,Win32,59.99880002,,,,,,,,,,,,,,,,,,,,,o,1,1.3023,49,FALSE,TRUE,12,0,48,1,1,,,,,,,
,,,,,,0,2.34264186,#f3af84,,right_orange.png,p,,,,,,o,right_blue.png,right_orange.png,p,left,6069080565375bb41ee01993,001,2021-07-29_03h03.42.132,arrow_simon_norep,2021.1.2,Win32,59.99880002,,,,,,,,,,,,,,,,,,,,,p,1,1.8175,50,TRUE,FALSE,12,1,49,0,1,,,,,,,
,,,,,,0,1.90527108,#a3d0fb,,right_blue.png,o,,,,,,o,right_blue.png,right_orange.png,p,right,6069080565375bb41ee01993,001,2021-07-29_03h03.42.132,arrow_simon_norep,2021.1.2,Win32,59.99880002,,,,,,,,,,,,,,,,,,,,,o,1,1.5038,51,FALSE,FALSE,12,2,50,1,1,,,,,,,
,,,,,,0,2.262555395,#f3af84,,right_orange.png,p,,,,,,o,right_blue.png,right_orange.png,p,right,6069080565375bb41ee01993,001,2021-07-29_03h03.42.132,arrow_simon_norep,2021.1.2,Win32,59.99880002,,,,,,,,,,,,,,,,,,,,,o,0,1.8073,52,TRUE,FALSE,12,3,51,1,1,,,,,,,
,,,,,,0,2.23367327,#a3d0fb,,right_blue.png,o,,,,,,o,right_blue.png,right_orange.png,p,left,6069080565375bb41ee01993,001,2021-07-29_03h03.42.132,arrow_simon_norep,2021.1.2,Win32,59.99880002,,,,,,,,,,,,,,,,,,,,,w,0,1.7462,53,TRUE,FALSE,13,0,52,0,1,,,,,,,
,,,,,,0,1.914409931,#f3af84,,left_orange.png,q,,,,,,w,left_blue.png,left_orange.png,q,left,6069080565375bb41ee01993,001,2021-07-29_03h03.42.132,arrow_simon_norep,2021.1.2,Win32,59.99880002,,,,,,,,,,,,,,,,,,,,,o,0,1.3851,54,FALSE,TRUE,13,1,53,2,1,,,,,,,
,,,,,,0,2.499115644,#a3d0fb,,left_blue.png,w,,,,,,w,left_blue.png,left_orange.png,q,left,6069080565375bb41ee01993,001,2021-07-29_03h03.42.132,arrow_simon_norep,2021.1.2,Win32,59.99880002,,,,,,,,,,,,,,,,,,,,,w,1,1.9556,55,TRUE,FALSE,13,2,54,2,1,,,,,,,
,,,,,,0,1.505898185,#f3af84,,left_orange.png,q,,,,,,w,left_blue.png,left_orange.png,q,left,6069080565375bb41ee01993,001,2021-07-29_03h03.42.132,arrow_simon_norep,2021.1.2,Win32,59.99880002,,,,,,,,,,,,,,,,,,,,,w,0,1.1341,56,FALSE,TRUE,13,3,55,2,1,,,,,,,
,,,,,,0,2.168376345,#a3d0fb,,left_blue.png,w,,,,,,w,left_blue.png,left_orange.png,q,left,6069080565375bb41ee01993,001,2021-07-29_03h03.42.132,arrow_simon_norep,2021.1.2,Win32,59.99880002,,,,,,,,,,,,,,,,,,,,,w,1,1.6514,57,TRUE,FALSE,14,0,56,2,1,,,,,,,
,,,,,,0,1.773022198,#f3af84,,right_orange.png,p,,,,,,o,right_blue.png,right_orange.png,p,left,6069080565375bb41ee01993,001,2021-07-29_03h03.42.132,arrow_simon_norep,2021.1.2,Win32,59.99880002,,,,,,,,,,,,,,,,,,,,,p,1,1.4176,58,FALSE,FALSE,14,1,57,0,1,,,,,,,
,,,,,,0,2.085219101,#a3d0fb,,left_blue.png,w,,,,,,w,left_blue.png,left_orange.png,q,left,6069080565375bb41ee01993,001,2021-07-29_03h03.42.132,arrow_simon_norep,2021.1.2,Win32,59.99880002,,,,,,,,,,,,,,,,,,,,,q,0,1.6944,59,TRUE,FALSE,14,2,58,2,1,,,,,,,
,,,,,,0,2.284866079,#f3af84,,right_orange.png,p,,,,,,o,right_blue.png,right_orange.png,p,left,6069080565375bb41ee01993,001,2021-07-29_03h03.42.132,arrow_simon_norep,2021.1.2,Win32,59.99880002,,,,,,,,,,,,,,,,,,,,,p,1,1.7338,60,TRUE,FALSE,14,3,59,0,1,,,,,,,
,,,,,,,,,,,,,,,,,,,,,,6069080565375bb41ee01993,001,2021-07-29_03h03.42.132,arrow_simon_norep,2021.1.2,Win32,59.99880002,,,,,,,,,,,,,,,,,,,,,,,,,,,,,,,,space,76.4544,0,0,0,0,1
,,,,,,0,2.209861316,#a3d0fb,,left_blue.png,w,,,,,,w,left_blue.png,left_orange.png,q,left,6069080565375bb41ee01993,001,2021-07-29_03h03.42.132,arrow_simon_norep,2021.1.2,Win32,59.99880002,,,,,,,,,,,,,,,,,,,,,w,1,1.6848,1,TRUE,FALSE,0,0,0,2,1,,,,,,,
,,,,,,0,2.429236543,#f3af84,,right_orange.png,p,,,,,,o,right_blue.png,right_orange.png,p,right,6069080565375bb41ee01993,001,2021-07-29_03h03.42.132,arrow_simon_norep,2021.1.2,Win32,59.99880002,,,,,,,,,,,,,,,,,,,,,p,1,1.8175,2,TRUE,FALSE,0,1,1,1,1,,,,,,,
,,,,,,0,1.989461088,#a3d0fb,,left_blue.png,w,,,,,,w,left_blue.png,left_orange.png,q,right,6069080565375bb41ee01993,001,2021-07-29_03h03.42.132,arrow_simon_norep,2021.1.2,Win32,59.99880002,,,,,,,,,,,,,,,,,,,,,o,0,1.3175,3,FALSE,TRUE,0,2,2,3,1,,,,,,,
,,,,,,0,1.747381117,#f3af84,,right_orange.png,p,,,,,,o,right_blue.png,right_orange.png,p,left,6069080565375bb41ee01993,001,2021-07-29_03h03.42.132,arrow_simon_norep,2021.1.2,Win32,59.99880002,,,,,,,,,,,,,,,,,,,,,p,1,1.1884,4,FALSE,TRUE,0,3,3,0,1,,,,,,,
,,,,,,0,1.90959395,#a3d0fb,,left_blue.png,w,,,,,,w,left_blue.png,left_orange.png,q,right,6069080565375bb41ee01993,001,2021-07-29_03h03.42.132,arrow_simon_norep,2021.1.2,Win32,59.99880002,,,,,,,,,,,,,,,,,,,,,p,0,1.2682,5,FALSE,TRUE,1,0,4,3,1,,,,,,,
,,,,,,0,1.866884126,#f3af84,,left_orange.png,q,,,,,,w,left_blue.png,left_orange.png,q,left,6069080565375bb41ee01993,001,2021-07-29_03h03.42.132,arrow_simon_norep,2021.1.2,Win32,59.99880002,,,,,,,,,,,,,,,,,,,,,q,1,1.2077,6,FALSE,TRUE,1,1,5,2,1,,,,,,,
,,,,,,0,2.350287668,#a3d0fb,,left_blue.png,w,,,,,,w,left_blue.png,left_orange.png,q,left,6069080565375bb41ee01993,001,2021-07-29_03h03.42.132,arrow_simon_norep,2021.1.2,Win32,59.99880002,,,,,,,,,,,,,,,,,,,,,w,1,1.7978,7,TRUE,FALSE,1,2,6,2,1,,,,,,,
,,,,,,0,2.258600259,#f3af84,,left_orange.png,q,,,,,,w,left_blue.png,left_orange.png,q,left,6069080565375bb41ee01993,001,2021-07-29_03h03.42.132,arrow_simon_norep,2021.1.2,Win32,59.99880002,,,,,,,,,,,,,,,,,,,,,q,1,1.7146,8,TRUE,FALSE,1,3,7,2,1,,,,,,,
,,,,,,1,2.01891342,#a3d0fb,,left_blue.png,w,,,,,,w,left_blue.png,left_orange.png,q,right,6069080565375bb41ee01993,001,2021-07-29_03h03.42.132,arrow_simon_norep,2021.1.2,Win32,59.99880002,,,,,,,,,,,,,,,,,,,,,o,0,1.5998,9,FALSE,FALSE,2,0,8,3,1,,,,,,,
,,,,,,1,2.325995891,#f3af84,,right_orange.png,p,,,,,,o,right_blue.png,right_orange.png,p,right,6069080565375bb41ee01993,001,2021-07-29_03h03.42.132,arrow_simon_norep,2021.1.2,Win32,59.99880002,,,,,,,,,,,,,,,,,,,,,w,0,1.5797,10,FALSE,FALSE,2,1,9,1,1,,,,,,,
,,,,,,1,2.277987469,#a3d0fb,,right_blue.png,o,,,,,,o,right_blue.png,right_orange.png,p,left,6069080565375bb41ee01993,001,2021-07-29_03h03.42.132,arrow_simon_norep,2021.1.2,Win32,59.99880002,,,,,,,,,,,,,,,,,,,,,o,1,1.722,11,TRUE,FALSE,2,2,10,0,1,,,,,,,
,,,,,,1,1.762471528,#f3af84,,left_orange.png,q,,,,,,w,left_blue.png,left_orange.png,q,right,6069080565375bb41ee01993,001,2021-07-29_03h03.42.132,arrow_simon_norep,2021.1.2,Win32,59.99880002,,,,,,,,,,,,,,,,,,,,,p,0,1.1207,12,FALSE,TRUE,2,3,11,3,1,,,,,,,
,,,,,,1,2.443407418,#a3d0fb,,right_blue.png,o,,,,,,o,right_blue.png,right_orange.png,p,left,6069080565375bb41ee01993,001,2021-07-29_03h03.42.132,arrow_simon_norep,2021.1.2,Win32,59.99880002,,,,,,,,,,,,,,,,,,,,,p,0,1.8278,13,TRUE,FALSE,3,0,12,0,1,,,,,,,
,,,,,,1,2.379414866,#f3af84,,right_orange.png,p,,,,,,o,right_blue.png,right_orange.png,p,left,6069080565375bb41ee01993,001,2021-07-29_03h03.42.132,arrow_simon_norep,2021.1.2,Win32,59.99880002,,,,,,,,,,,,,,,,,,,,,p,1,1.6392,14,TRUE,FALSE,3,1,13,0,1,,,,,,,
,,,,,,1,2.360918787,#a3d0fb,,left_blue.png,w,,,,,,w,left_blue.png,left_orange.png,q,left,6069080565375bb41ee01993,001,2021-07-29_03h03.42.132,arrow_simon_norep,2021.1.2,Win32,59.99880002,,,,,,,,,,,,,,,,,,,,,w,1,1.7393,15,TRUE,FALSE,3,2,14,2,1,,,,,,,
,,,,,,1,1.887298159,#f3af84,,left_orange.png,q,,,,,,w,left_blue.png,left_orange.png,q,right,6069080565375bb41ee01993,001,2021-07-29_03h03.42.132,arrow_simon_norep,2021.1.2,Win32,59.99880002,,,,,,,,,,,,,,,,,,,,,o,0,1.3276,16,FALSE,TRUE,3,3,15,3,1,,,,,,,
,,,,,,0,1.870116719,#a3d0fb,,left_blue.png,w,,,,,,w,left_blue.png,left_orange.png,q,left,6069080565375bb41ee01993,001,2021-07-29_03h03.42.132,arrow_simon_norep,2021.1.2,Win32,59.99880002,,,,,,,,,,,,,,,,,,,,,w,1,1.4221,17,FALSE,FALSE,4,0,16,2,1,,,,,,,
,,,,,,0,1.980975773,#f3af84,,right_orange.png,p,,,,,,o,right_blue.png,right_orange.png,p,left,6069080565375bb41ee01993,001,2021-07-29_03h03.42.132,arrow_simon_norep,2021.1.2,Win32,59.99880002,,,,,,,,,,,,,,,,,,,,,p,1,1.4562,18,FALSE,FALSE,4,1,17,0,1,,,,,,,
,,,,,,0,1.985517196,#a3d0fb,,left_blue.png,w,,,,,,w,left_blue.png,left_orange.png,q,left,6069080565375bb41ee01993,001,2021-07-29_03h03.42.132,arrow_simon_norep,2021.1.2,Win32,59.99880002,,,,,,,,,,,,,,,,,,,,,w,1,1.4704,19,FALSE,FALSE,4,2,18,2,1,,,,,,,
,,,,,,0,2.173961517,#f3af84,,left_orange.png,q,,,,,,w,left_blue.png,left_orange.png,q,left,6069080565375bb41ee01993,001,2021-07-29_03h03.42.132,arrow_simon_norep,2021.1.2,Win32,59.99880002,,,,,,,,,,,,,,,,,,,,,q,1,1.4848,20,FALSE,FALSE,4,3,19,2,1,,,,,,,
,,,,,,0,1.900678001,#a3d0fb,,right_blue.png,o,,,,,,o,right_blue.png,right_orange.png,p,left,6069080565375bb41ee01993,001,2021-07-29_03h03.42.132,arrow_simon_norep,2021.1.2,Win32,59.99880002,,,,,,,,,,,,,,,,,,,,,o,1,1.1963,21,FALSE,TRUE,5,0,20,0,1,,,,,,,
,,,,,,0,2.460076252,#f3af84,,left_orange.png,q,,,,,,w,left_blue.png,left_orange.png,q,right,6069080565375bb41ee01993,001,2021-07-29_03h03.42.132,arrow_simon_norep,2021.1.2,Win32,59.99880002,,,,,,,,,,,,,,,,,,,,,q,1,1.1713,22,FALSE,TRUE,5,1,21,3,1,,,,,,,
,,,,,,0,1.53470401,#a3d0fb,,left_blue.png,w,,,,,,w,left_blue.png,left_orange.png,q,left,6069080565375bb41ee01993,001,2021-07-29_03h03.42.132,arrow_simon_norep,2021.1.2,Win32,59.99880002,,,,,,,,,,,,,,,,,,,,,w,1,1.2061,23,FALSE,TRUE,5,2,22,2,1,,,,,,,
,,,,,,0,1.867359935,#f3af84,,right_orange.png,p,,,,,,o,right_blue.png,right_orange.png,p,left,6069080565375bb41ee01993,001,2021-07-29_03h03.42.132,arrow_simon_norep,2021.1.2,Win32,59.99880002,,,,,,,,,,,,,,,,,,,,,p,1,1.3164,24,FALSE,TRUE,5,3,23,0,1,,,,,,,
,,,,,,0,1.642753365,#a3d0fb,,left_blue.png,w,,,,,,w,left_blue.png,left_orange.png,q,right,6069080565375bb41ee01993,001,2021-07-29_03h03.42.132,arrow_simon_norep,2021.1.2,Win32,59.99880002,,,,,,,,,,,,,,,,,,,,,o,0,1.3674,25,FALSE,TRUE,6,0,24,3,1,,,,,,,
,,,,,,0,1.645890265,#f3af84,,left_orange.png,q,,,,,,w,left_blue.png,left_orange.png,q,right,6069080565375bb41ee01993,001,2021-07-29_03h03.42.132,arrow_simon_norep,2021.1.2,Win32,59.99880002,,,,,,,,,,,,,,,,,,,,,p,0,1.198,26,FALSE,TRUE,6,1,25,3,1,,,,,,,
,,,,,,1,1.930202813,#a3d0fb,,right_blue.png,o,,,,,,o,right_blue.png,right_orange.png,p,right,6069080565375bb41ee01993,001,2021-07-29_03h03.42.132,arrow_simon_norep,2021.1.2,Win32,59.99880002,,,,,,,,,,,,,,,,,,,,,p,0,1.4265,27,FALSE,FALSE,6,2,26,1,1,,,,,,,
,,,,,,1,2.379859306,#f3af84,,left_orange.png,q,,,,,,w,left_blue.png,left_orange.png,q,right,6069080565375bb41ee01993,001,2021-07-29_03h03.42.132,arrow_simon_norep,2021.1.2,Win32,59.99880002,,,,,,,,,,,,,,,,,,,,,o,0,1.8008,28,TRUE,FALSE,6,3,27,3,1,,,,,,,
,,,,,,1,1.675920515,#a3d0fb,,left_blue.png,w,,,,,,w,left_blue.png,left_orange.png,q,left,6069080565375bb41ee01993,001,2021-07-29_03h03.42.132,arrow_simon_norep,2021.1.2,Win32,59.99880002,,,,,,,,,,,,,,,,,,,,,w,1,1.137,29,FALSE,TRUE,7,0,28,2,1,,,,,,,
,,,,,,1,2.144205214,#f3af84,,right_orange.png,p,,,,,,o,right_blue.png,right_orange.png,p,left,6069080565375bb41ee01993,001,2021-07-29_03h03.42.132,arrow_simon_norep,2021.1.2,Win32,59.99880002,,,,,,,,,,,,,,,,,,,,,q,0,1.5531,30,FALSE,FALSE,7,1,29,0,1,,,,,,,
,,,,,,1,2.474127442,#a3d0fb,,left_blue.png,w,,,,,,w,left_blue.png,left_orange.png,q,left,6069080565375bb41ee01993,001,2021-07-29_03h03.42.132,arrow_simon_norep,2021.1.2,Win32,59.99880002,,,,,,,,,,,,,,,,,,,,,w,1,1.9691,31,TRUE,FALSE,7,2,30,2,1,,,,,,,
,,,,,,1,1.81087534,#f3af84,,left_orange.png,q,,,,,,w,left_blue.png,left_orange.png,q,right,6069080565375bb41ee01993,001,2021-07-29_03h03.42.132,arrow_simon_norep,2021.1.2,Win32,59.99880002,,,,,,,,,,,,,,,,,,,,,o,0,1.3709,32,FALSE,TRUE,7,3,31,3,1,,,,,,,
,,,,,,1,1.780566457,#a3d0fb,,left_blue.png,w,,,,,,w,left_blue.png,left_orange.png,q,left,6069080565375bb41ee01993,001,2021-07-29_03h03.42.132,arrow_simon_norep,2021.1.2,Win32,59.99880002,,,,,,,,,,,,,,,,,,,,,w,1,1.3309,33,FALSE,TRUE,8,0,32,2,1,,,,,,,
,,,,,,1,1.620872039,#f3af84,,right_orange.png,p,,,,,,o,right_blue.png,right_orange.png,p,right,6069080565375bb41ee01993,001,2021-07-29_03h03.42.132,arrow_simon_norep,2021.1.2,Win32,59.99880002,,,,,,,,,,,,,,,,,,,,,o,0,1.1348,34,FALSE,TRUE,8,1,33,1,1,,,,,,,
,,,,,,1,2.109435708,#a3d0fb,,right_blue.png,o,,,,,,o,right_blue.png,right_orange.png,p,right,6069080565375bb41ee01993,001,2021-07-29_03h03.42.132,arrow_simon_norep,2021.1.2,Win32,59.99880002,,,,,,,,,,,,,,,,,,,,,p,0,1.6859,35,TRUE,FALSE,8,2,34,1,1,,,,,,,
,,,,,,1,2.172308376,#f3af84,,right_orange.png,p,,,,,,o,right_blue.png,right_orange.png,p,left,6069080565375bb41ee01993,001,2021-07-29_03h03.42.132,arrow_simon_norep,2021.1.2,Win32,59.99880002,,,,,,,,,,,,,,,,,,,,,p,1,1.6283,36,TRUE,FALSE,8,3,35,0,1,,,,,,,
,,,,,,1,1.983331963,#a3d0fb,,right_blue.png,o,,,,,,o,right_blue.png,right_orange.png,p,right,6069080565375bb41ee01993,001,2021-07-29_03h03.42.132,arrow_simon_norep,2021.1.2,Win32,59.99880002,,,,,,,,,,,,,,,,,,,,,p,0,1.3061,37,FALSE,TRUE,9,0,36,1,1,,,,,,,
,,,,,,1,1.879604689,#f3af84,,left_orange.png,q,,,,,,w,left_blue.png,left_orange.png,q,right,6069080565375bb41ee01993,001,2021-07-29_03h03.42.132,arrow_simon_norep,2021.1.2,Win32,59.99880002,,,,,,,,,,,,,,,,,,,,,q,1,1.277,38,FALSE,TRUE,9,1,37,3,1,,,,,,,
,,,,,,0,2.130349103,#a3d0fb,,left_blue.png,w,,,,,,w,left_blue.png,left_orange.png,q,left,6069080565375bb41ee01993,001,2021-07-29_03h03.42.132,arrow_simon_norep,2021.1.2,Win32,59.99880002,,,,,,,,,,,,,,,,,,,,,w,1,1.446,39,FALSE,FALSE,9,2,38,2,1,,,,,,,
,,,,,,0,1.616547729,#f3af84,,left_orange.png,q,,,,,,w,left_blue.png,left_orange.png,q,right,6069080565375bb41ee01993,001,2021-07-29_03h03.42.132,arrow_simon_norep,2021.1.2,Win32,59.99880002,,,,,,,,,,,,,,,,,,,,,o,0,1.2175,40,FALSE,TRUE,9,3,39,3,1,,,,,,,
,,,,,,0,2.369828248,#a3d0fb,,left_blue.png,w,,,,,,w,left_blue.png,left_orange.png,q,right,6069080565375bb41ee01993,001,2021-07-29_03h03.42.132,arrow_simon_norep,2021.1.2,Win32,59.99880002,,,,,,,,,,,,,,,,,,,,,o,0,1.667,41,TRUE,FALSE,10,0,40,3,1,,,,,,,
,,,,,,0,1.625043397,#f3af84,,left_orange.png,q,,,,,,w,left_blue.png,left_orange.png,q,left,6069080565375bb41ee01993,001,2021-07-29_03h03.42.132,arrow_simon_norep,2021.1.2,Win32,59.99880002,,,,,,,,,,,,,,,,,,,,,q,1,1.1459,42,FALSE,TRUE,10,1,41,2,1,,,,,,,
,,,,,,0,1.806718661,#a3d0fb,,left_blue.png,w,,,,,,w,left_blue.png,left_orange.png,q,left,6069080565375bb41ee01993,001,2021-07-29_03h03.42.132,arrow_simon_norep,2021.1.2,Win32,59.99880002,,,,,,,,,,,,,,,,,,,,,w,1,1.2601,43,FALSE,TRUE,10,2,42,2,1,,,,,,,
,,,,,,0,1.572487226,#f3af84,,right_orange.png,p,,,,,,o,right_blue.png,right_orange.png,p,right,6069080565375bb41ee01993,001,2021-07-29_03h03.42.132,arrow_simon_norep,2021.1.2,Win32,59.99880002,,,,,,,,,,,,,,,,,,,,,p,1,1.3055,44,FALSE,TRUE,10,3,43,1,1,,,,,,,
,,,,,,0,2.256664456,#a3d0fb,,right_blue.png,o,,,,,,o,right_blue.png,right_orange.png,p,right,6069080565375bb41ee01993,001,2021-07-29_03h03.42.132,arrow_simon_norep,2021.1.2,Win32,59.99880002,,,,,,,,,,,,,,,,,,,,,o,1,1.9175,45,TRUE,FALSE,11,0,44,1,1,,,,,,,
,,,,,,0,1.763061152,#f3af84,,right_orange.png,p,,,,,,o,right_blue.png,right_orange.png,p,left,6069080565375bb41ee01993,001,2021-07-29_03h03.42.132,arrow_simon_norep,2021.1.2,Win32,59.99880002,,,,,,,,,,,,,,,,,,,,,w,0,1.2722,46,FALSE,TRUE,11,1,45,0,1,,,,,,,
,,,,,,0,1.827738985,#a3d0fb,,right_blue.png,o,,,,,,o,right_blue.png,right_orange.png,p,left,6069080565375bb41ee01993,001,2021-07-29_03h03.42.132,arrow_simon_norep,2021.1.2,Win32,59.99880002,,,,,,,,,,,,,,,,,,,,,o,1,1.3523,47,FALSE,TRUE,11,2,46,0,1,,,,,,,
,,,,,,0,1.850001383,#f3af84,,right_orange.png,p,,,,,,o,right_blue.png,right_orange.png,p,right,6069080565375bb41ee01993,001,2021-07-29_03h03.42.132,arrow_simon_norep,2021.1.2,Win32,59.99880002,,,,,,,,,,,,,,,,,,,,,p,1,1.2673,48,FALSE,TRUE,11,3,47,1,1,,,,,,,
,,,,,,0,1.937311245,#a3d0fb,,right_blue.png,o,,,,,,o,right_blue.png,right_orange.png,p,left,6069080565375bb41ee01993,001,2021-07-29_03h03.42.132,arrow_simon_norep,2021.1.2,Win32,59.99880002,,,,,,,,,,,,,,,,,,,,,o,1,1.6954,49,TRUE,FALSE,12,0,48,0,1,,,,,,,
,,,,,,0,1.681431652,#f3af84,,left_orange.png,q,,,,,,w,left_blue.png,left_orange.png,q,right,6069080565375bb41ee01993,001,2021-07-29_03h03.42.132,arrow_simon_norep,2021.1.2,Win32,59.99880002,,,,,,,,,,,,,,,,,,,,,q,1,1.3146,50,FALSE,TRUE,12,1,49,3,1,,,,,,,
,,,,,,0,2.330253598,#a3d0fb,,right_blue.png,o,,,,,,o,right_blue.png,right_orange.png,p,right,6069080565375bb41ee01993,001,2021-07-29_03h03.42.132,arrow_simon_norep,2021.1.2,Win32,59.99880002,,,,,,,,,,,,,,,,,,,,,o,1,1.9345,51,TRUE,FALSE,12,2,50,1,1,,,,,,,
,,,,,,0,2.064810368,#f3af84,,right_orange.png,p,,,,,,o,right_blue.png,right_orange.png,p,right,6069080565375bb41ee01993,001,2021-07-29_03h03.42.132,arrow_simon_norep,2021.1.2,Win32,59.99880002,,,,,,,,,,,,,,,,,,,,,p,1,1.5866,52,FALSE,FALSE,12,3,51,1,1,,,,,,,
,,,,,,0,2.300513548,#a3d0fb,,right_blue.png,o,,,,,,o,right_blue.png,right_orange.png,p,left,6069080565375bb41ee01993,001,2021-07-29_03h03.42.132,arrow_simon_norep,2021.1.2,Win32,59.99880002,,,,,,,,,,,,,,,,,,,,,o,1,1.8389,53,TRUE,FALSE,13,0,52,0,1,,,,,,,
,,,,,,0,1.653263869,#f3af84,,right_orange.png,p,,,,,,o,right_blue.png,right_orange.png,p,right,6069080565375bb41ee01993,001,2021-07-29_03h03.42.132,arrow_simon_norep,2021.1.2,Win32,59.99880002,,,,,,,,,,,,,,,,,,,,,p,1,1.2512,54,FALSE,TRUE,13,1,53,1,1,,,,,,,
,,,,,,0,1.559259407,#a3d0fb,,right_blue.png,o,,,,,,o,right_blue.png,right_orange.png,p,right,6069080565375bb41ee01993,001,2021-07-29_03h03.42.132,arrow_simon_norep,2021.1.2,Win32,59.99880002,,,,,,,,,,,,,,,,,,,,,o,1,1.03,55,FALSE,TRUE,13,2,54,1,1,,,,,,,
,,,,,,0,1.951873362,#f3af84,,right_orange.png,p,,,,,,o,right_blue.png,right_orange.png,p,right,6069080565375bb41ee01993,001,2021-07-29_03h03.42.132,arrow_simon_norep,2021.1.2,Win32,59.99880002,,,,,,,,,,,,,,,,,,,,,p,1,1.3213,56,FALSE,TRUE,13,3,55,1,1,,,,,,,
,,,,,,1,2.100061564,#a3d0fb,,right_blue.png,o,,,,,,o,right_blue.png,right_orange.png,p,left,6069080565375bb41ee01993,001,2021-07-29_03h03.42.132,arrow_simon_norep,2021.1.2,Win32,59.99880002,,,,,,,,,,,,,,,,,,,,,w,0,1.4504,57,FALSE,FALSE,14,0,56,0,1,,,,,,,
,,,,,,1,1.862662955,#f3af84,,left_orange.png,q,,,,,,w,left_blue.png,left_orange.png,q,right,6069080565375bb41ee01993,001,2021-07-29_03h03.42.132,arrow_simon_norep,2021.1.2,Win32,59.99880002,,,,,,,,,,,,,,,,,,,,,w,0,1.6339,58,TRUE,FALSE,14,1,57,3,1,,,,,,,
,,,,,,1,2.020904194,#a3d0fb,,right_blue.png,o,,,,,,o,right_blue.png,right_orange.png,p,right,6069080565375bb41ee01993,001,2021-07-29_03h03.42.132,arrow_simon_norep,2021.1.2,Win32,59.99880002,,,,,,,,,,,,,,,,,,,,,o,1,1.897,59,TRUE,FALSE,14,2,58,1,1,,,,,,,
,,,,,,1,2.405939083,#f3af84,,right_orange.png,p,,,,,,o,right_blue.png,right_orange.png,p,left,6069080565375bb41ee01993,001,2021-07-29_03h03.42.132,arrow_simon_norep,2021.1.2,Win32,59.99880002,,,,,,,,,,,,,,,,,,,,,p,1,1.9723,60,TRUE,FALSE,14,3,59,0,1,,,,,,,
,,,,,,,,,,,,,,,,,,,,,,6069080565375bb41ee01993,001,2021-07-29_03h03.42.132,arrow_simon_norep,2021.1.2,Win32,59.99880002,,,,,,,,,,,,,,,,,,,,,,,,,,,,,,,,space,14.1031,1,0,1,0,1
,,,,,,1,2.006545088,#a3d0fb,,right_blue.png,o,,,,,,o,right_blue.png,right_orange.png,p,right,6069080565375bb41ee01993,001,2021-07-29_03h03.42.132,arrow_simon_norep,2021.1.2,Win32,59.99880002,,,,,,,,,,,,,,,,,,,,,o,1,1.6812,1,TRUE,FALSE,0,0,0,1,1,,,,,,,
,,,,,,0,1.998639381,#f3af84,,right_orange.png,p,,,,,,o,right_blue.png,right_orange.png,p,left,6069080565375bb41ee01993,001,2021-07-29_03h03.42.132,arrow_simon_norep,2021.1.2,Win32,59.99880002,,,,,,,,,,,,,,,,,,,,,p,1,1.4672,2,FALSE,FALSE,0,1,1,0,1,,,,,,,
,,,,,,0,2.31873566,#a3d0fb,,right_blue.png,o,,,,,,o,right_blue.png,right_orange.png,p,right,6069080565375bb41ee01993,001,2021-07-29_03h03.42.132,arrow_simon_norep,2021.1.2,Win32,59.99880002,,,,,,,,,,,,,,,,,,,,,o,1,1.8198,3,TRUE,FALSE,0,2,2,1,1,,,,,,,
,,,,,,0,1.559304706,#f3af84,,right_orange.png,p,,,,,,o,right_blue.png,right_orange.png,p,right,6069080565375bb41ee01993,001,2021-07-29_03h03.42.132,arrow_simon_norep,2021.1.2,Win32,59.99880002,,,,,,,,,,,,,,,,,,,,,p,1,1.0339,4,FALSE,TRUE,0,3,3,1,1,,,,,,,
,,,,,,1,1.740367897,#a3d0fb,,left_blue.png,w,,,,,,w,left_blue.png,left_orange.png,q,right,6069080565375bb41ee01993,001,2021-07-29_03h03.42.132,arrow_simon_norep,2021.1.2,Win32,59.99880002,,,,,,,,,,,,,,,,,,,,,q,0,1.412,5,FALSE,FALSE,1,0,4,3,1,,,,,,,
,,,,,,1,2.300558455,#f3af84,,left_orange.png,q,,,,,,w,left_blue.png,left_orange.png,q,left,6069080565375bb41ee01993,001,2021-07-29_03h03.42.132,arrow_simon_norep,2021.1.2,Win32,59.99880002,,,,,,,,,,,,,,,,,,,,,w,0,1.7407,6,TRUE,FALSE,1,1,5,2,1,,,,,,,
,,,,,,0,1.786121154,#a3d0fb,,right_blue.png,o,,,,,,o,right_blue.png,right_orange.png,p,right,6069080565375bb41ee01993,001,2021-07-29_03h03.42.132,arrow_simon_norep,2021.1.2,Win32,59.99880002,,,,,,,,,,,,,,,,,,,,,o,1,1.4007,7,FALSE,FALSE,1,2,6,1,1,,,,,,,
,,,,,,0,1.57222485,#f3af84,,right_orange.png,p,,,,,,o,right_blue.png,right_orange.png,p,left,6069080565375bb41ee01993,001,2021-07-29_03h03.42.132,arrow_simon_norep,2021.1.2,Win32,59.99880002,,,,,,,,,,,,,,,,,,,,,p,1,1.2004,8,FALSE,TRUE,1,3,7,0,1,,,,,,,
,,,,,,0,1.844884521,#a3d0fb,,right_blue.png,o,,,,,,o,right_blue.png,right_orange.png,p,left,6069080565375bb41ee01993,001,2021-07-29_03h03.42.132,arrow_simon_norep,2021.1.2,Win32,59.99880002,,,,,,,,,,,,,,,,,,,,,o,1,1.5667,9,FALSE,FALSE,2,0,8,0,1,,,,,,,
,,,,,,0,2.499279742,#f3af84,,right_orange.png,p,,,,,,o,right_blue.png,right_orange.png,p,right,6069080565375bb41ee01993,001,2021-07-29_03h03.42.132,arrow_simon_norep,2021.1.2,Win32,59.99880002,,,,,,,,,,,,,,,,,,,,,q,0,1.6044,10,TRUE,FALSE,2,1,9,1,1,,,,,,,
,,,,,,0,2.345631741,#a3d0fb,,left_blue.png,w,,,,,,w,left_blue.png,left_orange.png,q,right,6069080565375bb41ee01993,001,2021-07-29_03h03.42.132,arrow_simon_norep,2021.1.2,Win32,59.99880002,,,,,,,,,,,,,,,,,,,,,q,0,1.885,11,TRUE,FALSE,2,2,10,3,1,,,,,,,
,,,,,,0,2.247611504,#f3af84,,right_orange.png,p,,,,,,o,right_blue.png,right_orange.png,p,left,6069080565375bb41ee01993,001,2021-07-29_03h03.42.132,arrow_simon_norep,2021.1.2,Win32,59.99880002,,,,,,,,,,,,,,,,,,,,,p,1,1.7986,12,TRUE,FALSE,2,3,11,0,1,,,,,,,
,,,,,,0,1.588994382,#a3d0fb,,right_blue.png,o,,,,,,o,right_blue.png,right_orange.png,p,right,6069080565375bb41ee01993,001,2021-07-29_03h03.42.132,arrow_simon_norep,2021.1.2,Win32,59.99880002,,,,,,,,,,,,,,,,,,,,,p,0,1.1874,13,FALSE,TRUE,3,0,12,1,1,,,,,,,
,,,,,,0,1.702121559,#f3af84,,left_orange.png,q,,,,,,w,left_blue.png,left_orange.png,q,left,6069080565375bb41ee01993,001,2021-07-29_03h03.42.132,arrow_simon_norep,2021.1.2,Win32,59.99880002,,,,,,,,,,,,,,,,,,,,,p,0,1.2578,14,FALSE,TRUE,3,1,13,2,1,,,,,,,
,,,,,,0,1.940848032,#a3d0fb,,left_blue.png,w,,,,,,w,left_blue.png,left_orange.png,q,left,6069080565375bb41ee01993,001,2021-07-29_03h03.42.132,arrow_simon_norep,2021.1.2,Win32,59.99880002,,,,,,,,,,,,,,,,,,,,,w,1,1.5007,15,FALSE,FALSE,3,2,14,2,1,,,,,,,
,,,,,,0,2.442538005,#f3af84,,right_orange.png,p,,,,,,o,right_blue.png,right_orange.png,p,left,6069080565375bb41ee01993,001,2021-07-29_03h03.42.132,arrow_simon_norep,2021.1.2,Win32,59.99880002,,,,,,,,,,,,,,,,,,,,,p,1,2.0343,16,TRUE,FALSE,3,3,15,0,1,,,,,,,
,,,,,,0,1.641317026,#a3d0fb,,right_blue.png,o,,,,,,o,right_blue.png,right_orange.png,p,left,6069080565375bb41ee01993,001,2021-07-29_03h03.42.132,arrow_simon_norep,2021.1.2,Win32,59.99880002,,,,,,,,,,,,,,,,,,,,,o,1,1.2055,17,FALSE,TRUE,4,0,16,0,1,,,,,,,
,,,,,,0,1.670514473,#f3af84,,left_orange.png,q,,,,,,w,left_blue.png,left_orange.png,q,left,6069080565375bb41ee01993,001,2021-07-29_03h03.42.132,arrow_simon_norep,2021.1.2,Win32,59.99880002,,,,,,,,,,,,,,,,,,,,,q,1,1.3034,18,FALSE,TRUE,4,1,17,2,1,,,,,,,
,,,,,,0,2.034128201,#a3d0fb,,right_blue.png,o,,,,,,o,right_blue.png,right_orange.png,p,left,6069080565375bb41ee01993,001,2021-07-29_03h03.42.132,arrow_simon_norep,2021.1.2,Win32,59.99880002,,,,,,,,,,,,,,,,,,,,,o,1,1.5005,19,FALSE,FALSE,4,2,18,0,1,,,,,,,
,,,,,,0,2.478773964,#f3af84,,left_orange.png,q,,,,,,w,left_blue.png,left_orange.png,q,left,6069080565375bb41ee01993,001,2021-07-29_03h03.42.132,arrow_simon_norep,2021.1.2,Win32,59.99880002,,,,,,,,,,,,,,,,,,,,,q,1,1.9356,20,TRUE,FALSE,4,3,19,2,1,,,,,,,
,,,,,,0,2.290334241,#a3d0fb,,right_blue.png,o,,,,,,o,right_blue.png,right_orange.png,p,left,6069080565375bb41ee01993,001,2021-07-29_03h03.42.132,arrow_simon_norep,2021.1.2,Win32,59.99880002,,,,,,,,,,,,,,,,,,,,,o,1,1.7886,21,TRUE,FALSE,5,0,20,0,1,,,,,,,
,,,,,,0,2.043970574,#f3af84,,left_orange.png,q,,,,,,w,left_blue.png,left_orange.png,q,left,6069080565375bb41ee01993,001,2021-07-29_03h03.42.132,arrow_simon_norep,2021.1.2,Win32,59.99880002,,,,,,,,,,,,,,,,,,,,,q,1,1.5285,22,FALSE,FALSE,5,1,21,2,1,,,,,,,
,,,,,,0,2.315325802,#a3d0fb,,left_blue.png,w,,,,,,w,left_blue.png,left_orange.png,q,left,6069080565375bb41ee01993,001,2021-07-29_03h03.42.132,arrow_simon_norep,2021.1.2,Win32,59.99880002,,,,,,,,,,,,,,,,,,,,,w,1,1.9052,23,TRUE,FALSE,5,2,22,2,1,,,,,,,
,,,,,,0,2.219999832,#f3af84,,left_orange.png,q,,,,,,w,left_blue.png,left_orange.png,q,right,6069080565375bb41ee01993,001,2021-07-29_03h03.42.132,arrow_simon_norep,2021.1.2,Win32,59.99880002,,,,,,,,,,,,,,,,,,,,,p,0,1.9645,24,TRUE,FALSE,5,3,23,3,1,,,,,,,
,,,,,,0,1.764726017,#a3d0fb,,right_blue.png,o,,,,,,o,right_blue.png,right_orange.png,p,right,6069080565375bb41ee01993,001,2021-07-29_03h03.42.132,arrow_simon_norep,2021.1.2,Win32,59.99880002,,,,,,,,,,,,,,,,,,,,,o,1,1.4872,25,FALSE,FALSE,6,0,24,1,1,,,,,,,
,,,,,,0,2.035786536,#f3af84,,left_orange.png,q,,,,,,w,left_blue.png,left_orange.png,q,right,6069080565375bb41ee01993,001,2021-07-29_03h03.42.132,arrow_simon_norep,2021.1.2,Win32,59.99880002,,,,,,,,,,,,,,,,,,,,,w,0,1.6814,26,TRUE,FALSE,6,1,25,3,1,,,,,,,
,,,,,,0,1.510244952,#a3d0fb,,left_blue.png,w,,,,,,w,left_blue.png,left_orange.png,q,right,6069080565375bb41ee01993,001,2021-07-29_03h03.42.132,arrow_simon_norep,2021.1.2,Win32,59.99880002,,,,,,,,,,,,,,,,,,,,,w,1,1.1929,27,FALSE,TRUE,6,2,26,3,1,,,,,,,
,,,,,,0,1.682666589,#f3af84,,right_orange.png,p,,,,,,o,right_blue.png,right_orange.png,p,right,6069080565375bb41ee01993,001,2021-07-29_03h03.42.132,arrow_simon_norep,2021.1.2,Win32,59.99880002,,,,,,,,,,,,,,,,,,,,,p,1,1.2562,28,FALSE,TRUE,6,3,27,1,1,,,,,,,
,,,,,,0,1.885433437,#a3d0fb,,right_blue.png,o,,,,,,o,right_blue.png,right_orange.png,p,right,6069080565375bb41ee01993,001,2021-07-29_03h03.42.132,arrow_simon_norep,2021.1.2,Win32,59.99880002,,,,,,,,,,,,,,,,,,,,,o,1,1.5311,29,FALSE,FALSE,7,0,28,1,1,,,,,,,
,,,,,,0,1.971025214,#f3af84,,right_orange.png,p,,,,,,o,right_blue.png,right_orange.png,p,right,6069080565375bb41ee01993,001,2021-07-29_03h03.42.132,arrow_simon_norep,2021.1.2,Win32,59.99880002,,,,,,,,,,,,,,,,,,,,,p,1,1.3755,30,FALSE,TRUE,7,1,29,1,1,,,,,,,
,,,,,,1,1.912460996,#a3d0fb,,left_blue.png,w,,,,,,w,left_blue.png,left_orange.png,q,right,6069080565375bb41ee01993,001,2021-07-29_03h03.42.132,arrow_simon_norep,2021.1.2,Win32,59.99880002,,,,,,,,,,,,,,,,,,,,,o,0,1.4154,31,FALSE,FALSE,7,2,30,3,1,,,,,,,
,,,,,,1,1.653988163,#f3af84,,left_orange.png,q,,,,,,w,left_blue.png,left_orange.png,q,right,6069080565375bb41ee01993,001,2021-07-29_03h03.42.132,arrow_simon_norep,2021.1.2,Win32,59.99880002,,,,,,,,,,,,,,,,,,,,,w,0,1.2367,32,FALSE,TRUE,7,3,31,3,1,,,,,,,
,,,,,,1,2.185355063,#a3d0fb,,right_blue.png,o,,,,,,o,right_blue.png,right_orange.png,p,right,6069080565375bb41ee01993,001,2021-07-29_03h03.42.132,arrow_simon_norep,2021.1.2,Win32,59.99880002,,,,,,,,,,,,,,,,,,,,,o,1,1.7769,33,TRUE,FALSE,8,0,32,1,1,,,,,,,
,,,,,,1,2.12893241,#f3af84,,right_orange.png,p,,,,,,o,right_blue.png,right_orange.png,p,left,6069080565375bb41ee01993,001,2021-07-29_03h03.42.132,arrow_simon_norep,2021.1.2,Win32,59.99880002,,,,,,,,,,,,,,,,,,,,,p,1,1.7512,34,TRUE,FALSE,8,1,33,0,1,,,,,,,
,,,,,,1,2.10611838,#a3d0fb,,left_blue.png,w,,,,,,w,left_blue.png,left_orange.png,q,right,6069080565375bb41ee01993,001,2021-07-29_03h03.42.132,arrow_simon_norep,2021.1.2,Win32,59.99880002,,,,,,,,,,,,,,,,,,,,,w,1,1.7421,35,TRUE,FALSE,8,2,34,3,1,,,,,,,
,,,,,,0,1.983585106,#f3af84,,left_orange.png,q,,,,,,w,left_blue.png,left_orange.png,q,left,6069080565375bb41ee01993,001,2021-07-29_03h03.42.132,arrow_simon_norep,2021.1.2,Win32,59.99880002,,,,,,,,,,,,,,,,,,,,,q,1,1.4516,36,FALSE,FALSE,8,3,35,2,1,,,,,,,
,,,,,,0,1.860512245,#a3d0fb,,right_blue.png,o,,,,,,o,right_blue.png,right_orange.png,p,left,6069080565375bb41ee01993,001,2021-07-29_03h03.42.132,arrow_simon_norep,2021.1.2,Win32,59.99880002,,,,,,,,,,,,,,,,,,,,,o,1,1.5645,37,FALSE,FALSE,9,0,36,0,1,,,,,,,
,,,,,,0,1.721557591,#f3af84,,left_orange.png,q,,,,,,w,left_blue.png,left_orange.png,q,right,6069080565375bb41ee01993,001,2021-07-29_03h03.42.132,arrow_simon_norep,2021.1.2,Win32,59.99880002,,,,,,,,,,,,,,,,,,,,,p,0,1.3329,38,FALSE,TRUE,9,1,37,3,1,,,,,,,
,,,,,,0,1.850449551,#a3d0fb,,left_blue.png,w,,,,,,w,left_blue.png,left_orange.png,q,right,6069080565375bb41ee01993,001,2021-07-29_03h03.42.132,arrow_simon_norep,2021.1.2,Win32,59.99880002,,,,,,,,,,,,,,,,,,,,,w,1,1.5007,39,FALSE,FALSE,9,2,38,3,1,,,,,,,
,,,,,,0,2.479356282,#f3af84,,left_orange.png,q,,,,,,w,left_blue.png,left_orange.png,q,right,6069080565375bb41ee01993,001,2021-07-29_03h03.42.132,arrow_simon_norep,2021.1.2,Win32,59.99880002,,,,,,,,,,,,,,,,,,,,,q,1,1.8175,40,TRUE,FALSE,9,3,39,3,1,,,,,,,
,,,,,,0,1.781124609,#a3d0fb,,right_blue.png,o,,,,,,o,right_blue.png,right_orange.png,p,right,6069080565375bb41ee01993,001,2021-07-29_03h03.42.132,arrow_simon_norep,2021.1.2,Win32,59.99880002,,,,,,,,,,,,,,,,,,,,,o,1,1.3439,41,FALSE,TRUE,10,0,40,1,1,,,,,,,
,,,,,,0,2.090736911,#f3af84,,left_orange.png,q,,,,,,w,left_blue.png,left_orange.png,q,left,6069080565375bb41ee01993,001,2021-07-29_03h03.42.132,arrow_simon_norep,2021.1.2,Win32,59.99880002,,,,,,,,,,,,,,,,,,,,,q,1,1.6381,42,TRUE,FALSE,10,1,41,2,1,,,,,,,
,,,,,,0,2.241718158,#a3d0fb,,right_blue.png,o,,,,,,o,right_blue.png,right_orange.png,p,right,6069080565375bb41ee01993,001,2021-07-29_03h03.42.132,arrow_simon_norep,2021.1.2,Win32,59.99880002,,,,,,,,,,,,,,,,,,,,,o,1,1.7731,43,TRUE,FALSE,10,2,42,1,1,,,,,,,
,,,,,,0,2.292721245,#f3af84,,left_orange.png,q,,,,,,w,left_blue.png,left_orange.png,q,left,6069080565375bb41ee01993,001,2021-07-29_03h03.42.132,arrow_simon_norep,2021.1.2,Win32,59.99880002,,,,,,,,,,,,,,,,,,,,,q,1,1.7594,44,TRUE,FALSE,10,3,43,2,1,,,,,,,
,,,,,,0,2.391015801,#a3d0fb,,right_blue.png,o,,,,,,o,right_blue.png,right_orange.png,p,right,6069080565375bb41ee01993,001,2021-07-29_03h03.42.132,arrow_simon_norep,2021.1.2,Win32,59.99880002,,,,,,,,,,,,,,,,,,,,,o,1,1.7593,45,TRUE,FALSE,11,0,44,1,1,,,,,,,
,,,,,,0,1.852906312,#f3af84,,left_orange.png,q,,,,,,w,left_blue.png,left_orange.png,q,left,6069080565375bb41ee01993,001,2021-07-29_03h03.42.132,arrow_simon_norep,2021.1.2,Win32,59.99880002,,,,,,,,,,,,,,,,,,,,,q,1,1.5308,46,FALSE,FALSE,11,1,45,2,1,,,,,,,
,,,,,,0,1.878049685,#a3d0fb,,right_blue.png,o,,,,,,o,right_blue.png,right_orange.png,p,left,6069080565375bb41ee01993,001,2021-07-29_03h03.42.132,arrow_simon_norep,2021.1.2,Win32,59.99880002,,,,,,,,,,,,,,,,,,,,,o,1,1.7396,47,TRUE,FALSE,11,2,46,0,1,,,,,,,
,,,,,,0,2.338254482,#f3af84,,left_orange.png,q,,,,,,w,left_blue.png,left_orange.png,q,right,6069080565375bb41ee01993,001,2021-07-29_03h03.42.132,arrow_simon_norep,2021.1.2,Win32,59.99880002,,,,,,,,,,,,,,,,,,,,,p,0,1.6056,48,TRUE,FALSE,11,3,47,3,1,,,,,,,
,,,,,,0,1.654724309,#a3d0fb,,right_blue.png,o,,,,,,o,right_blue.png,right_orange.png,p,left,6069080565375bb41ee01993,001,2021-07-29_03h03.42.132,arrow_simon_norep,2021.1.2,Win32,59.99880002,,,,,,,,,,,,,,,,,,,,,o,1,1.2187,49,FALSE,TRUE,12,0,48,0,1,,,,,,,
,,,,,,0,2.292343466,#f3af84,,left_orange.png,q,,,,,,w,left_blue.png,left_orange.png,q,right,6069080565375bb41ee01993,001,2021-07-29_03h03.42.132,arrow_simon_norep,2021.1.2,Win32,59.99880002,,,,,,,,,,,,,,,,,,,,,q,1,1.684,50,TRUE,FALSE,12,1,49,3,1,,,,,,,
,,,,,,0,2.223153708,#a3d0fb,,right_blue.png,o,,,,,,o,right_blue.png,right_orange.png,p,left,6069080565375bb41ee01993,001,2021-07-29_03h03.42.132,arrow_simon_norep,2021.1.2,Win32,59.99880002,,,,,,,,,,,,,,,,,,,,,o,1,1.6724,51,TRUE,FALSE,12,2,50,0,1,,,,,,,
,,,,,,0,1.614986868,#f3af84,,left_orange.png,q,,,,,,w,left_blue.png,left_orange.png,q,left,6069080565375bb41ee01993,001,2021-07-29_03h03.42.132,arrow_simon_norep,2021.1.2,Win32,59.99880002,,,,,,,,,,,,,,,,,,,,,q,1,1.0691,52,FALSE,TRUE,12,3,51,2,1,,,,,,,
,,,,,,0,1.749606288,#a3d0fb,,left_blue.png,w,,,,,,w,left_blue.png,left_orange.png,q,left,6069080565375bb41ee01993,001,2021-07-29_03h03.42.132,arrow_simon_norep,2021.1.2,Win32,59.99880002,,,,,,,,,,,,,,,,,,,,,w,1,1.6167,53,TRUE,FALSE,13,0,52,2,1,,,,,,,
,,,,,,0,1.721236223,#f3af84,,left_orange.png,q,,,,,,w,left_blue.png,left_orange.png,q,right,6069080565375bb41ee01993,001,2021-07-29_03h03.42.132,arrow_simon_norep,2021.1.2,Win32,59.99880002,,,,,,,,,,,,,,,,,,,,,q,1,1.5333,54,FALSE,FALSE,13,1,53,3,1,,,,,,,
,,,,,,0,1.954304171,#a3d0fb,,right_blue.png,o,,,,,,o,right_blue.png,right_orange.png,p,right,6069080565375bb41ee01993,001,2021-07-29_03h03.42.132,arrow_simon_norep,2021.1.2,Win32,59.99880002,,,,,,,,,,,,,,,,,,,,,o,1,1.4171,55,FALSE,FALSE,13,2,54,1,1,,,,,,,
,,,,,,1,2.222344775,#f3af84,,right_orange.png,p,,,,,,o,right_blue.png,right_orange.png,p,left,6069080565375bb41ee01993,001,2021-07-29_03h03.42.132,arrow_simon_norep,2021.1.2,Win32,59.99880002,,,,,,,,,,,,,,,,,,,,,q,0,1.5373,56,FALSE,FALSE,13,3,55,0,1,,,,,,,
,,,,,,1,1.65203401,#a3d0fb,,left_blue.png,w,,,,,,w,left_blue.png,left_orange.png,q,left,6069080565375bb41ee01993,001,2021-07-29_03h03.42.132,arrow_simon_norep,2021.1.2,Win32,59.99880002,,,,,,,,,,,,,,,,,,,,,o,0,1.5044,57,FALSE,FALSE,14,0,56,2,1,,,,,,,
,,,,,,1,2.179256475,#f3af84,,right_orange.png,p,,,,,,o,right_blue.png,right_orange.png,p,left,6069080565375bb41ee01993,001,2021-07-29_03h03.42.132,arrow_simon_norep,2021.1.2,Win32,59.99880002,,,,,,,,,,,,,,,,,,,,,p,1,1.7225,58,TRUE,FALSE,14,1,57,0,1,,,,,,,
,,,,,,1,1.592698178,#a3d0fb,,left_blue.png,w,,,,,,w,left_blue.png,left_orange.png,q,left,6069080565375bb41ee01993,001,2021-07-29_03h03.42.132,arrow_simon_norep,2021.1.2,Win32,59.99880002,,,,,,,,,,,,,,,,,,,,,w,1,1.2171,59,FALSE,TRUE,14,2,58,2,1,,,,,,,
,,,,,,1,1.931543871,#f3af84,,left_orange.png,q,,,,,,w,left_blue.png,left_orange.png,q,right,6069080565375bb41ee01993,001,2021-07-29_03h03.42.132,arrow_simon_norep,2021.1.2,Win32,59.99880002,,,,,,,,,,,,,,,,,,,,,q,1,1.6048,60,TRUE,FALSE,14,3,59,3,1,,,,,,,
,,,,,,,,,,,,,,,,,,,,,,6069080565375bb41ee01993,001,2021-07-29_03h03.42.132,arrow_simon_norep,2021.1.2,Win32,59.99880002,,,,,,,,,,,,,,,,,,,,,,,,,,,,,,,,space,11.7006,2,0,2,0,1
,,,,,,1,2.201479612,#a3d0fb,,left_blue.png,w,,,,,,w,left_blue.png,left_orange.png,q,right,6069080565375bb41ee01993,001,2021-07-29_03h03.42.132,arrow_simon_norep,2021.1.2,Win32,59.99880002,,,,,,,,,,,,,,,,,,,,,o,0,1.6606,1,TRUE,FALSE,0,0,0,3,1,,,,,,,
,,,,,,1,2.443189912,#f3af84,,right_orange.png,p,,,,,,o,right_blue.png,right_orange.png,p,left,6069080565375bb41ee01993,001,2021-07-29_03h03.42.132,arrow_simon_norep,2021.1.2,Win32,59.99880002,,,,,,,,,,,,,,,,,,,,,p,1,1.9335,2,TRUE,FALSE,0,1,1,0,1,,,,,,,
,,,,,,0,1.943584376,#a3d0fb,,left_blue.png,w,,,,,,w,left_blue.png,left_orange.png,q,left,6069080565375bb41ee01993,001,2021-07-29_03h03.42.132,arrow_simon_norep,2021.1.2,Win32,59.99880002,,,,,,,,,,,,,,,,,,,,,w,1,1.5662,3,FALSE,FALSE,0,2,2,2,1,,,,,,,
,,,,,,0,2.081805974,#f3af84,,right_orange.png,p,,,,,,o,right_blue.png,right_orange.png,p,right,6069080565375bb41ee01993,001,2021-07-29_03h03.42.132,arrow_simon_norep,2021.1.2,Win32,59.99880002,,,,,,,,,,,,,,,,,,,,,p,1,1.7616,4,TRUE,FALSE,0,3,3,1,1,,,,,,,
,,,,,,0,2.409986176,#a3d0fb,,left_blue.png,w,,,,,,w,left_blue.png,left_orange.png,q,left,6069080565375bb41ee01993,001,2021-07-29_03h03.42.132,arrow_simon_norep,2021.1.2,Win32,59.99880002,,,,,,,,,,,,,,,,,,,,,w,1,1.8104,5,TRUE,FALSE,1,0,4,2,1,,,,,,,
,,,,,,0,2.263599312,#f3af84,,right_orange.png,p,,,,,,o,right_blue.png,right_orange.png,p,right,6069080565375bb41ee01993,001,2021-07-29_03h03.42.132,arrow_simon_norep,2021.1.2,Win32,59.99880002,,,,,,,,,,,,,,,,,,,,,p,1,1.7107,6,TRUE,FALSE,1,1,5,1,1,,,,,,,
,,,,,,0,1.77693728,#a3d0fb,,left_blue.png,w,,,,,,w,left_blue.png,left_orange.png,q,right,6069080565375bb41ee01993,001,2021-07-29_03h03.42.132,arrow_simon_norep,2021.1.2,Win32,59.99880002,,,,,,,,,,,,,,,,,,,,,o,0,1.0842,7,FALSE,TRUE,1,2,6,3,1,,,,,,,
,,,,,,0,1.904687294,#f3af84,,right_orange.png,p,,,,,,o,right_blue.png,right_orange.png,p,left,6069080565375bb41ee01993,001,2021-07-29_03h03.42.132,arrow_simon_norep,2021.1.2,Win32,59.99880002,,,,,,,,,,,,,,,,,,,,,p,1,1.4003,8,FALSE,FALSE,1,3,7,0,1,,,,,,,
,,,,,,0,1.634740484,#a3d0fb,,right_blue.png,o,,,,,,o,right_blue.png,right_orange.png,p,left,6069080565375bb41ee01993,001,2021-07-29_03h03.42.132,arrow_simon_norep,2021.1.2,Win32,59.99880002,,,,,,,,,,,,,,,,,,,,,w,0,0.7351,9,FALSE,TRUE,2,0,8,0,1,,,,,,,
,,,,,,0,2.060057619,#f3af84,,right_orange.png,p,,,,,,o,right_blue.png,right_orange.png,p,left,6069080565375bb41ee01993,001,2021-07-29_03h03.42.132,arrow_simon_norep,2021.1.2,Win32,59.99880002,,,,,,,,,,,,,,,,,,,,,q,0,1.209,10,FALSE,TRUE,2,1,9,0,1,,,,,,,
,,,,,,0,2.004029408,#a3d0fb,,right_blue.png,o,,,,,,o,right_blue.png,right_orange.png,p,left,6069080565375bb41ee01993,001,2021-07-29_03h03.42.132,arrow_simon_norep,2021.1.2,Win32,59.99880002,,,,,,,,,,,,,,,,,,,,,o,1,1.4258,11,FALSE,FALSE,2,2,10,0,1,,,,,,,
,,,,,,0,1.618656926,#f3af84,,right_orange.png,p,,,,,,o,right_blue.png,right_orange.png,p,left,6069080565375bb41ee01993,001,2021-07-29_03h03.42.132,arrow_simon_norep,2021.1.2,Win32,59.99880002,,,,,,,,,,,,,,,,,,,,,p,1,1.2311,12,FALSE,TRUE,2,3,11,0,1,,,,,,,
,,,,,,0,2.208376783,#a3d0fb,,right_blue.png,o,,,,,,o,right_blue.png,right_orange.png,p,right,6069080565375bb41ee01993,001,2021-07-29_03h03.42.132,arrow_simon_norep,2021.1.2,Win32,59.99880002,,,,,,,,,,,,,,,,,,,,,p,0,1.6935,13,TRUE,FALSE,3,0,12,1,1,,,,,,,
,,,,,,0,2.010747316,#f3af84,,left_orange.png,q,,,,,,w,left_blue.png,left_orange.png,q,left,6069080565375bb41ee01993,001,2021-07-29_03h03.42.132,arrow_simon_norep,2021.1.2,Win32,59.99880002,,,,,,,,,,,,,,,,,,,,,q,1,1.5061,14,FALSE,FALSE,3,1,13,2,1,,,,,,,
,,,,,,0,2.066340754,#a3d0fb,,left_blue.png,w,,,,,,w,left_blue.png,left_orange.png,q,right,6069080565375bb41ee01993,001,2021-07-29_03h03.42.132,arrow_simon_norep,2021.1.2,Win32,59.99880002,,,,,,,,,,,,,,,,,,,,,o,0,1.6537,15,TRUE,FALSE,3,2,14,3,1,,,,,,,
,,,,,,0,1.689962919,#f3af84,,left_orange.png,q,,,,,,w,left_blue.png,left_orange.png,q,right,6069080565375bb41ee01993,001,2021-07-29_03h03.42.132,arrow_simon_norep,2021.1.2,Win32,59.99880002,,,,,,,,,,,,,,,,,,,,,q,1,1.3663,16,FALSE,TRUE,3,3,15,3,1,,,,,,,
,,,,,,0,2.013518783,#a3d0fb,,left_blue.png,w,,,,,,w,left_blue.png,left_orange.png,q,left,6069080565375bb41ee01993,001,2021-07-29_03h03.42.132,arrow_simon_norep,2021.1.2,Win32,59.99880002,,,,,,,,,,,,,,,,,,,,,w,1,1.5262,17,FALSE,FALSE,4,0,16,2,1,,,,,,,
,,,,,,1,2.193804196,#f3af84,,right_orange.png,p,,,,,,o,right_blue.png,right_orange.png,p,left,6069080565375bb41ee01993,001,2021-07-29_03h03.42.132,arrow_simon_norep,2021.1.2,Win32,59.99880002,,,,,,,,,,,,,,,,,,,,,q,0,1.5179,18,FALSE,FALSE,4,1,17,0,1,,,,,,,
,,,,,,1,1.553728396,#a3d0fb,,left_blue.png,w,,,,,,w,left_blue.png,left_orange.png,q,right,6069080565375bb41ee01993,001,2021-07-29_03h03.42.132,arrow_simon_norep,2021.1.2,Win32,59.99880002,,,,,,,,,,,,,,,,,,,,,w,1,1.3474,19,FALSE,TRUE,4,2,18,3,1,,,,,,,
,,,,,,0,1.916280086,#f3af84,,left_orange.png,q,,,,,,w,left_blue.png,left_orange.png,q,right,6069080565375bb41ee01993,001,2021-07-29_03h03.42.132,arrow_simon_norep,2021.1.2,Win32,59.99880002,,,,,,,,,,,,,,,,,,,,,q,1,1.4345,20,FALSE,FALSE,4,3,19,3,1,,,,,,,
,,,,,,0,2.301954527,#a3d0fb,,right_blue.png,o,,,,,,o,right_blue.png,right_orange.png,p,left,6069080565375bb41ee01993,001,2021-07-29_03h03.42.132,arrow_simon_norep,2021.1.2,Win32,59.99880002,,,,,,,,,,,,,,,,,,,,,o,1,1.6048,21,TRUE,FALSE,5,0,20,0,1,,,,,,,
,,,,,,0,1.702215518,#f3af84,,left_orange.png,q,,,,,,w,left_blue.png,left_orange.png,q,left,6069080565375bb41ee01993,001,2021-07-29_03h03.42.132,arrow_simon_norep,2021.1.2,Win32,59.99880002,,,,,,,,,,,,,,,,,,,,,q,1,1.2451,22,FALSE,TRUE,5,1,21,2,1,,,,,,,
,,,,,,0,1.607921455,#a3d0fb,,left_blue.png,w,,,,,,w,left_blue.png,left_orange.png,q,right,6069080565375bb41ee01993,001,2021-07-29_03h03.42.132,arrow_simon_norep,2021.1.2,Win32,59.99880002,,,,,,,,,,,,,,,,,,,,,w,1,1.218,23,FALSE,TRUE,5,2,22,3,1,,,,,,,
,,,,,,0,2.227192793,#f3af84,,left_orange.png,q,,,,,,w,left_blue.png,left_orange.png,q,left,6069080565375bb41ee01993,001,2021-07-29_03h03.42.132,arrow_simon_norep,2021.1.2,Win32,59.99880002,,,,,,,,,,,,,,,,,,,,,q,1,1.6471,24,TRUE,FALSE,5,3,23,2,1,,,,,,,
,,,,,,0,1.889708548,#a3d0fb,,left_blue.png,w,,,,,,w,left_blue.png,left_orange.png,q,left,6069080565375bb41ee01993,001,2021-07-29_03h03.42.132,arrow_simon_norep,2021.1.2,Win32,59.99880002,,,,,,,,,,,,,,,,,,,,,w,1,1.5223,25,FALSE,FALSE,6,0,24,2,1,,,,,,,
,,,,,,0,2.266294917,#f3af84,,right_orange.png,p,,,,,,o,right_blue.png,right_orange.png,p,right,6069080565375bb41ee01993,001,2021-07-29_03h03.42.132,arrow_simon_norep,2021.1.2,Win32,59.99880002,,,,,,,,,,,,,,,,,,,,,o,0,1.7343,26,TRUE,FALSE,6,1,25,1,1,,,,,,,
,,,,,,0,2.093174376,#a3d0fb,,left_blue.png,w,,,,,,w,left_blue.png,left_orange.png,q,right,6069080565375bb41ee01993,001,2021-07-29_03h03.42.132,arrow_simon_norep,2021.1.2,Win32,59.99880002,,,,,,,,,,,,,,,,,,,,,w,1,1.5861,27,FALSE,FALSE,6,2,26,3,1,,,,,,,
,,,,,,0,2.151903897,#f3af84,,right_orange.png,p,,,,,,o,right_blue.png,right_orange.png,p,right,6069080565375bb41ee01993,001,2021-07-29_03h03.42.132,arrow_simon_norep,2021.1.2,Win32,59.99880002,,,,,,,,,,,,,,,,,,,,,p,1,1.5363,28,FALSE,FALSE,6,3,27,1,1,,,,,,,
,,,,,,0,2.134898348,#a3d0fb,,left_blue.png,w,,,,,,w,left_blue.png,left_orange.png,q,left,6069080565375bb41ee01993,001,2021-07-29_03h03.42.132,arrow_simon_norep,2021.1.2,Win32,59.99880002,,,,,,,,,,,,,,,,,,,,,w,1,1.5998,29,FALSE,FALSE,7,0,28,2,1,,,,,,,
,,,,,,0,2.29304887,#f3af84,,left_orange.png,q,,,,,,w,left_blue.png,left_orange.png,q,left,6069080565375bb41ee01993,001,2021-07-29_03h03.42.132,arrow_simon_norep,2021.1.2,Win32,59.99880002,,,,,,,,,,,,,,,,,,,,,p,0,1.3331,30,FALSE,TRUE,7,1,29,2,1,,,,,,,
,,,,,,0,1.528375862,#a3d0fb,,left_blue.png,w,,,,,,w,left_blue.png,left_orange.png,q,left,6069080565375bb41ee01993,001,2021-07-29_03h03.42.132,arrow_simon_norep,2021.1.2,Win32,59.99880002,,,,,,,,,,,,,,,,,,,,,w,1,1.0338,31,FALSE,TRUE,7,2,30,2,1,,,,,,,
,,,,,,0,1.786549861,#f3af84,,right_orange.png,p,,,,,,o,right_blue.png,right_orange.png,p,right,6069080565375bb41ee01993,001,2021-07-29_03h03.42.132,arrow_simon_norep,2021.1.2,Win32,59.99880002,,,,,,,,,,,,,,,,,,,,,p,1,1.3471,32,FALSE,TRUE,7,3,31,1,1,,,,,,,
,,,,,,0,1.719503413,#a3d0fb,,right_blue.png,o,,,,,,o,right_blue.png,right_orange.png,p,left,6069080565375bb41ee01993,001,2021-07-29_03h03.42.132,arrow_simon_norep,2021.1.2,Win32,59.99880002,,,,,,,,,,,,,,,,,,,,,o,1,1.4992,33,FALSE,FALSE,8,0,32,0,1,,,,,,,
,,,,,,0,1.877393151,#f3af84,,left_orange.png,q,,,,,,w,left_blue.png,left_orange.png,q,right,6069080565375bb41ee01993,001,2021-07-29_03h03.42.132,arrow_simon_norep,2021.1.2,Win32,59.99880002,,,,,,,,,,,,,,,,,,,,,q,1,1.5209,34,FALSE,FALSE,8,1,33,3,1,,,,,,,
,,,,,,0,2.021885074,#a3d0fb,,right_blue.png,o,,,,,,o,right_blue.png,right_orange.png,p,right,6069080565375bb41ee01993,001,2021-07-29_03h03.42.132,arrow_simon_norep,2021.1.2,Win32,59.99880002,,,,,,,,,,,,,,,,,,,,,o,1,1.7208,35,TRUE,FALSE,8,2,34,1,1,,,,,,,
,,,,,,0,1.653194674,#f3af84,,left_orange.png,q,,,,,,w,left_blue.png,left_orange.png,q,left,6069080565375bb41ee01993,001,2021-07-29_03h03.42.132,arrow_simon_norep,2021.1.2,Win32,59.99880002,,,,,,,,,,,,,,,,,,,,,q,1,1.1721,36,FALSE,TRUE,8,3,35,2,1,,,,,,,
,,,,,,0,1.999240697,#a3d0fb,,left_blue.png,w,,,,,,w,left_blue.png,left_orange.png,q,left,6069080565375bb41ee01993,001,2021-07-29_03h03.42.132,arrow_simon_norep,2021.1.2,Win32,59.99880002,,,,,,,,,,,,,,,,,,,,,w,1,1.5507,37,FALSE,FALSE,9,0,36,2,1,,,,,,,
,,,,,,0,1.571636618,#f3af84,,right_orange.png,p,,,,,,o,right_blue.png,right_orange.png,p,left,6069080565375bb41ee01993,001,2021-07-29_03h03.42.132,arrow_simon_norep,2021.1.2,Win32,59.99880002,,,,,,,,,,,,,,,,,,,,,p,1,1.1007,38,FALSE,TRUE,9,1,37,0,1,,,,,,,
,,,,,,0,1.617596019,#a3d0fb,,right_blue.png,o,,,,,,o,right_blue.png,right_orange.png,p,right,6069080565375bb41ee01993,001,2021-07-29_03h03.42.132,arrow_simon_norep,2021.1.2,Win32,59.99880002,,,,,,,,,,,,,,,,,,,,,o,1,1.1344,39,FALSE,TRUE,9,2,38,1,1,,,,,,,
,,,,,,0,2.459191058,#f3af84,,left_orange.png,q,,,,,,w,left_blue.png,left_orange.png,q,right,6069080565375bb41ee01993,001,2021-07-29_03h03.42.132,arrow_simon_norep,2021.1.2,Win32,59.99880002,,,,,,,,,,,,,,,,,,,,,q,1,1.9666,40,TRUE,FALSE,9,3,39,3,1,,,,,,,
,,,,,,0,2.23402831,#a3d0fb,,right_blue.png,o,,,,,,o,right_blue.png,right_orange.png,p,left,6069080565375bb41ee01993,001,2021-07-29_03h03.42.132,arrow_simon_norep,2021.1.2,Win32,59.99880002,,,,,,,,,,,,,,,,,,,,,o,1,1.6673,41,TRUE,FALSE,10,0,40,0,1,,,,,,,
,,,,,,0,1.963815161,#f3af84,,right_orange.png,p,,,,,,o,right_blue.png,right_orange.png,p,left,6069080565375bb41ee01993,001,2021-07-29_03h03.42.132,arrow_simon_norep,2021.1.2,Win32,59.99880002,,,,,,,,,,,,,,,,,,,,,p,1,1.4165,42,FALSE,FALSE,10,1,41,0,1,,,,,,,
,,,,,,0,2.202495594,#a3d0fb,,left_blue.png,w,,,,,,w,left_blue.png,left_orange.png,q,right,6069080565375bb41ee01993,001,2021-07-29_03h03.42.132,arrow_simon_norep,2021.1.2,Win32,59.99880002,,,,,,,,,,,,,,,,,,,,,w,1,1.8229,43,TRUE,FALSE,10,2,42,3,1,,,,,,,
,,,,,,0,2.440913547,#f3af84,,right_orange.png,p,,,,,,o,right_blue.png,right_orange.png,p,right,6069080565375bb41ee01993,001,2021-07-29_03h03.42.132,arrow_simon_norep,2021.1.2,Win32,59.99880002,,,,,,,,,,,,,,,,,,,,,p,1,1.8855,44,TRUE,FALSE,10,3,43,1,1,,,,,,,
,,,,,,0,1.782642321,#a3d0fb,,left_blue.png,w,,,,,,w,left_blue.png,left_orange.png,q,right,6069080565375bb41ee01993,001,2021-07-29_03h03.42.132,arrow_simon_norep,2021.1.2,Win32,59.99880002,,,,,,,,,,,,,,,,,,,,,w,1,1.2174,45,FALSE,TRUE,11,0,44,3,1,,,,,,,
,,,,,,0,2.059540803,#f3af84,,left_orange.png,q,,,,,,w,left_blue.png,left_orange.png,q,right,6069080565375bb41ee01993,001,2021-07-29_03h03.42.132,arrow_simon_norep,2021.1.2,Win32,59.99880002,,,,,,,,,,,,,,,,,,,,,q,1,1.6178,46,TRUE,FALSE,11,1,45,3,1,,,,,,,
,,,,,,0,1.804314403,#a3d0fb,,right_blue.png,o,,,,,,o,right_blue.png,right_orange.png,p,right,6069080565375bb41ee01993,001,2021-07-29_03h03.42.132,arrow_simon_norep,2021.1.2,Win32,59.99880002,,,,,,,,,,,,,,,,,,,,,o,1,1.5006,47,FALSE,FALSE,11,2,46,1,1,,,,,,,
,,,,,,0,2.479981846,#f3af84,,right_orange.png,p,,,,,,o,right_blue.png,right_orange.png,p,left,6069080565375bb41ee01993,001,2021-07-29_03h03.42.132,arrow_simon_norep,2021.1.2,Win32,59.99880002,,,,,,,,,,,,,,,,,,,,,p,1,1.8742,48,TRUE,FALSE,11,3,47,0,1,,,,,,,
,,,,,,0,2.054796931,#a3d0fb,,left_blue.png,w,,,,,,w,left_blue.png,left_orange.png,q,right,6069080565375bb41ee01993,001,2021-07-29_03h03.42.132,arrow_simon_norep,2021.1.2,Win32,59.99880002,,,,,,,,,,,,,,,,,,,,,w,1,1.7208,49,TRUE,FALSE,12,0,48,3,1,,,,,,,
,,,,,,0,1.50179695,#f3af84,,right_orange.png,p,,,,,,o,right_blue.png,right_orange.png,p,right,6069080565375bb41ee01993,001,2021-07-29_03h03.42.132,arrow_simon_norep,2021.1.2,Win32,59.99880002,,,,,,,,,,,,,,,,,,,,,p,1,1.0172,50,FALSE,TRUE,12,1,49,1,1,,,,,,,
,,,,,,0,1.919903698,#a3d0fb,,left_blue.png,w,,,,,,w,left_blue.png,left_orange.png,q,left,6069080565375bb41ee01993,001,2021-07-29_03h03.42.132,arrow_simon_norep,2021.1.2,Win32,59.99880002,,,,,,,,,,,,,,,,,,,,,w,1,1.4642,51,FALSE,FALSE,12,2,50,2,1,,,,,,,
