instruct_resp_simon.keys,instruct_resp_simon.corr,instruct_resp_simon.rt,trial_resp_simon.keys,trial_resp_simon.corr,trial_resp_simon.rt,kerr,target_onset,target_color,target_pos,target_file,target_resp,trials_train_simon.thisRepN,trials_train_simon.thisTrialN,trials_train_simon.thisN,trials_train_simon.thisIndex,trials_train_simon.ran,odd_target_resp,odd_target_file,even_target_file,even_target_resp,target_side,participant,session,date,expName,psychopyVersion,OS,frameRate,train_block_note_resp.keys,train_block_note_resp.rt,blocks_train.thisRepN,blocks_train.thisTrialN,blocks_train.thisN,blocks_train.thisIndex,blocks_train.ran,instruct_resp_timing.keys,instruct_resp_timing.corr,instruct_resp_timing.rt,trial_resp_timing.keys,trial_resp_timing.rt,trials_train_timing.thisRepN,trials_train_timing.thisTrialN,trials_train_timing.thisN,trials_train_timing.thisIndex,trials_train_timing.ran,instruct_resp.keys,instruct_resp.corr,instruct_resp.rt,trial_resp.keys,trial_resp.corr,trial_resp.rt,too_slow,too_soon,trials.thisRepN,trials.thisTrialN,trials.thisN,trials.thisIndex,trials.ran,block_note_resp.keys,block_note_resp.rt,blocks.thisRepN,blocks.thisTrialN,blocks.thisN,blocks.thisIndex,blocks.ran
space,0,1.5603,p,0,2.4928,1,0.318397047,#a3d0fb,,right_blue.png,o,0,0,0,1,1,o,right_blue.png,right_orange.png,p,right,60c9eb53daf4abb8c8b2f937,001,2021-07-19_05h56.19.847,arrow_simon_norep,2021.1.2,Win32,60.20469597,,,,,,,,,,,,,,,,,,,,,,,,,,,,,,,,,,,,,
,,,p,1,2.4003,0,0.905103278,#f3af84,,right_orange.png,p,0,1,1,1,1,o,right_blue.png,right_orange.png,p,right,60c9eb53daf4abb8c8b2f937,001,2021-07-19_05h56.19.847,arrow_simon_norep,2021.1.2,Win32,60.20469597,,,,,,,,,,,,,,,,,,,,,,,,,,,,,,,,,,,,,
,,,q,0,2.5173,1,0.708523991,#a3d0fb,,left_blue.png,w,0,2,2,2,1,w,left_blue.png,left_orange.png,q,left,60c9eb53daf4abb8c8b2f937,001,2021-07-19_05h56.19.847,arrow_simon_norep,2021.1.2,Win32,60.20469597,,,,,,,,,,,,,,,,,,,,,,,,,,,,,,,,,,,,,
,,,w,0,1.7006,1,0.35270662,#f3af84,,right_orange.png,p,0,3,3,0,1,o,right_blue.png,right_orange.png,p,left,60c9eb53daf4abb8c8b2f937,001,2021-07-19_05h56.19.847,arrow_simon_norep,2021.1.2,Win32,60.20469597,,,,,,,,,,,,,,,,,,,,,,,,,,,,,,,,,,,,,
,,,q,0,1.2967,1,0.398411989,#a3d0fb,,left_blue.png,w,1,0,4,3,1,w,left_blue.png,left_orange.png,q,right,60c9eb53daf4abb8c8b2f937,001,2021-07-19_05h56.19.847,arrow_simon_norep,2021.1.2,Win32,60.20469597,,,,,,,,,,,,,,,,,,,,,,,,,,,,,,,,,,,,,
,,,q,0,2.5409,1,0.1656189,#f3af84,,right_orange.png,p,1,1,5,0,1,o,right_blue.png,right_orange.png,p,left,60c9eb53daf4abb8c8b2f937,001,2021-07-19_05h56.19.847,arrow_simon_norep,2021.1.2,Win32,60.20469597,,,,,,,,,,,,,,,,,,,,,,,,,,,,,,,,,,,,,
,,,w,1,1.8127,0,0.133839032,#a3d0fb,,left_blue.png,w,1,2,6,2,1,w,left_blue.png,left_orange.png,q,left,60c9eb53daf4abb8c8b2f937,001,2021-07-19_05h56.19.847,arrow_simon_norep,2021.1.2,Win32,60.20469597,,,,,,,,,,,,,,,,,,,,,,,,,,,,,,,,,,,,,
,,,q,1,2.8674,0,0.747953068,#f3af84,,left_orange.png,q,1,3,7,3,1,w,left_blue.png,left_orange.png,q,right,60c9eb53daf4abb8c8b2f937,001,2021-07-19_05h56.19.847,arrow_simon_norep,2021.1.2,Win32,60.20469597,,,,,,,,,,,,,,,,,,,,,,,,,,,,,,,,,,,,,
,,,w,1,2.9506,0,0.560427406,#a3d0fb,,left_blue.png,w,2,0,8,3,1,w,left_blue.png,left_orange.png,q,right,60c9eb53daf4abb8c8b2f937,001,2021-07-19_05h56.19.847,arrow_simon_norep,2021.1.2,Win32,60.20469597,,,,,,,,,,,,,,,,,,,,,,,,,,,,,,,,,,,,,
,,,q,1,1.6361,0,0.820441933,#f3af84,,left_orange.png,q,2,1,9,2,1,w,left_blue.png,left_orange.png,q,left,60c9eb53daf4abb8c8b2f937,001,2021-07-19_05h56.19.847,arrow_simon_norep,2021.1.2,Win32,60.20469597,,,,,,,,,,,,,,,,,,,,,,,,,,,,,,,,,,,,,
,,,o,1,2.3008,0,0.935562572,#a3d0fb,,right_blue.png,o,2,2,10,1,1,o,right_blue.png,right_orange.png,p,right,60c9eb53daf4abb8c8b2f937,001,2021-07-19_05h56.19.847,arrow_simon_norep,2021.1.2,Win32,60.20469597,,,,,,,,,,,,,,,,,,,,,,,,,,,,,,,,,,,,,
,,,p,1,2.07,0,0.191127908,#f3af84,,right_orange.png,p,2,3,11,0,1,o,right_blue.png,right_orange.png,p,left,60c9eb53daf4abb8c8b2f937,001,2021-07-19_05h56.19.847,arrow_simon_norep,2021.1.2,Win32,60.20469597,,,,,,,,,,,,,,,,,,,,,,,,,,,,,,,,,,,,,
,,,o,1,1.1979,0,0.258184512,#a3d0fb,,right_blue.png,o,3,0,12,0,1,o,right_blue.png,right_orange.png,p,left,60c9eb53daf4abb8c8b2f937,001,2021-07-19_05h56.19.847,arrow_simon_norep,2021.1.2,Win32,60.20469597,,,,,,,,,,,,,,,,,,,,,,,,,,,,,,,,,,,,,
,,,q,1,3.07,0,0.427028673,#f3af84,,left_orange.png,q,3,1,13,2,1,w,left_blue.png,left_orange.png,q,left,60c9eb53daf4abb8c8b2f937,001,2021-07-19_05h56.19.847,arrow_simon_norep,2021.1.2,Win32,60.20469597,,,,,,,,,,,,,,,,,,,,,,,,,,,,,,,,,,,,,
,,,o,1,4.2788,0,0.137062379,#a3d0fb,,right_blue.png,o,3,2,14,0,1,o,right_blue.png,right_orange.png,p,left,60c9eb53daf4abb8c8b2f937,001,2021-07-19_05h56.19.847,arrow_simon_norep,2021.1.2,Win32,60.20469597,,,,,,,,,,,,,,,,,,,,,,,,,,,,,,,,,,,,,
,,,q,1,1.967,0,0.483976618,#f3af84,,left_orange.png,q,3,3,15,2,1,w,left_blue.png,left_orange.png,q,left,60c9eb53daf4abb8c8b2f937,001,2021-07-19_05h56.19.847,arrow_simon_norep,2021.1.2,Win32,60.20469597,,,,,,,,,,,,,,,,,,,,,,,,,,,,,,,,,,,,,
,,,w,1,1.6331,0,0.438371559,#a3d0fb,,left_blue.png,w,4,0,16,3,1,w,left_blue.png,left_orange.png,q,right,60c9eb53daf4abb8c8b2f937,001,2021-07-19_05h56.19.847,arrow_simon_norep,2021.1.2,Win32,60.20469597,,,,,,,,,,,,,,,,,,,,,,,,,,,,,,,,,,,,,
,,,q,1,1.3786,0,0.638596314,#f3af84,,left_orange.png,q,4,1,17,2,1,w,left_blue.png,left_orange.png,q,left,60c9eb53daf4abb8c8b2f937,001,2021-07-19_05h56.19.847,arrow_simon_norep,2021.1.2,Win32,60.20469597,,,,,,,,,,,,,,,,,,,,,,,,,,,,,,,,,,,,,
,,,w,1,1.9787,0,0.463526862,#a3d0fb,,left_blue.png,w,4,2,18,2,1,w,left_blue.png,left_orange.png,q,left,60c9eb53daf4abb8c8b2f937,001,2021-07-19_05h56.19.847,arrow_simon_norep,2021.1.2,Win32,60.20469597,,,,,,,,,,,,,,,,,,,,,,,,,,,,,,,,,,,,,
,,,p,1,0.8953,0,0.023896366,#f3af84,,right_orange.png,p,4,3,19,1,1,o,right_blue.png,right_orange.png,p,right,60c9eb53daf4abb8c8b2f937,001,2021-07-19_05h56.19.847,arrow_simon_norep,2021.1.2,Win32,60.20469597,,,,,,,,,,,,,,,,,,,,,,,,,,,,,,,,,,,,,
,,,w,0,1.329,1,0.442214971,#a3d0fb,,right_blue.png,o,5,0,20,0,1,o,right_blue.png,right_orange.png,p,left,60c9eb53daf4abb8c8b2f937,001,2021-07-19_05h56.19.847,arrow_simon_norep,2021.1.2,Win32,60.20469597,,,,,,,,,,,,,,,,,,,,,,,,,,,,,,,,,,,,,
,,,q,1,3.3061,0,0.535564938,#f3af84,,left_orange.png,q,5,1,21,3,1,w,left_blue.png,left_orange.png,q,right,60c9eb53daf4abb8c8b2f937,001,2021-07-19_05h56.19.847,arrow_simon_norep,2021.1.2,Win32,60.20469597,,,,,,,,,,,,,,,,,,,,,,,,,,,,,,,,,,,,,
,,,w,1,1.6673,0,0.03214294,#a3d0fb,,left_blue.png,w,5,2,22,3,1,w,left_blue.png,left_orange.png,q,right,60c9eb53daf4abb8c8b2f937,001,2021-07-19_05h56.19.847,arrow_simon_norep,2021.1.2,Win32,60.20469597,,,,,,,,,,,,,,,,,,,,,,,,,,,,,,,,,,,,,
,,,q,1,1.2863,0,0.717019213,#f3af84,,left_orange.png,q,5,3,23,2,1,w,left_blue.png,left_orange.png,q,left,60c9eb53daf4abb8c8b2f937,001,2021-07-19_05h56.19.847,arrow_simon_norep,2021.1.2,Win32,60.20469597,,,,,,,,,,,,,,,,,,,,,,,,,,,,,,,,,,,,,
,,,q,0,1.2862,1,0.369351455,#a3d0fb,,left_blue.png,w,6,0,24,2,1,w,left_blue.png,left_orange.png,q,left,60c9eb53daf4abb8c8b2f937,001,2021-07-19_05h56.19.847,arrow_simon_norep,2021.1.2,Win32,60.20469597,,,,,,,,,,,,,,,,,,,,,,,,,,,,,,,,,,,,,
,,,p,1,2.1269,0,0.433219324,#f3af84,,right_orange.png,p,6,1,25,1,1,o,right_blue.png,right_orange.png,p,right,60c9eb53daf4abb8c8b2f937,001,2021-07-19_05h56.19.847,arrow_simon_norep,2021.1.2,Win32,60.20469597,,,,,,,,,,,,,,,,,,,,,,,,,,,,,,,,,,,,,
,,,w,1,2.6677,0,0.494315857,#a3d0fb,,left_blue.png,w,6,2,26,2,1,w,left_blue.png,left_orange.png,q,left,60c9eb53daf4abb8c8b2f937,001,2021-07-19_05h56.19.847,arrow_simon_norep,2021.1.2,Win32,60.20469597,,,,,,,,,,,,,,,,,,,,,,,,,,,,,,,,,,,,,
,,,o,0,2.3771,1,0.51672633,#f3af84,,left_orange.png,q,6,3,27,3,1,w,left_blue.png,left_orange.png,q,right,60c9eb53daf4abb8c8b2f937,001,2021-07-19_05h56.19.847,arrow_simon_norep,2021.1.2,Win32,60.20469597,,,,,,,,,,,,,,,,,,,,,,,,,,,,,,,,,,,,,
,,,o,1,2.0732,0,0.177224504,#a3d0fb,,right_blue.png,o,7,0,28,0,1,o,right_blue.png,right_orange.png,p,left,60c9eb53daf4abb8c8b2f937,001,2021-07-19_05h56.19.847,arrow_simon_norep,2021.1.2,Win32,60.20469597,,,,,,,,,,,,,,,,,,,,,,,,,,,,,,,,,,,,,
,,,p,1,1.4744,0,0.517200315,#f3af84,,right_orange.png,p,7,1,29,1,1,o,right_blue.png,right_orange.png,p,right,60c9eb53daf4abb8c8b2f937,001,2021-07-19_05h56.19.847,arrow_simon_norep,2021.1.2,Win32,60.20469597,,,,,,,,,,,,,,,,,,,,,,,,,,,,,,,,,,,,,
,,,w,1,1.8497,0,0.77860517,#a3d0fb,,left_blue.png,w,7,2,30,3,1,w,left_blue.png,left_orange.png,q,right,60c9eb53daf4abb8c8b2f937,001,2021-07-19_05h56.19.847,arrow_simon_norep,2021.1.2,Win32,60.20469597,,,,,,,,,,,,,,,,,,,,,,,,,,,,,,,,,,,,,
,,,q,1,0.9911,0,0.1635568,#f3af84,,left_orange.png,q,7,3,31,3,1,w,left_blue.png,left_orange.png,q,right,60c9eb53daf4abb8c8b2f937,001,2021-07-19_05h56.19.847,arrow_simon_norep,2021.1.2,Win32,60.20469597,,,,,,,,,,,,,,,,,,,,,,,,,,,,,,,,,,,,,
,,,o,1,2.3477,0,0.663164776,#a3d0fb,,right_blue.png,o,8,0,32,1,1,o,right_blue.png,right_orange.png,p,right,60c9eb53daf4abb8c8b2f937,001,2021-07-19_05h56.19.847,arrow_simon_norep,2021.1.2,Win32,60.20469597,,,,,,,,,,,,,,,,,,,,,,,,,,,,,,,,,,,,,
,,,p,1,2.0855,0,0.556661034,#f3af84,,right_orange.png,p,8,1,33,0,1,o,right_blue.png,right_orange.png,p,left,60c9eb53daf4abb8c8b2f937,001,2021-07-19_05h56.19.847,arrow_simon_norep,2021.1.2,Win32,60.20469597,,,,,,,,,,,,,,,,,,,,,,,,,,,,,,,,,,,,,
,,,q,0,1.7423,1,0.510144147,#a3d0fb,,left_blue.png,w,8,2,34,3,1,w,left_blue.png,left_orange.png,q,right,60c9eb53daf4abb8c8b2f937,001,2021-07-19_05h56.19.847,arrow_simon_norep,2021.1.2,Win32,60.20469597,,,,,,,,,,,,,,,,,,,,,,,,,,,,,,,,,,,,,
,,,p,1,2.7174,0,0.77862412,#f3af84,,right_orange.png,p,8,3,35,0,1,o,right_blue.png,right_orange.png,p,left,60c9eb53daf4abb8c8b2f937,001,2021-07-19_05h56.19.847,arrow_simon_norep,2021.1.2,Win32,60.20469597,,,,,,,,,,,,,,,,,,,,,,,,,,,,,,,,,,,,,
,,,o,1,1.7422,0,0.917456073,#a3d0fb,,right_blue.png,o,9,0,36,0,1,o,right_blue.png,right_orange.png,p,left,60c9eb53daf4abb8c8b2f937,001,2021-07-19_05h56.19.847,arrow_simon_norep,2021.1.2,Win32,60.20469597,,,,,,,,,,,,,,,,,,,,,,,,,,,,,,,,,,,,,
,,,p,1,1.5919,0,0.891269983,#f3af84,,right_orange.png,p,9,1,37,0,1,o,right_blue.png,right_orange.png,p,left,60c9eb53daf4abb8c8b2f937,001,2021-07-19_05h56.19.847,arrow_simon_norep,2021.1.2,Win32,60.20469597,,,,,,,,,,,,,,,,,,,,,,,,,,,,,,,,,,,,,
,,,w,1,2.0264,0,0.853317993,#a3d0fb,,left_blue.png,w,9,2,38,2,1,w,left_blue.png,left_orange.png,q,left,60c9eb53daf4abb8c8b2f937,001,2021-07-19_05h56.19.847,arrow_simon_norep,2021.1.2,Win32,60.20469597,,,,,,,,,,,,,,,,,,,,,,,,,,,,,,,,,,,,,
,,,q,1,0.8767,0,0.007314844,#f3af84,,left_orange.png,q,9,3,39,2,1,w,left_blue.png,left_orange.png,q,left,60c9eb53daf4abb8c8b2f937,001,2021-07-19_05h56.19.847,arrow_simon_norep,2021.1.2,Win32,60.20469597,,,,,,,,,,,,,,,,,,,,,,,,,,,,,,,,,,,,,
,,,o,1,1.6564,0,0.875007736,#a3d0fb,,right_blue.png,o,10,0,40,1,1,o,right_blue.png,right_orange.png,p,right,60c9eb53daf4abb8c8b2f937,001,2021-07-19_05h56.19.847,arrow_simon_norep,2021.1.2,Win32,60.20469597,,,,,,,,,,,,,,,,,,,,,,,,,,,,,,,,,,,,,
,,,q,1,1.663,0,0.337989726,#f3af84,,left_orange.png,q,10,1,41,3,1,w,left_blue.png,left_orange.png,q,right,60c9eb53daf4abb8c8b2f937,001,2021-07-19_05h56.19.847,arrow_simon_norep,2021.1.2,Win32,60.20469597,,,,,,,,,,,,,,,,,,,,,,,,,,,,,,,,,,,,,
,,,w,1,2.0931,0,0.872350064,#a3d0fb,,left_blue.png,w,10,2,42,3,1,w,left_blue.png,left_orange.png,q,right,60c9eb53daf4abb8c8b2f937,001,2021-07-19_05h56.19.847,arrow_simon_norep,2021.1.2,Win32,60.20469597,,,,,,,,,,,,,,,,,,,,,,,,,,,,,,,,,,,,,
,,,p,1,1.7277,0,0.981434489,#f3af84,,right_orange.png,p,10,3,43,1,1,o,right_blue.png,right_orange.png,p,right,60c9eb53daf4abb8c8b2f937,001,2021-07-19_05h56.19.847,arrow_simon_norep,2021.1.2,Win32,60.20469597,,,,,,,,,,,,,,,,,,,,,,,,,,,,,,,,,,,,,
,,,q,0,1.2932,1,0.464122756,#a3d0fb,,left_blue.png,w,11,0,44,2,1,w,left_blue.png,left_orange.png,q,left,60c9eb53daf4abb8c8b2f937,001,2021-07-19_05h56.19.847,arrow_simon_norep,2021.1.2,Win32,60.20469597,,,,,,,,,,,,,,,,,,,,,,,,,,,,,,,,,,,,,
,,,p,1,2.6579,0,0.663436934,#f3af84,,right_orange.png,p,11,1,45,1,1,o,right_blue.png,right_orange.png,p,right,60c9eb53daf4abb8c8b2f937,001,2021-07-19_05h56.19.847,arrow_simon_norep,2021.1.2,Win32,60.20469597,,,,,,,,,,,,,,,,,,,,,,,,,,,,,,,,,,,,,
,,,w,0,1.3664,1,0.461291747,#a3d0fb,,right_blue.png,o,11,2,46,0,1,o,right_blue.png,right_orange.png,p,left,60c9eb53daf4abb8c8b2f937,001,2021-07-19_05h56.19.847,arrow_simon_norep,2021.1.2,Win32,60.20469597,,,,,,,,,,,,,,,,,,,,,,,,,,,,,,,,,,,,,
,,,q,1,1.451,0,0.191063125,#f3af84,,left_orange.png,q,11,3,47,2,1,w,left_blue.png,left_orange.png,q,left,60c9eb53daf4abb8c8b2f937,001,2021-07-19_05h56.19.847,arrow_simon_norep,2021.1.2,Win32,60.20469597,,,,,,,,,,,,,,,,,,,,,,,,,,,,,,,,,,,,,
,,,w,0,1.7177,1,0.450364827,#a3d0fb,,right_blue.png,o,12,0,48,0,1,o,right_blue.png,right_orange.png,p,left,60c9eb53daf4abb8c8b2f937,001,2021-07-19_05h56.19.847,arrow_simon_norep,2021.1.2,Win32,60.20469597,,,,,,,,,,,,,,,,,,,,,,,,,,,,,,,,,,,,,
,,,p,1,2.2509,0,0.931736266,#f3af84,,right_orange.png,p,12,1,49,1,1,o,right_blue.png,right_orange.png,p,right,60c9eb53daf4abb8c8b2f937,001,2021-07-19_05h56.19.847,arrow_simon_norep,2021.1.2,Win32,60.20469597,,,,,,,,,,,,,,,,,,,,,,,,,,,,,,,,,,,,,
,,,q,0,2.0871,1,0.446760978,#a3d0fb,,left_blue.png,w,12,2,50,3,1,w,left_blue.png,left_orange.png,q,right,60c9eb53daf4abb8c8b2f937,001,2021-07-19_05h56.19.847,arrow_simon_norep,2021.1.2,Win32,60.20469597,,,,,,,,,,,,,,,,,,,,,,,,,,,,,,,,,,,,,
,,,w,0,1.6858,1,0.598257553,#f3af84,,right_orange.png,p,12,3,51,0,1,o,right_blue.png,right_orange.png,p,left,60c9eb53daf4abb8c8b2f937,001,2021-07-19_05h56.19.847,arrow_simon_norep,2021.1.2,Win32,60.20469597,,,,,,,,,,,,,,,,,,,,,,,,,,,,,,,,,,,,,
,,,o,1,1.0747,0,0.136704597,#a3d0fb,,right_blue.png,o,13,0,52,1,1,o,right_blue.png,right_orange.png,p,right,60c9eb53daf4abb8c8b2f937,001,2021-07-19_05h56.19.847,arrow_simon_norep,2021.1.2,Win32,60.20469597,,,,,,,,,,,,,,,,,,,,,,,,,,,,,,,,,,,,,
,,,p,1,1.72,0,0.449278839,#f3af84,,right_orange.png,p,13,1,53,0,1,o,right_blue.png,right_orange.png,p,left,60c9eb53daf4abb8c8b2f937,001,2021-07-19_05h56.19.847,arrow_simon_norep,2021.1.2,Win32,60.20469597,,,,,,,,,,,,,,,,,,,,,,,,,,,,,,,,,,,,,
,,,o,1,1.5764,0,0.431268816,#a3d0fb,,right_blue.png,o,13,2,54,1,1,o,right_blue.png,right_orange.png,p,right,60c9eb53daf4abb8c8b2f937,001,2021-07-19_05h56.19.847,arrow_simon_norep,2021.1.2,Win32,60.20469597,,,,,,,,,,,,,,,,,,,,,,,,,,,,,,,,,,,,,
,,,q,1,0.9406,0,0.073595784,#f3af84,,left_orange.png,q,13,3,55,3,1,w,left_blue.png,left_orange.png,q,right,60c9eb53daf4abb8c8b2f937,001,2021-07-19_05h56.19.847,arrow_simon_norep,2021.1.2,Win32,60.20469597,,,,,,,,,,,,,,,,,,,,,,,,,,,,,,,,,,,,,
,,,w,1,1.4244,0,0.604938845,#a3d0fb,,left_blue.png,w,14,0,56,3,1,w,left_blue.png,left_orange.png,q,right,60c9eb53daf4abb8c8b2f937,001,2021-07-19_05h56.19.847,arrow_simon_norep,2021.1.2,Win32,60.20469597,,,,,,,,,,,,,,,,,,,,,,,,,,,,,,,,,,,,,
,,,p,1,2.0175,0,0.53512197,#f3af84,,right_orange.png,p,14,1,57,1,1,o,right_blue.png,right_orange.png,p,right,60c9eb53daf4abb8c8b2f937,001,2021-07-19_05h56.19.847,arrow_simon_norep,2021.1.2,Win32,60.20469597,,,,,,,,,,,,,,,,,,,,,,,,,,,,,,,,,,,,,
,,,p,0,1.1507,1,0.551400735,#a3d0fb,,right_blue.png,o,14,2,58,1,1,o,right_blue.png,right_orange.png,p,right,60c9eb53daf4abb8c8b2f937,001,2021-07-19_05h56.19.847,arrow_simon_norep,2021.1.2,Win32,60.20469597,,,,,,,,,,,,,,,,,,,,,,,,,,,,,,,,,,,,,
,,,w,0,1.327,1,0.426215428,#f3af84,,left_orange.png,q,14,3,59,2,1,w,left_blue.png,left_orange.png,q,left,60c9eb53daf4abb8c8b2f937,001,2021-07-19_05h56.19.847,arrow_simon_norep,2021.1.2,Win32,60.20469597,,,,,,,,,,,,,,,,,,,,,,,,,,,,,,,,,,,,,
,,,,,,,,,,,,,,,,,,,,,,60c9eb53daf4abb8c8b2f937,001,2021-07-19_05h56.19.847,arrow_simon_norep,2021.1.2,Win32,60.20469597,space,1.0836,0,0,0,0,1,,,,,,,,,,,,,,,,,,,,,,,,,,,,,,
,,,o,1,2.9005,0,0.87199828,#a3d0fb,,right_blue.png,o,0,0,0,0,1,o,right_blue.png,right_orange.png,p,left,60c9eb53daf4abb8c8b2f937,001,2021-07-19_05h56.19.847,arrow_simon_norep,2021.1.2,Win32,60.20469597,,,,,,,,,,,,,,,,,,,,,,,,,,,,,,,,,,,,,
,,,q,0,1.6509,1,0.587439894,#f3af84,,right_orange.png,p,0,1,1,1,1,o,right_blue.png,right_orange.png,p,right,60c9eb53daf4abb8c8b2f937,001,2021-07-19_05h56.19.847,arrow_simon_norep,2021.1.2,Win32,60.20469597,,,,,,,,,,,,,,,,,,,,,,,,,,,,,,,,,,,,,
,,,o,1,2.129,0,0.883656982,#a3d0fb,,right_blue.png,o,0,2,2,0,1,o,right_blue.png,right_orange.png,p,left,60c9eb53daf4abb8c8b2f937,001,2021-07-19_05h56.19.847,arrow_simon_norep,2021.1.2,Win32,60.20469597,,,,,,,,,,,,,,,,,,,,,,,,,,,,,,,,,,,,,
,,,q,1,2.0397,0,0.929304755,#f3af84,,left_orange.png,q,0,3,3,3,1,w,left_blue.png,left_orange.png,q,right,60c9eb53daf4abb8c8b2f937,001,2021-07-19_05h56.19.847,arrow_simon_norep,2021.1.2,Win32,60.20469597,,,,,,,,,,,,,,,,,,,,,,,,,,,,,,,,,,,,,
,,,w,1,1.8936,0,0.311251829,#a3d0fb,,left_blue.png,w,1,0,4,3,1,w,left_blue.png,left_orange.png,q,right,60c9eb53daf4abb8c8b2f937,001,2021-07-19_05h56.19.847,arrow_simon_norep,2021.1.2,Win32,60.20469597,,,,,,,,,,,,,,,,,,,,,,,,,,,,,,,,,,,,,
,,,p,1,1.5279,0,0.276852984,#f3af84,,right_orange.png,p,1,1,5,0,1,o,right_blue.png,right_orange.png,p,left,60c9eb53daf4abb8c8b2f937,001,2021-07-19_05h56.19.847,arrow_simon_norep,2021.1.2,Win32,60.20469597,,,,,,,,,,,,,,,,,,,,,,,,,,,,,,,,,,,,,
,,,w,1,3.4169,0,0.756617232,#a3d0fb,,left_blue.png,w,1,2,6,3,1,w,left_blue.png,left_orange.png,q,right,60c9eb53daf4abb8c8b2f937,001,2021-07-19_05h56.19.847,arrow_simon_norep,2021.1.2,Win32,60.20469597,,,,,,,,,,,,,,,,,,,,,,,,,,,,,,,,,,,,,
,,,q,0,1.4192,1,0.443047516,#f3af84,,right_orange.png,p,1,3,7,0,1,o,right_blue.png,right_orange.png,p,left,60c9eb53daf4abb8c8b2f937,001,2021-07-19_05h56.19.847,arrow_simon_norep,2021.1.2,Win32,60.20469597,,,,,,,,,,,,,,,,,,,,,,,,,,,,,,,,,,,,,
,,,q,0,1.5715,1,0.668547495,#a3d0fb,,left_blue.png,w,2,0,8,3,1,w,left_blue.png,left_orange.png,q,right,60c9eb53daf4abb8c8b2f937,001,2021-07-19_05h56.19.847,arrow_simon_norep,2021.1.2,Win32,60.20469597,,,,,,,,,,,,,,,,,,,,,,,,,,,,,,,,,,,,,
,,,p,1,2.3503,0,0.541223339,#f3af84,,right_orange.png,p,2,1,9,1,1,o,right_blue.png,right_orange.png,p,right,60c9eb53daf4abb8c8b2f937,001,2021-07-19_05h56.19.847,arrow_simon_norep,2021.1.2,Win32,60.20469597,,,,,,,,,,,,,,,,,,,,,,,,,,,,,,,,,,,,,
,,,p,0,4.2004,1,0.83939333,#a3d0fb,,left_blue.png,w,2,2,10,2,1,w,left_blue.png,left_orange.png,q,left,60c9eb53daf4abb8c8b2f937,001,2021-07-19_05h56.19.847,arrow_simon_norep,2021.1.2,Win32,60.20469597,,,,,,,,,,,,,,,,,,,,,,,,,,,,,,,,,,,,,
,,,o,0,2.3962,1,0.498777124,#f3af84,,right_orange.png,p,2,3,11,1,1,o,right_blue.png,right_orange.png,p,right,60c9eb53daf4abb8c8b2f937,001,2021-07-19_05h56.19.847,arrow_simon_norep,2021.1.2,Win32,60.20469597,,,,,,,,,,,,,,,,,,,,,,,,,,,,,,,,,,,,,
,,,w,0,1.7692,1,0.554864338,#a3d0fb,,right_blue.png,o,3,0,12,0,1,o,right_blue.png,right_orange.png,p,left,60c9eb53daf4abb8c8b2f937,001,2021-07-19_05h56.19.847,arrow_simon_norep,2021.1.2,Win32,60.20469597,,,,,,,,,,,,,,,,,,,,,,,,,,,,,,,,,,,,,
,,,p,1,1.8177,0,0.197267374,#f3af84,,right_orange.png,p,3,1,13,1,1,o,right_blue.png,right_orange.png,p,right,60c9eb53daf4abb8c8b2f937,001,2021-07-19_05h56.19.847,arrow_simon_norep,2021.1.2,Win32,60.20469597,,,,,,,,,,,,,,,,,,,,,,,,,,,,,,,,,,,,,
,,,w,1,2.5677,0,0.876327913,#a3d0fb,,left_blue.png,w,3,2,14,2,1,w,left_blue.png,left_orange.png,q,left,60c9eb53daf4abb8c8b2f937,001,2021-07-19_05h56.19.847,arrow_simon_norep,2021.1.2,Win32,60.20469597,,,,,,,,,,,,,,,,,,,,,,,,,,,,,,,,,,,,,
,,,q,1,1.7676,0,0.677366477,#f3af84,,left_orange.png,q,3,3,15,2,1,w,left_blue.png,left_orange.png,q,left,60c9eb53daf4abb8c8b2f937,001,2021-07-19_05h56.19.847,arrow_simon_norep,2021.1.2,Win32,60.20469597,,,,,,,,,,,,,,,,,,,,,,,,,,,,,,,,,,,,,
,,,o,1,1.537,0,0.391631582,#a3d0fb,,right_blue.png,o,4,0,16,1,1,o,right_blue.png,right_orange.png,p,right,60c9eb53daf4abb8c8b2f937,001,2021-07-19_05h56.19.847,arrow_simon_norep,2021.1.2,Win32,60.20469597,,,,,,,,,,,,,,,,,,,,,,,,,,,,,,,,,,,,,
,,,p,1,0.9124,0,0.2182927,#f3af84,,right_orange.png,p,4,1,17,1,1,o,right_blue.png,right_orange.png,p,right,60c9eb53daf4abb8c8b2f937,001,2021-07-19_05h56.19.847,arrow_simon_norep,2021.1.2,Win32,60.20469597,,,,,,,,,,,,,,,,,,,,,,,,,,,,,,,,,,,,,
,,,w,1,1.867,0,0.687792145,#a3d0fb,,left_blue.png,w,4,2,18,3,1,w,left_blue.png,left_orange.png,q,right,60c9eb53daf4abb8c8b2f937,001,2021-07-19_05h56.19.847,arrow_simon_norep,2021.1.2,Win32,60.20469597,,,,,,,,,,,,,,,,,,,,,,,,,,,,,,,,,,,,,
,,,q,0,1.651,1,0.761597176,#f3af84,,right_orange.png,p,4,3,19,1,1,o,right_blue.png,right_orange.png,p,right,60c9eb53daf4abb8c8b2f937,001,2021-07-19_05h56.19.847,arrow_simon_norep,2021.1.2,Win32,60.20469597,,,,,,,,,,,,,,,,,,,,,,,,,,,,,,,,,,,,,
,,,w,1,10.684,0,0.811319475,#a3d0fb,,left_blue.png,w,5,0,20,2,1,w,left_blue.png,left_orange.png,q,left,60c9eb53daf4abb8c8b2f937,001,2021-07-19_05h56.19.847,arrow_simon_norep,2021.1.2,Win32,60.20469597,,,,,,,,,,,,,,,,,,,,,,,,,,,,,,,,,,,,,
,,,q,1,1.8502,0,0.856916642,#f3af84,,left_orange.png,q,5,1,21,2,1,w,left_blue.png,left_orange.png,q,left,60c9eb53daf4abb8c8b2f937,001,2021-07-19_05h56.19.847,arrow_simon_norep,2021.1.2,Win32,60.20469597,,,,,,,,,,,,,,,,,,,,,,,,,,,,,,,,,,,,,
,,,o,1,2.562,0,0.097754004,#a3d0fb,,right_blue.png,o,5,2,22,0,1,o,right_blue.png,right_orange.png,p,left,60c9eb53daf4abb8c8b2f937,001,2021-07-19_05h56.19.847,arrow_simon_norep,2021.1.2,Win32,60.20469597,,,,,,,,,,,,,,,,,,,,,,,,,,,,,,,,,,,,,
,,,q,1,0.9957,0,0.162278089,#f3af84,,left_orange.png,q,5,3,23,2,1,w,left_blue.png,left_orange.png,q,left,60c9eb53daf4abb8c8b2f937,001,2021-07-19_05h56.19.847,arrow_simon_norep,2021.1.2,Win32,60.20469597,,,,,,,,,,,,,,,,,,,,,,,,,,,,,,,,,,,,,
,,,p,0,1.5058,1,0.798221018,#a3d0fb,,right_blue.png,o,6,0,24,0,1,o,right_blue.png,right_orange.png,p,left,60c9eb53daf4abb8c8b2f937,001,2021-07-19_05h56.19.847,arrow_simon_norep,2021.1.2,Win32,60.20469597,,,,,,,,,,,,,,,,,,,,,,,,,,,,,,,,,,,,,
,,,q,1,1.9443,0,0.751227529,#f3af84,,left_orange.png,q,6,1,25,3,1,w,left_blue.png,left_orange.png,q,right,60c9eb53daf4abb8c8b2f937,001,2021-07-19_05h56.19.847,arrow_simon_norep,2021.1.2,Win32,60.20469597,,,,,,,,,,,,,,,,,,,,,,,,,,,,,,,,,,,,,
,,,q,0,2.2556,1,0.940731243,#a3d0fb,,left_blue.png,w,6,2,26,3,1,w,left_blue.png,left_orange.png,q,right,60c9eb53daf4abb8c8b2f937,001,2021-07-19_05h56.19.847,arrow_simon_norep,2021.1.2,Win32,60.20469597,,,,,,,,,,,,,,,,,,,,,,,,,,,,,,,,,,,,,
,,,p,1,2.5025,0,0.288676725,#f3af84,,right_orange.png,p,6,3,27,0,1,o,right_blue.png,right_orange.png,p,left,60c9eb53daf4abb8c8b2f937,001,2021-07-19_05h56.19.847,arrow_simon_norep,2021.1.2,Win32,60.20469597,,,,,,,,,,,,,,,,,,,,,,,,,,,,,,,,,,,,,
,,,o,1,1.2836,0,0.253893836,#a3d0fb,,right_blue.png,o,7,0,28,1,1,o,right_blue.png,right_orange.png,p,right,60c9eb53daf4abb8c8b2f937,001,2021-07-19_05h56.19.847,arrow_simon_norep,2021.1.2,Win32,60.20469597,,,,,,,,,,,,,,,,,,,,,,,,,,,,,,,,,,,,,
,,,p,1,1.4749,0,0.297497687,#f3af84,,right_orange.png,p,7,1,29,0,1,o,right_blue.png,right_orange.png,p,left,60c9eb53daf4abb8c8b2f937,001,2021-07-19_05h56.19.847,arrow_simon_norep,2021.1.2,Win32,60.20469597,,,,,,,,,,,,,,,,,,,,,,,,,,,,,,,,,,,,,
,,,q,0,1.7553,1,0.994363713,#a3d0fb,,left_blue.png,w,7,2,30,2,1,w,left_blue.png,left_orange.png,q,left,60c9eb53daf4abb8c8b2f937,001,2021-07-19_05h56.19.847,arrow_simon_norep,2021.1.2,Win32,60.20469597,,,,,,,,,,,,,,,,,,,,,,,,,,,,,,,,,,,,,
,,,w,0,1.7172,1,0.540297611,#f3af84,,left_orange.png,q,7,3,31,2,1,w,left_blue.png,left_orange.png,q,left,60c9eb53daf4abb8c8b2f937,001,2021-07-19_05h56.19.847,arrow_simon_norep,2021.1.2,Win32,60.20469597,,,,,,,,,,,,,,,,,,,,,,,,,,,,,,,,,,,,,
,,,o,0,1.921,1,0.910326497,#a3d0fb,,left_blue.png,w,8,0,32,2,1,w,left_blue.png,left_orange.png,q,left,60c9eb53daf4abb8c8b2f937,001,2021-07-19_05h56.19.847,arrow_simon_norep,2021.1.2,Win32,60.20469597,,,,,,,,,,,,,,,,,,,,,,,,,,,,,,,,,,,,,
,,,p,1,2.7031,0,0.830330646,#f3af84,,right_orange.png,p,8,1,33,0,1,o,right_blue.png,right_orange.png,p,left,60c9eb53daf4abb8c8b2f937,001,2021-07-19_05h56.19.847,arrow_simon_norep,2021.1.2,Win32,60.20469597,,,,,,,,,,,,,,,,,,,,,,,,,,,,,,,,,,,,,
,,,w,1,2.7282,0,0.847862017,#a3d0fb,,left_blue.png,w,8,2,34,2,1,w,left_blue.png,left_orange.png,q,left,60c9eb53daf4abb8c8b2f937,001,2021-07-19_05h56.19.847,arrow_simon_norep,2021.1.2,Win32,60.20469597,,,,,,,,,,,,,,,,,,,,,,,,,,,,,,,,,,,,,
,,,q,1,1.919,0,0.340724554,#f3af84,,left_orange.png,q,8,3,35,3,1,w,left_blue.png,left_orange.png,q,right,60c9eb53daf4abb8c8b2f937,001,2021-07-19_05h56.19.847,arrow_simon_norep,2021.1.2,Win32,60.20469597,,,,,,,,,,,,,,,,,,,,,,,,,,,,,,,,,,,,,
,,,p,0,1.818,1,0.843247179,#a3d0fb,,right_blue.png,o,9,0,36,0,1,o,right_blue.png,right_orange.png,p,left,60c9eb53daf4abb8c8b2f937,001,2021-07-19_05h56.19.847,arrow_simon_norep,2021.1.2,Win32,60.20469597,,,,,,,,,,,,,,,,,,,,,,,,,,,,,,,,,,,,,
,,,p,1,1.0691,0,0.42059679,#f3af84,,right_orange.png,p,9,1,37,0,1,o,right_blue.png,right_orange.png,p,left,60c9eb53daf4abb8c8b2f937,001,2021-07-19_05h56.19.847,arrow_simon_norep,2021.1.2,Win32,60.20469597,,,,,,,,,,,,,,,,,,,,,,,,,,,,,,,,,,,,,
,,,o,1,1.3084,0,0.650923619,#a3d0fb,,right_blue.png,o,9,2,38,1,1,o,right_blue.png,right_orange.png,p,right,60c9eb53daf4abb8c8b2f937,001,2021-07-19_05h56.19.847,arrow_simon_norep,2021.1.2,Win32,60.20469597,,,,,,,,,,,,,,,,,,,,,,,,,,,,,,,,,,,,,
,,,w,0,1.3512,1,0.518544925,#f3af84,,left_orange.png,q,9,3,39,3,1,w,left_blue.png,left_orange.png,q,right,60c9eb53daf4abb8c8b2f937,001,2021-07-19_05h56.19.847,arrow_simon_norep,2021.1.2,Win32,60.20469597,,,,,,,,,,,,,,,,,,,,,,,,,,,,,,,,,,,,,
,,,o,1,2.0433,0,0.502033065,#a3d0fb,,right_blue.png,o,10,0,40,0,1,o,right_blue.png,right_orange.png,p,left,60c9eb53daf4abb8c8b2f937,001,2021-07-19_05h56.19.847,arrow_simon_norep,2021.1.2,Win32,60.20469597,,,,,,,,,,,,,,,,,,,,,,,,,,,,,,,,,,,,,
,,,q,1,1.4669,0,0.607610313,#f3af84,,left_orange.png,q,10,1,41,2,1,w,left_blue.png,left_orange.png,q,left,60c9eb53daf4abb8c8b2f937,001,2021-07-19_05h56.19.847,arrow_simon_norep,2021.1.2,Win32,60.20469597,,,,,,,,,,,,,,,,,,,,,,,,,,,,,,,,,,,,,
,,,o,1,1.9969,0,0.504694487,#a3d0fb,,right_blue.png,o,10,2,42,1,1,o,right_blue.png,right_orange.png,p,right,60c9eb53daf4abb8c8b2f937,001,2021-07-19_05h56.19.847,arrow_simon_norep,2021.1.2,Win32,60.20469597,,,,,,,,,,,,,,,,,,,,,,,,,,,,,,,,,,,,,
,,,q,1,1.625,0,0.675452767,#f3af84,,left_orange.png,q,10,3,43,2,1,w,left_blue.png,left_orange.png,q,left,60c9eb53daf4abb8c8b2f937,001,2021-07-19_05h56.19.847,arrow_simon_norep,2021.1.2,Win32,60.20469597,,,,,,,,,,,,,,,,,,,,,,,,,,,,,,,,,,,,,
,,,q,0,1.5682,1,0.552456217,#a3d0fb,,left_blue.png,w,11,0,44,3,1,w,left_blue.png,left_orange.png,q,right,60c9eb53daf4abb8c8b2f937,001,2021-07-19_05h56.19.847,arrow_simon_norep,2021.1.2,Win32,60.20469597,,,,,,,,,,,,,,,,,,,,,,,,,,,,,,,,,,,,,
,,,p,1,2.301,0,0.80490402,#f3af84,,right_orange.png,p,11,1,45,1,1,o,right_blue.png,right_orange.png,p,right,60c9eb53daf4abb8c8b2f937,001,2021-07-19_05h56.19.847,arrow_simon_norep,2021.1.2,Win32,60.20469597,,,,,,,,,,,,,,,,,,,,,,,,,,,,,,,,,,,,,
,,,w,1,1.6062,0,0.145168243,#a3d0fb,,left_blue.png,w,11,2,46,3,1,w,left_blue.png,left_orange.png,q,right,60c9eb53daf4abb8c8b2f937,001,2021-07-19_05h56.19.847,arrow_simon_norep,2021.1.2,Win32,60.20469597,,,,,,,,,,,,,,,,,,,,,,,,,,,,,,,,,,,,,
,,,p,1,2.9067,0,0.213732003,#f3af84,,right_orange.png,p,11,3,47,0,1,o,right_blue.png,right_orange.png,p,left,60c9eb53daf4abb8c8b2f937,001,2021-07-19_05h56.19.847,arrow_simon_norep,2021.1.2,Win32,60.20469597,,,,,,,,,,,,,,,,,,,,,,,,,,,,,,,,,,,,,
,,,w,1,1.9174,0,0.570819533,#a3d0fb,,left_blue.png,w,12,0,48,3,1,w,left_blue.png,left_orange.png,q,right,60c9eb53daf4abb8c8b2f937,001,2021-07-19_05h56.19.847,arrow_simon_norep,2021.1.2,Win32,60.20469597,,,,,,,,,,,,,,,,,,,,,,,,,,,,,,,,,,,,,
,,,q,1,1.3362,0,0.684865851,#f3af84,,left_orange.png,q,12,1,49,2,1,w,left_blue.png,left_orange.png,q,left,60c9eb53daf4abb8c8b2f937,001,2021-07-19_05h56.19.847,arrow_simon_norep,2021.1.2,Win32,60.20469597,,,,,,,,,,,,,,,,,,,,,,,,,,,,,,,,,,,,,
,,,q,0,1.3935,1,0.600806574,#a3d0fb,,left_blue.png,w,12,2,50,3,1,w,left_blue.png,left_orange.png,q,right,60c9eb53daf4abb8c8b2f937,001,2021-07-19_05h56.19.847,arrow_simon_norep,2021.1.2,Win32,60.20469597,,,,,,,,,,,,,,,,,,,,,,,,,,,,,,,,,,,,,
,,,o,0,1.261,1,0.313815172,#f3af84,,right_orange.png,p,12,3,51,1,1,o,right_blue.png,right_orange.png,p,right,60c9eb53daf4abb8c8b2f937,001,2021-07-19_05h56.19.847,arrow_simon_norep,2021.1.2,Win32,60.20469597,,,,,,,,,,,,,,,,,,,,,,,,,,,,,,,,,,,,,
,,,w,1,1.7373,0,0.648167061,#a3d0fb,,left_blue.png,w,13,0,52,3,1,w,left_blue.png,left_orange.png,q,right,60c9eb53daf4abb8c8b2f937,001,2021-07-19_05h56.19.847,arrow_simon_norep,2021.1.2,Win32,60.20469597,,,,,,,,,,,,,,,,,,,,,,,,,,,,,,,,,,,,,
,,,q,1,1.2034,0,0.21982168,#f3af84,,left_orange.png,q,13,1,53,2,1,w,left_blue.png,left_orange.png,q,left,60c9eb53daf4abb8c8b2f937,001,2021-07-19_05h56.19.847,arrow_simon_norep,2021.1.2,Win32,60.20469597,,,,,,,,,,,,,,,,,,,,,,,,,,,,,,,,,,,,,
,,,o,1,1.7843,0,0.575662124,#a3d0fb,,right_blue.png,o,13,2,54,1,1,o,right_blue.png,right_orange.png,p,right,60c9eb53daf4abb8c8b2f937,001,2021-07-19_05h56.19.847,arrow_simon_norep,2021.1.2,Win32,60.20469597,,,,,,,,,,,,,,,,,,,,,,,,,,,,,,,,,,,,,
,,,p,1,1.6671,0,0.668799865,#f3af84,,right_orange.png,p,13,3,55,0,1,o,right_blue.png,right_orange.png,p,left,60c9eb53daf4abb8c8b2f937,001,2021-07-19_05h56.19.847,arrow_simon_norep,2021.1.2,Win32,60.20469597,,,,,,,,,,,,,,,,,,,,,,,,,,,,,,,,,,,,,
,,,w,1,2.9408,0,0.925149074,#a3d0fb,,left_blue.png,w,14,0,56,3,1,w,left_blue.png,left_orange.png,q,right,60c9eb53daf4abb8c8b2f937,001,2021-07-19_05h56.19.847,arrow_simon_norep,2021.1.2,Win32,60.20469597,,,,,,,,,,,,,,,,,,,,,,,,,,,,,,,,,,,,,
,,,p,1,1.5031,0,0.360225493,#f3af84,,right_orange.png,p,14,1,57,1,1,o,right_blue.png,right_orange.png,p,right,60c9eb53daf4abb8c8b2f937,001,2021-07-19_05h56.19.847,arrow_simon_norep,2021.1.2,Win32,60.20469597,,,,,,,,,,,,,,,,,,,,,,,,,,,,,,,,,,,,,
,,,o,1,1.6338,0,0.226034938,#a3d0fb,,right_blue.png,o,14,2,58,1,1,o,right_blue.png,right_orange.png,p,right,60c9eb53daf4abb8c8b2f937,001,2021-07-19_05h56.19.847,arrow_simon_norep,2021.1.2,Win32,60.20469597,,,,,,,,,,,,,,,,,,,,,,,,,,,,,,,,,,,,,
,,,q,1,1.3385,0,0.490243627,#f3af84,,left_orange.png,q,14,3,59,2,1,w,left_blue.png,left_orange.png,q,left,60c9eb53daf4abb8c8b2f937,001,2021-07-19_05h56.19.847,arrow_simon_norep,2021.1.2,Win32,60.20469597,,,,,,,,,,,,,,,,,,,,,,,,,,,,,,,,,,,,,
,,,,,,,,,,,,,,,,,,,,,,60c9eb53daf4abb8c8b2f937,001,2021-07-19_05h56.19.847,arrow_simon_norep,2021.1.2,Win32,60.20469597,space,1.289,1,0,1,0,1,,,,,,,,,,,,,,,,,,,,,,,,,,,,,,
,,,,,,,,,,,,,,,,,,,,,,60c9eb53daf4abb8c8b2f937,001,2021-07-19_05h56.19.847,arrow_simon_norep,2021.1.2,Win32,60.20469597,,,,,,,,space,0,59.7606,o,3.385,0,0,0,0,1,,,,,,,,,,,,,,,,,,,,
,,,,,,,,,,,,,,,,,,,,,,60c9eb53daf4abb8c8b2f937,001,2021-07-19_05h56.19.847,arrow_simon_norep,2021.1.2,Win32,60.20469597,,,,,,,,,,,p,2.3188,1,0,1,0,1,,,,,,,,,,,,,,,,,,,,
,,,,,,,,,,,,,,,,,,,,,,60c9eb53daf4abb8c8b2f937,001,2021-07-19_05h56.19.847,arrow_simon_norep,2021.1.2,Win32,60.20469597,,,,,,,,,,,p,2.7837,2,0,2,0,1,,,,,,,,,,,,,,,,,,,,
,,,,,,,,,,,,,,,,,,,,,,60c9eb53daf4abb8c8b2f937,001,2021-07-19_05h56.19.847,arrow_simon_norep,2021.1.2,Win32,60.20469597,,,,,,,,,,,o,1.8938,3,0,3,0,1,,,,,,,,,,,,,,,,,,,,
,,,,,,,,,,,,,,,,,,,,,,60c9eb53daf4abb8c8b2f937,001,2021-07-19_05h56.19.847,arrow_simon_norep,2021.1.2,Win32,60.20469597,,,,,,,,,,,o,2.4863,4,0,4,0,1,,,,,,,,,,,,,,,,,,,,
,,,,,,,,,,,,,,,,,,,,,,60c9eb53daf4abb8c8b2f937,001,2021-07-19_05h56.19.847,arrow_simon_norep,2021.1.2,Win32,60.20469597,,,,,,,,,,,o,2.3242,5,0,5,0,1,,,,,,,,,,,,,,,,,,,,
,,,,,,,,,,,,,,,,,,,,,,60c9eb53daf4abb8c8b2f937,001,2021-07-19_05h56.19.847,arrow_simon_norep,2021.1.2,Win32,60.20469597,,,,,,,,,,,o,2.668,6,0,6,0,1,,,,,,,,,,,,,,,,,,,,
,,,,,,,,,,,,,,,,,,,,,,60c9eb53daf4abb8c8b2f937,001,2021-07-19_05h56.19.847,arrow_simon_norep,2021.1.2,Win32,60.20469597,,,,,,,,,,,o,2.0693,7,0,7,0,1,,,,,,,,,,,,,,,,,,,,
,,,,,,,,,,,,,,,,,,,,,,60c9eb53daf4abb8c8b2f937,001,2021-07-19_05h56.19.847,arrow_simon_norep,2021.1.2,Win32,60.20469597,,,,,,,,,,,p,2.411,8,0,8,0,1,,,,,,,,,,,,,,,,,,,,
,,,,,,,,,,,,,,,,,,,,,,60c9eb53daf4abb8c8b2f937,001,2021-07-19_05h56.19.847,arrow_simon_norep,2021.1.2,Win32,60.20469597,,,,,,,,,,,w,2.4343,9,0,9,0,1,,,,,,,,,,,,,,,,,,,,
,,,,,,,,,,,,,,,,,,,,,,60c9eb53daf4abb8c8b2f937,001,2021-07-19_05h56.19.847,arrow_simon_norep,2021.1.2,Win32,60.20469597,,,,,,,,,,,w,2.4104,10,0,10,0,1,,,,,,,,,,,,,,,,,,,,
,,,,,,,,,,,,,,,,,,,,,,60c9eb53daf4abb8c8b2f937,001,2021-07-19_05h56.19.847,arrow_simon_norep,2021.1.2,Win32,60.20469597,,,,,,,,,,,w,2.6189,11,0,11,0,1,,,,,,,,,,,,,,,,,,,,
,,,,,,,,,,,,,,,,,,,,,,60c9eb53daf4abb8c8b2f937,001,2021-07-19_05h56.19.847,arrow_simon_norep,2021.1.2,Win32,60.20469597,,,,,,,,,,,o,2.2077,12,0,12,0,1,,,,,,,,,,,,,,,,,,,,
,,,,,,,,,,,,,,,,,,,,,,60c9eb53daf4abb8c8b2f937,001,2021-07-19_05h56.19.847,arrow_simon_norep,2021.1.2,Win32,60.20469597,,,,,,,,,,,o,2.5695,13,0,13,0,1,,,,,,,,,,,,,,,,,,,,
,,,,,,,,,,,,,,,,,,,,,,60c9eb53daf4abb8c8b2f937,001,2021-07-19_05h56.19.847,arrow_simon_norep,2021.1.2,Win32,60.20469597,,,,,,,,,,,p,1.9022,14,0,14,0,1,,,,,,,,,,,,,,,,,,,,
,,,,,,,,,,,,,,,,,,,,,,60c9eb53daf4abb8c8b2f937,001,2021-07-19_05h56.19.847,arrow_simon_norep,2021.1.2,Win32,60.20469597,,,,,,,,,,,p,2.3691,15,0,15,0,1,,,,,,,,,,,,,,,,,,,,
,,,,,,,,,,,,,,,,,,,,,,60c9eb53daf4abb8c8b2f937,001,2021-07-19_05h56.19.847,arrow_simon_norep,2021.1.2,Win32,60.20469597,,,,,,,,,,,o,2.2441,16,0,16,0,1,,,,,,,,,,,,,,,,,,,,
,,,,,,,,,,,,,,,,,,,,,,60c9eb53daf4abb8c8b2f937,001,2021-07-19_05h56.19.847,arrow_simon_norep,2021.1.2,Win32,60.20469597,,,,,,,,,,,o,2.4013,17,0,17,0,1,,,,,,,,,,,,,,,,,,,,
,,,,,,,,,,,,,,,,,,,,,,60c9eb53daf4abb8c8b2f937,001,2021-07-19_05h56.19.847,arrow_simon_norep,2021.1.2,Win32,60.20469597,,,,,,,,,,,o,2.5678,18,0,18,0,1,,,,,,,,,,,,,,,,,,,,
,,,,,,,,,,,,,,,,,,,,,,60c9eb53daf4abb8c8b2f937,001,2021-07-19_05h56.19.847,arrow_simon_norep,2021.1.2,Win32,60.20469597,,,,,,,,,,,o,2.286,19,0,19,0,1,,,,,,,,,,,,,,,,,,,,
,,,,,,,,,,,,,,,,,,,,,,60c9eb53daf4abb8c8b2f937,001,2021-07-19_05h56.19.847,arrow_simon_norep,2021.1.2,Win32,60.20469597,,,,,,,,,,,w,2.7093,20,0,20,0,1,,,,,,,,,,,,,,,,,,,,
,,,,,,,,,,,,,,,,,,,,,,60c9eb53daf4abb8c8b2f937,001,2021-07-19_05h56.19.847,arrow_simon_norep,2021.1.2,Win32,60.20469597,,,,,,,,,,,o,2.5504,21,0,21,0,1,,,,,,,,,,,,,,,,,,,,
,,,,,,,,,,,,,,,,,,,,,,60c9eb53daf4abb8c8b2f937,001,2021-07-19_05h56.19.847,arrow_simon_norep,2021.1.2,Win32,60.20469597,,,,,,,,,,,p,2.6012,22,0,22,0,1,,,,,,,,,,,,,,,,,,,,
,,,,,,,,,,,,,,,,,,,,,,60c9eb53daf4abb8c8b2f937,001,2021-07-19_05h56.19.847,arrow_simon_norep,2021.1.2,Win32,60.20469597,,,,,,,,,,,o,2.6235,23,0,23,0,1,,,,,,,,,,,,,,,,,,,,
,,,,,,,,,,,,,,,,,,,,,,60c9eb53daf4abb8c8b2f937,001,2021-07-19_05h56.19.847,arrow_simon_norep,2021.1.2,Win32,60.20469597,,,,,,,,,,,o,2.3175,24,0,24,0,1,,,,,,,,,,,,,,,,,,,,
,,,,,,,,,,,,,,,,,,,,,,60c9eb53daf4abb8c8b2f937,001,2021-07-19_05h56.19.847,arrow_simon_norep,2021.1.2,Win32,60.20469597,,,,,,,,,,,o,2.4191,25,0,25,0,1,,,,,,,,,,,,,,,,,,,,
,,,,,,,,,,,,,,,,,,,,,,60c9eb53daf4abb8c8b2f937,001,2021-07-19_05h56.19.847,arrow_simon_norep,2021.1.2,Win32,60.20469597,,,,,,,,,,,o,2.5011,26,0,26,0,1,,,,,,,,,,,,,,,,,,,,
,,,,,,,,,,,,,,,,,,,,,,60c9eb53daf4abb8c8b2f937,001,2021-07-19_05h56.19.847,arrow_simon_norep,2021.1.2,Win32,60.20469597,,,,,,,,,,,o,2.4751,27,0,27,0,1,,,,,,,,,,,,,,,,,,,,
,,,,,,,,,,,,,,,,,,,,,,60c9eb53daf4abb8c8b2f937,001,2021-07-19_05h56.19.847,arrow_simon_norep,2021.1.2,Win32,60.20469597,,,,,,,,,,,o,1.9192,28,0,28,0,1,,,,,,,,,,,,,,,,,,,,
,,,,,,,,,,,,,,,,,,,,,,60c9eb53daf4abb8c8b2f937,001,2021-07-19_05h56.19.847,arrow_simon_norep,2021.1.2,Win32,60.20469597,,,,,,,,,,,w,2.2385,29,0,29,0,1,,,,,,,,,,,,,,,,,,,,
,,,,,,,,,,,,,,,,,,,,,,60c9eb53daf4abb8c8b2f937,001,2021-07-19_05h56.19.847,arrow_simon_norep,2021.1.2,Win32,60.20469597,,,,,,,,,,,w,2.4384,30,0,30,0,1,,,,,,,,,,,,,,,,,,,,
,,,,,,,,,,,,,,,,,,,,,,60c9eb53daf4abb8c8b2f937,001,2021-07-19_05h56.19.847,arrow_simon_norep,2021.1.2,Win32,60.20469597,,,,,,,,,,,w,2.5922,31,0,31,0,1,,,,,,,,,,,,,,,,,,,,
,,,,,,,,,,,,,,,,,,,,,,60c9eb53daf4abb8c8b2f937,001,2021-07-19_05h56.19.847,arrow_simon_norep,2021.1.2,Win32,60.20469597,,,,,,,,,,,q,2.4245,32,0,32,0,1,,,,,,,,,,,,,,,,,,,,
,,,,,,,,,,,,,,,,,,,,,,60c9eb53daf4abb8c8b2f937,001,2021-07-19_05h56.19.847,arrow_simon_norep,2021.1.2,Win32,60.20469597,,,,,,,,,,,p,1.9249,33,0,33,0,1,,,,,,,,,,,,,,,,,,,,
,,,,,,,,,,,,,,,,,,,,,,60c9eb53daf4abb8c8b2f937,001,2021-07-19_05h56.19.847,arrow_simon_norep,2021.1.2,Win32,60.20469597,,,,,,,,,,,p,2.3962,34,0,34,0,1,,,,,,,,,,,,,,,,,,,,
,,,,,,,,,,,,,,,,,,,,,,60c9eb53daf4abb8c8b2f937,001,2021-07-19_05h56.19.847,arrow_simon_norep,2021.1.2,Win32,60.20469597,,,,,,,,,,,o,2.8353,35,0,35,0,1,,,,,,,,,,,,,,,,,,,,
,,,,,,,,,,,,,,,,,,,,,,60c9eb53daf4abb8c8b2f937,001,2021-07-19_05h56.19.847,arrow_simon_norep,2021.1.2,Win32,60.20469597,,,,,,,,,,,o,2.0844,36,0,36,0,1,,,,,,,,,,,,,,,,,,,,
,,,,,,,,,,,,,,,,,,,,,,60c9eb53daf4abb8c8b2f937,001,2021-07-19_05h56.19.847,arrow_simon_norep,2021.1.2,Win32,60.20469597,,,,,,,,,,,o,2.3775,37,0,37,0,1,,,,,,,,,,,,,,,,,,,,
,,,,,,,,,,,,,,,,,,,,,,60c9eb53daf4abb8c8b2f937,001,2021-07-19_05h56.19.847,arrow_simon_norep,2021.1.2,Win32,60.20469597,,,,,,,,,,,o,2.4858,38,0,38,0,1,,,,,,,,,,,,,,,,,,,,
,,,,,,,,,,,,,,,,,,,,,,60c9eb53daf4abb8c8b2f937,001,2021-07-19_05h56.19.847,arrow_simon_norep,2021.1.2,Win32,60.20469597,,,,,,,,,,,o,2.784,39,0,39,0,1,,,,,,,,,,,,,,,,,,,,
,,,,,,,,,,,,,,,,,,,,,,60c9eb53daf4abb8c8b2f937,001,2021-07-19_05h56.19.847,arrow_simon_norep,2021.1.2,Win32,60.20469597,,,,,,,,,,,o,2.2863,40,0,40,0,1,,,,,,,,,,,,,,,,,,,,
,,,,,,,,,,,,,,,,,,,,,,60c9eb53daf4abb8c8b2f937,001,2021-07-19_05h56.19.847,arrow_simon_norep,2021.1.2,Win32,60.20469597,,,,,,,,,,,o,2.4617,41,0,41,0,1,,,,,,,,,,,,,,,,,,,,
,,,,,,,,,,,,,,,,,,,,,,60c9eb53daf4abb8c8b2f937,001,2021-07-19_05h56.19.847,arrow_simon_norep,2021.1.2,Win32,60.20469597,,,,,,,,,,,o,2.295,42,0,42,0,1,,,,,,,,,,,,,,,,,,,,
,,,,,,,,,,,,,,,,,,,,,,60c9eb53daf4abb8c8b2f937,001,2021-07-19_05h56.19.847,arrow_simon_norep,2021.1.2,Win32,60.20469597,,,,,,,,,,,o,2.3865,43,0,43,0,1,,,,,,,,,,,,,,,,,,,,
,,,,,,,,,,,,,,,,,,,,,,60c9eb53daf4abb8c8b2f937,001,2021-07-19_05h56.19.847,arrow_simon_norep,2021.1.2,Win32,60.20469597,,,,,,,,,,,o,2.4965,44,0,44,0,1,,,,,,,,,,,,,,,,,,,,
,,,,,,,,,,,,,,,,,,,,,,60c9eb53daf4abb8c8b2f937,001,2021-07-19_05h56.19.847,arrow_simon_norep,2021.1.2,Win32,60.20469597,,,,,,,,,,,o,2.6846,45,0,45,0,1,,,,,,,,,,,,,,,,,,,,
,,,,,,,,,,,,,,,,,,,,,,60c9eb53daf4abb8c8b2f937,001,2021-07-19_05h56.19.847,arrow_simon_norep,2021.1.2,Win32,60.20469597,,,,,,,,,,,o,2.0181,46,0,46,0,1,,,,,,,,,,,,,,,,,,,,
,,,,,,,,,,,,,,,,,,,,,,60c9eb53daf4abb8c8b2f937,001,2021-07-19_05h56.19.847,arrow_simon_norep,2021.1.2,Win32,60.20469597,,,,,,,,,,,o,2.1382,47,0,47,0,1,,,,,,,,,,,,,,,,,,,,
,,,,,,,,,,,,,,,,,,,,,,60c9eb53daf4abb8c8b2f937,001,2021-07-19_05h56.19.847,arrow_simon_norep,2021.1.2,Win32,60.20469597,,,,,,,,,,,o,2.2375,48,0,48,0,1,,,,,,,,,,,,,,,,,,,,
,,,,,,,,,,,,,,,,,,,,,,60c9eb53daf4abb8c8b2f937,001,2021-07-19_05h56.19.847,arrow_simon_norep,2021.1.2,Win32,60.20469597,,,,,,,,,,,o,2.3344,49,0,49,0,1,,,,,,,,,,,,,,,,,,,,
,,,,,,,,,,,,,,,,,,,,,,60c9eb53daf4abb8c8b2f937,001,2021-07-19_05h56.19.847,arrow_simon_norep,2021.1.2,Win32,60.20469597,,,,,,,,,,,o,2.1202,50,0,50,0,1,,,,,,,,,,,,,,,,,,,,
,,,,,,,,,,,,,,,,,,,,,,60c9eb53daf4abb8c8b2f937,001,2021-07-19_05h56.19.847,arrow_simon_norep,2021.1.2,Win32,60.20469597,,,,,,,,,,,o,2.5179,51,0,51,0,1,,,,,,,,,,,,,,,,,,,,
,,,,,,,,,,,,,,,,,,,,,,60c9eb53daf4abb8c8b2f937,001,2021-07-19_05h56.19.847,arrow_simon_norep,2021.1.2,Win32,60.20469597,,,,,,,,,,,o,2.1023,52,0,52,0,1,,,,,,,,,,,,,,,,,,,,
,,,,,,,,,,,,,,,,,,,,,,60c9eb53daf4abb8c8b2f937,001,2021-07-19_05h56.19.847,arrow_simon_norep,2021.1.2,Win32,60.20469597,,,,,,,,,,,o,1.5171,53,0,53,0,1,,,,,,,,,,,,,,,,,,,,
,,,,,,,,,,,,,,,,,,,,,,60c9eb53daf4abb8c8b2f937,001,2021-07-19_05h56.19.847,arrow_simon_norep,2021.1.2,Win32,60.20469597,,,,,,,,,,,o,2.3719,54,0,54,0,1,,,,,,,,,,,,,,,,,,,,
,,,,,,,,,,,,,,,,,,,,,,60c9eb53daf4abb8c8b2f937,001,2021-07-19_05h56.19.847,arrow_simon_norep,2021.1.2,Win32,60.20469597,,,,,,,,,,,o,2.6032,55,0,55,0,1,,,,,,,,,,,,,,,,,,,,
,,,,,,,,,,,,,,,,,,,,,,60c9eb53daf4abb8c8b2f937,001,2021-07-19_05h56.19.847,arrow_simon_norep,2021.1.2,Win32,60.20469597,,,,,,,,,,,o,2.1372,56,0,56,0,1,,,,,,,,,,,,,,,,,,,,
,,,,,,,,,,,,,,,,,,,,,,60c9eb53daf4abb8c8b2f937,001,2021-07-19_05h56.19.847,arrow_simon_norep,2021.1.2,Win32,60.20469597,,,,,,,,,,,o,2.4473,57,0,57,0,1,,,,,,,,,,,,,,,,,,,,
,,,,,,,,,,,,,,,,,,,,,,60c9eb53daf4abb8c8b2f937,001,2021-07-19_05h56.19.847,arrow_simon_norep,2021.1.2,Win32,60.20469597,,,,,,,,,,,o,2.4746,58,0,58,0,1,,,,,,,,,,,,,,,,,,,,
,,,,,,,,,,,,,,,,,,,,,,60c9eb53daf4abb8c8b2f937,001,2021-07-19_05h56.19.847,arrow_simon_norep,2021.1.2,Win32,60.20469597,,,,,,,,,,,o,2.3076,59,0,59,0,1,,,,,,,,,,,,,,,,,,,,
,,,,,,0,2.223600597,#a3d0fb,,right_blue.png,o,,,,,,o,right_blue.png,right_orange.png,p,left,60c9eb53daf4abb8c8b2f937,001,2021-07-19_05h56.19.847,arrow_simon_norep,2021.1.2,Win32,60.20469597,,,,,,,,,,,,,,,,,,space,0,37.1492,p,0,2.3273,TRUE,FALSE,0,0,0,0,1,,,,,,,
,,,,,,0,2.34701914,#f3af84,,right_orange.png,p,,,,,,o,right_blue.png,right_orange.png,p,left,60c9eb53daf4abb8c8b2f937,001,2021-07-19_05h56.19.847,arrow_simon_norep,2021.1.2,Win32,60.20469597,,,,,,,,,,,,,,,,,,,,,o,0,2.2132,TRUE,FALSE,0,1,1,0,1,,,,,,,
,,,,,,0,1.844363512,#a3d0fb,,left_blue.png,w,,,,,,w,left_blue.png,left_orange.png,q,right,60c9eb53daf4abb8c8b2f937,001,2021-07-19_05h56.19.847,arrow_simon_norep,2021.1.2,Win32,60.20469597,,,,,,,,,,,,,,,,,,,,,w,1,1.4038,FALSE,FALSE,0,2,2,3,1,,,,,,,
,,,,,,0,1.96798843,#f3af84,,left_orange.png,q,,,,,,w,left_blue.png,left_orange.png,q,left,60c9eb53daf4abb8c8b2f937,001,2021-07-19_05h56.19.847,arrow_simon_norep,2021.1.2,Win32,60.20469597,,,,,,,,,,,,,,,,,,,,,q,1,1.3611,FALSE,TRUE,0,3,3,2,1,,,,,,,
,,,,,,0,2.37764559,#a3d0fb,,left_blue.png,w,,,,,,w,left_blue.png,left_orange.png,q,right,60c9eb53daf4abb8c8b2f937,001,2021-07-19_05h56.19.847,arrow_simon_norep,2021.1.2,Win32,60.20469597,,,,,,,,,,,,,,,,,,,,,p,0,1.8799,TRUE,FALSE,1,0,4,3,1,,,,,,,
,,,,,,0,2.105615431,#f3af84,,right_orange.png,p,,,,,,o,right_blue.png,right_orange.png,p,left,60c9eb53daf4abb8c8b2f937,001,2021-07-19_05h56.19.847,arrow_simon_norep,2021.1.2,Win32,60.20469597,,,,,,,,,,,,,,,,,,,,,o,0,1.9684,TRUE,FALSE,1,1,5,0,1,,,,,,,
,,,,,,0,2.392121769,#a3d0fb,,left_blue.png,w,,,,,,w,left_blue.png,left_orange.png,q,left,60c9eb53daf4abb8c8b2f937,001,2021-07-19_05h56.19.847,arrow_simon_norep,2021.1.2,Win32,60.20469597,,,,,,,,,,,,,,,,,,,,,q,0,1.8201,TRUE,FALSE,1,2,6,2,1,,,,,,,
,,,,,,0,2.218234354,#f3af84,,left_orange.png,q,,,,,,w,left_blue.png,left_orange.png,q,right,60c9eb53daf4abb8c8b2f937,001,2021-07-19_05h56.19.847,arrow_simon_norep,2021.1.2,Win32,60.20469597,,,,,,,,,,,,,,,,,,,,,w,0,1.7107,TRUE,FALSE,1,3,7,3,1,,,,,,,
,,,,,,0,2.200223377,#a3d0fb,,left_blue.png,w,,,,,,w,left_blue.png,left_orange.png,q,right,60c9eb53daf4abb8c8b2f937,001,2021-07-19_05h56.19.847,arrow_simon_norep,2021.1.2,Win32,60.20469597,,,,,,,,,,,,,,,,,,,,,o,0,1.7879,TRUE,FALSE,2,0,8,3,1,,,,,,,
,,,,,,0,1.50116692,#f3af84,,right_orange.png,p,,,,,,o,right_blue.png,right_orange.png,p,right,60c9eb53daf4abb8c8b2f937,001,2021-07-19_05h56.19.847,arrow_simon_norep,2021.1.2,Win32,60.20469597,,,,,,,,,,,,,,,,,,,,,p,1,1.4705,FALSE,FALSE,2,1,9,1,1,,,,,,,
,,,,,,0,2.194064864,#a3d0fb,,left_blue.png,w,,,,,,w,left_blue.png,left_orange.png,q,left,60c9eb53daf4abb8c8b2f937,001,2021-07-19_05h56.19.847,arrow_simon_norep,2021.1.2,Win32,60.20469597,,,,,,,,,,,,,,,,,,,,,w,1,1.9797,TRUE,FALSE,2,2,10,2,1,,,,,,,
,,,,,,0,1.526216682,#f3af84,,left_orange.png,q,,,,,,w,left_blue.png,left_orange.png,q,left,60c9eb53daf4abb8c8b2f937,001,2021-07-19_05h56.19.847,arrow_simon_norep,2021.1.2,Win32,60.20469597,,,,,,,,,,,,,,,,,,,,,q,1,1.4075,FALSE,FALSE,2,3,11,2,1,,,,,,,
,,,,,,0,2.456441154,#a3d0fb,,left_blue.png,w,,,,,,w,left_blue.png,left_orange.png,q,right,60c9eb53daf4abb8c8b2f937,001,2021-07-19_05h56.19.847,arrow_simon_norep,2021.1.2,Win32,60.20469597,,,,,,,,,,,,,,,,,,,,,q,0,2.0793,TRUE,FALSE,3,0,12,3,1,,,,,,,
,,,,,,0,2.26570612,#f3af84,,left_orange.png,q,,,,,,w,left_blue.png,left_orange.png,q,right,60c9eb53daf4abb8c8b2f937,001,2021-07-19_05h56.19.847,arrow_simon_norep,2021.1.2,Win32,60.20469597,,,,,,,,,,,,,,,,,,,,,q,1,2.4473,TRUE,FALSE,3,1,13,3,1,,,,,,,
,,,,,,0,2.139331917,#a3d0fb,,right_blue.png,o,,,,,,o,right_blue.png,right_orange.png,p,right,60c9eb53daf4abb8c8b2f937,001,2021-07-19_05h56.19.847,arrow_simon_norep,2021.1.2,Win32,60.20469597,,,,,,,,,,,,,,,,,,,,,p,0,1.8202,TRUE,FALSE,3,2,14,1,1,,,,,,,
,,,,,,0,1.796572468,#f3af84,,right_orange.png,p,,,,,,o,right_blue.png,right_orange.png,p,left,60c9eb53daf4abb8c8b2f937,001,2021-07-19_05h56.19.847,arrow_simon_norep,2021.1.2,Win32,60.20469597,,,,,,,,,,,,,,,,,,,,,p,1,1.8713,TRUE,FALSE,3,3,15,0,1,,,,,,,
,,,,,,1,1.92644948,#a3d0fb,,left_blue.png,w,,,,,,w,left_blue.png,left_orange.png,q,right,60c9eb53daf4abb8c8b2f937,001,2021-07-19_05h56.19.847,arrow_simon_norep,2021.1.2,Win32,60.20469597,,,,,,,,,,,,,,,,,,,,,q,0,1.5397,FALSE,FALSE,4,0,16,3,1,,,,,,,
,,,,,,1,2.407806624,#f3af84,,left_orange.png,q,,,,,,w,left_blue.png,left_orange.png,q,right,60c9eb53daf4abb8c8b2f937,001,2021-07-19_05h56.19.847,arrow_simon_norep,2021.1.2,Win32,60.20469597,,,,,,,,,,,,,,,,,,,,,q,1,2.4964,TRUE,FALSE,4,1,17,3,1,,,,,,,
,,,,,,1,2.265003172,#a3d0fb,,right_blue.png,o,,,,,,o,right_blue.png,right_orange.png,p,right,60c9eb53daf4abb8c8b2f937,001,2021-07-19_05h56.19.847,arrow_simon_norep,2021.1.2,Win32,60.20469597,,,,,,,,,,,,,,,,,,,,,p,0,1.9708,TRUE,FALSE,4,2,18,1,1,,,,,,,
,,,,,,1,2.185123551,#f3af84,,right_orange.png,p,,,,,,o,right_blue.png,right_orange.png,p,right,60c9eb53daf4abb8c8b2f937,001,2021-07-19_05h56.19.847,arrow_simon_norep,2021.1.2,Win32,60.20469597,,,,,,,,,,,,,,,,,,,,,p,1,2.0254,TRUE,FALSE,4,3,19,1,1,,,,,,,
,,,,,,1,1.774136379,#a3d0fb,,left_blue.png,w,,,,,,w,left_blue.png,left_orange.png,q,right,60c9eb53daf4abb8c8b2f937,001,2021-07-19_05h56.19.847,arrow_simon_norep,2021.1.2,Win32,60.20469597,,,,,,,,,,,,,,,,,,,,,w,1,1.6405,TRUE,FALSE,5,0,20,3,1,,,,,,,
,,,,,,1,2.450890266,#f3af84,,right_orange.png,p,,,,,,o,right_blue.png,right_orange.png,p,left,60c9eb53daf4abb8c8b2f937,001,2021-07-19_05h56.19.847,arrow_simon_norep,2021.1.2,Win32,60.20469597,,,,,,,,,,,,,,,,,,,,,p,1,2.1375,TRUE,FALSE,5,1,21,0,1,,,,,,,
,,,,,,1,1.815992623,#a3d0fb,,left_blue.png,w,,,,,,w,left_blue.png,left_orange.png,q,left,60c9eb53daf4abb8c8b2f937,001,2021-07-19_05h56.19.847,arrow_simon_norep,2021.1.2,Win32,60.20469597,,,,,,,,,,,,,,,,,,,,,q,0,1.4914,FALSE,FALSE,5,2,22,2,1,,,,,,,
,,,,,,1,1.563030874,#f3af84,,right_orange.png,p,,,,,,o,right_blue.png,right_orange.png,p,right,60c9eb53daf4abb8c8b2f937,001,2021-07-19_05h56.19.847,arrow_simon_norep,2021.1.2,Win32,60.20469597,,,,,,,,,,,,,,,,,,,,,o,0,1.4042,FALSE,FALSE,5,3,23,1,1,,,,,,,
,,,,,,1,1.67948053,#a3d0fb,,right_blue.png,o,,,,,,o,right_blue.png,right_orange.png,p,left,60c9eb53daf4abb8c8b2f937,001,2021-07-19_05h56.19.847,arrow_simon_norep,2021.1.2,Win32,60.20469597,,,,,,,,,,,,,,,,,,,,,o,1,1.8009,TRUE,FALSE,6,0,24,0,1,,,,,,,
,,,,,,1,2.019107434,#f3af84,,left_orange.png,q,,,,,,w,left_blue.png,left_orange.png,q,right,60c9eb53daf4abb8c8b2f937,001,2021-07-19_05h56.19.847,arrow_simon_norep,2021.1.2,Win32,60.20469597,,,,,,,,,,,,,,,,,,,,,q,1,1.7052,TRUE,FALSE,6,1,25,3,1,,,,,,,
,,,,,,1,2.237165726,#a3d0fb,,right_blue.png,o,,,,,,o,right_blue.png,right_orange.png,p,left,60c9eb53daf4abb8c8b2f937,001,2021-07-19_05h56.19.847,arrow_simon_norep,2021.1.2,Win32,60.20469597,,,,,,,,,,,,,,,,,,,,,p,0,1.9381,TRUE,FALSE,6,2,26,0,1,,,,,,,
,,,,,,1,2.455495669,#f3af84,,right_orange.png,p,,,,,,o,right_blue.png,right_orange.png,p,left,60c9eb53daf4abb8c8b2f937,001,2021-07-19_05h56.19.847,arrow_simon_norep,2021.1.2,Win32,60.20469597,,,,,,,,,,,,,,,,,,,,,p,1,2.606,TRUE,FALSE,6,3,27,0,1,,,,,,,
,,,,,,1,1.945906082,#a3d0fb,,left_blue.png,w,,,,,,w,left_blue.png,left_orange.png,q,left,60c9eb53daf4abb8c8b2f937,001,2021-07-19_05h56.19.847,arrow_simon_norep,2021.1.2,Win32,60.20469597,,,,,,,,,,,,,,,,,,,,,o,0,2.2543,TRUE,FALSE,7,0,28,2,1,,,,,,,
,,,,,,1,1.934797525,#f3af84,,left_orange.png,q,,,,,,w,left_blue.png,left_orange.png,q,left,60c9eb53daf4abb8c8b2f937,001,2021-07-19_05h56.19.847,arrow_simon_norep,2021.1.2,Win32,60.20469597,,,,,,,,,,,,,,,,,,,,,q,1,1.6284,TRUE,FALSE,7,1,29,2,1,,,,,,,
,,,,,,0,1.573083336,#a3d0fb,,right_blue.png,o,,,,,,o,right_blue.png,right_orange.png,p,right,60c9eb53daf4abb8c8b2f937,001,2021-07-19_05h56.19.847,arrow_simon_norep,2021.1.2,Win32,60.20469597,,,,,,,,,,,,,,,,,,,,,o,1,1.4051,FALSE,FALSE,7,2,30,1,1,,,,,,,
,,,,,,0,1.855380621,#f3af84,,left_orange.png,q,,,,,,w,left_blue.png,left_orange.png,q,right,60c9eb53daf4abb8c8b2f937,001,2021-07-19_05h56.19.847,arrow_simon_norep,2021.1.2,Win32,60.20469597,,,,,,,,,,,,,,,,,,,,,q,1,1.8638,TRUE,FALSE,7,3,31,3,1,,,,,,,
,,,,,,0,2.012973294,#a3d0fb,,left_blue.png,w,,,,,,w,left_blue.png,left_orange.png,q,left,60c9eb53daf4abb8c8b2f937,001,2021-07-19_05h56.19.847,arrow_simon_norep,2021.1.2,Win32,60.20469597,,,,,,,,,,,,,,,,,,,,,w,1,1.8083,TRUE,FALSE,8,0,32,2,1,,,,,,,
,,,,,,0,2.072212176,#f3af84,,right_orange.png,p,,,,,,o,right_blue.png,right_orange.png,p,left,60c9eb53daf4abb8c8b2f937,001,2021-07-19_05h56.19.847,arrow_simon_norep,2021.1.2,Win32,60.20469597,,,,,,,,,,,,,,,,,,,,,o,0,1.9885,TRUE,FALSE,8,1,33,0,1,,,,,,,
,,,,,,0,1.740405999,#a3d0fb,,left_blue.png,w,,,,,,w,left_blue.png,left_orange.png,q,left,60c9eb53daf4abb8c8b2f937,001,2021-07-19_05h56.19.847,arrow_simon_norep,2021.1.2,Win32,60.20469597,,,,,,,,,,,,,,,,,,,,,w,1,1.5054,FALSE,FALSE,8,2,34,2,1,,,,,,,
,,,,,,0,2.193695819,#f3af84,,left_orange.png,q,,,,,,w,left_blue.png,left_orange.png,q,left,60c9eb53daf4abb8c8b2f937,001,2021-07-19_05h56.19.847,arrow_simon_norep,2021.1.2,Win32,60.20469597,,,,,,,,,,,,,,,,,,,,,q,1,1.8551,TRUE,FALSE,8,3,35,2,1,,,,,,,
,,,,,,0,1.641012157,#a3d0fb,,right_blue.png,o,,,,,,o,right_blue.png,right_orange.png,p,left,60c9eb53daf4abb8c8b2f937,001,2021-07-19_05h56.19.847,arrow_simon_norep,2021.1.2,Win32,60.20469597,,,,,,,,,,,,,,,,,,,,,o,1,1.4532,FALSE,FALSE,9,0,36,0,1,,,,,,,
,,,,,,0,2.023180883,#f3af84,,left_orange.png,q,,,,,,w,left_blue.png,left_orange.png,q,left,60c9eb53daf4abb8c8b2f937,001,2021-07-19_05h56.19.847,arrow_simon_norep,2021.1.2,Win32,60.20469597,,,,,,,,,,,,,,,,,,,,,q,1,1.6568,TRUE,FALSE,9,1,37,2,1,,,,,,,
,,,,,,0,1.68816514,#a3d0fb,,left_blue.png,w,,,,,,w,left_blue.png,left_orange.png,q,left,60c9eb53daf4abb8c8b2f937,001,2021-07-19_05h56.19.847,arrow_simon_norep,2021.1.2,Win32,60.20469597,,,,,,,,,,,,,,,,,,,,,q,0,1.1894,FALSE,TRUE,9,2,38,2,1,,,,,,,
,,,,,,0,1.533890026,#f3af84,,right_orange.png,p,,,,,,o,right_blue.png,right_orange.png,p,right,60c9eb53daf4abb8c8b2f937,001,2021-07-19_05h56.19.847,arrow_simon_norep,2021.1.2,Win32,60.20469597,,,,,,,,,,,,,,,,,,,,,p,1,1.3407,FALSE,TRUE,9,3,39,1,1,,,,,,,
,,,,,,0,2.444195913,#a3d0fb,,right_blue.png,o,,,,,,o,right_blue.png,right_orange.png,p,left,60c9eb53daf4abb8c8b2f937,001,2021-07-19_05h56.19.847,arrow_simon_norep,2021.1.2,Win32,60.20469597,,,,,,,,,,,,,,,,,,,,,w,0,2.0562,TRUE,FALSE,10,0,40,0,1,,,,,,,
,,,,,,0,2.484956119,#f3af84,,right_orange.png,p,,,,,,o,right_blue.png,right_orange.png,p,left,60c9eb53daf4abb8c8b2f937,001,2021-07-19_05h56.19.847,arrow_simon_norep,2021.1.2,Win32,60.20469597,,,,,,,,,,,,,,,,,,,,,o,0,2.2206,TRUE,FALSE,10,1,41,0,1,,,,,,,
,,,,,,0,2.253774325,#a3d0fb,,right_blue.png,o,,,,,,o,right_blue.png,right_orange.png,p,right,60c9eb53daf4abb8c8b2f937,001,2021-07-19_05h56.19.847,arrow_simon_norep,2021.1.2,Win32,60.20469597,,,,,,,,,,,,,,,,,,,,,p,0,2.1207,TRUE,FALSE,10,2,42,1,1,,,,,,,
,,,,,,0,2.327622412,#f3af84,,right_orange.png,p,,,,,,o,right_blue.png,right_orange.png,p,right,60c9eb53daf4abb8c8b2f937,001,2021-07-19_05h56.19.847,arrow_simon_norep,2021.1.2,Win32,60.20469597,,,,,,,,,,,,,,,,,,,,,p,1,2.055,TRUE,FALSE,10,3,43,1,1,,,,,,,
,,,,,,0,1.563592466,#a3d0fb,,right_blue.png,o,,,,,,o,right_blue.png,right_orange.png,p,right,60c9eb53daf4abb8c8b2f937,001,2021-07-19_05h56.19.847,arrow_simon_norep,2021.1.2,Win32,60.20469597,,,,,,,,,,,,,,,,,,,,,o,1,1.3623,FALSE,TRUE,11,0,44,1,1,,,,,,,
,,,,,,0,1.592577174,#f3af84,,right_orange.png,p,,,,,,o,right_blue.png,right_orange.png,p,left,60c9eb53daf4abb8c8b2f937,001,2021-07-19_05h56.19.847,arrow_simon_norep,2021.1.2,Win32,60.20469597,,,,,,,,,,,,,,,,,,,,,o,0,1.3546,FALSE,TRUE,11,1,45,0,1,,,,,,,
,,,,,,0,2.481851186,#a3d0fb,,left_blue.png,w,,,,,,w,left_blue.png,left_orange.png,q,right,60c9eb53daf4abb8c8b2f937,001,2021-07-19_05h56.19.847,arrow_simon_norep,2021.1.2,Win32,60.20469597,,,,,,,,,,,,,,,,,,,,,w,1,2.2366,TRUE,FALSE,11,2,46,3,1,,,,,,,
,,,,,,0,2.021403689,#f3af84,,left_orange.png,q,,,,,,w,left_blue.png,left_orange.png,q,right,60c9eb53daf4abb8c8b2f937,001,2021-07-19_05h56.19.847,arrow_simon_norep,2021.1.2,Win32,60.20469597,,,,,,,,,,,,,,,,,,,,,q,1,1.8838,TRUE,FALSE,11,3,47,3,1,,,,,,,
,,,,,,0,2.071611745,#a3d0fb,,right_blue.png,o,,,,,,o,right_blue.png,right_orange.png,p,right,60c9eb53daf4abb8c8b2f937,001,2021-07-19_05h56.19.847,arrow_simon_norep,2021.1.2,Win32,60.20469597,,,,,,,,,,,,,,,,,,,,,w,0,1.9269,TRUE,FALSE,12,0,48,1,1,,,,,,,
,,,,,,0,2.244040553,#f3af84,,left_orange.png,q,,,,,,w,left_blue.png,left_orange.png,q,right,60c9eb53daf4abb8c8b2f937,001,2021-07-19_05h56.19.847,arrow_simon_norep,2021.1.2,Win32,60.20469597,,,,,,,,,,,,,,,,,,,,,q,1,1.9624,TRUE,FALSE,12,1,49,3,1,,,,,,,
,,,,,,0,1.653625287,#a3d0fb,,right_blue.png,o,,,,,,o,right_blue.png,right_orange.png,p,left,60c9eb53daf4abb8c8b2f937,001,2021-07-19_05h56.19.847,arrow_simon_norep,2021.1.2,Win32,60.20469597,,,,,,,,,,,,,,,,,,,,,w,0,1.3895,FALSE,TRUE,12,2,50,0,1,,,,,,,
,,,,,,0,2.294798614,#f3af84,,right_orange.png,p,,,,,,o,right_blue.png,right_orange.png,p,right,60c9eb53daf4abb8c8b2f937,001,2021-07-19_05h56.19.847,arrow_simon_norep,2021.1.2,Win32,60.20469597,,,,,,,,,,,,,,,,,,,,,p,1,2.2456,TRUE,FALSE,12,3,51,1,1,,,,,,,
,,,,,,0,2.119061317,#a3d0fb,,right_blue.png,o,,,,,,o,right_blue.png,right_orange.png,p,right,60c9eb53daf4abb8c8b2f937,001,2021-07-19_05h56.19.847,arrow_simon_norep,2021.1.2,Win32,60.20469597,,,,,,,,,,,,,,,,,,,,,o,1,1.7726,TRUE,FALSE,13,0,52,1,1,,,,,,,
,,,,,,0,2.298564538,#f3af84,,left_orange.png,q,,,,,,w,left_blue.png,left_orange.png,q,left,60c9eb53daf4abb8c8b2f937,001,2021-07-19_05h56.19.847,arrow_simon_norep,2021.1.2,Win32,60.20469597,,,,,,,,,,,,,,,,,,,,,q,1,1.9059,TRUE,FALSE,13,1,53,2,1,,,,,,,
,,,,,,0,2.244387491,#a3d0fb,,right_blue.png,o,,,,,,o,right_blue.png,right_orange.png,p,left,60c9eb53daf4abb8c8b2f937,001,2021-07-19_05h56.19.847,arrow_simon_norep,2021.1.2,Win32,60.20469597,,,,,,,,,,,,,,,,,,,,,w,0,2.0872,TRUE,FALSE,13,2,54,0,1,,,,,,,
,,,,,,0,1.859661531,#f3af84,,right_orange.png,p,,,,,,o,right_blue.png,right_orange.png,p,right,60c9eb53daf4abb8c8b2f937,001,2021-07-19_05h56.19.847,arrow_simon_norep,2021.1.2,Win32,60.20469597,,,,,,,,,,,,,,,,,,,,,p,1,1.6281,TRUE,FALSE,13,3,55,1,1,,,,,,,
,,,,,,0,2.498215223,#a3d0fb,,left_blue.png,w,,,,,,w,left_blue.png,left_orange.png,q,left,60c9eb53daf4abb8c8b2f937,001,2021-07-19_05h56.19.847,arrow_simon_norep,2021.1.2,Win32,60.20469597,,,,,,,,,,,,,,,,,,,,,w,1,2.2708,TRUE,FALSE,14,0,56,2,1,,,,,,,
,,,,,,0,2.024847493,#f3af84,,left_orange.png,q,,,,,,w,left_blue.png,left_orange.png,q,left,60c9eb53daf4abb8c8b2f937,001,2021-07-19_05h56.19.847,arrow_simon_norep,2021.1.2,Win32,60.20469597,,,,,,,,,,,,,,,,,,,,,q,1,1.872,TRUE,FALSE,14,1,57,2,1,,,,,,,
,,,,,,0,2.076528855,#a3d0fb,,left_blue.png,w,,,,,,w,left_blue.png,left_orange.png,q,right,60c9eb53daf4abb8c8b2f937,001,2021-07-19_05h56.19.847,arrow_simon_norep,2021.1.2,Win32,60.20469597,,,,,,,,,,,,,,,,,,,,,o,0,1.7505,TRUE,FALSE,14,2,58,3,1,,,,,,,
,,,,,,0,1.848861155,#f3af84,,right_orange.png,p,,,,,,o,right_blue.png,right_orange.png,p,right,60c9eb53daf4abb8c8b2f937,001,2021-07-19_05h56.19.847,arrow_simon_norep,2021.1.2,Win32,60.20469597,,,,,,,,,,,,,,,,,,,,,p,1,1.6033,TRUE,FALSE,14,3,59,1,1,,,,,,,
,,,,,,,,,,,,,,,,,,,,,,60c9eb53daf4abb8c8b2f937,001,2021-07-19_05h56.19.847,arrow_simon_norep,2021.1.2,Win32,60.20469597,,,,,,,,,,,,,,,,,,,,,,,,,,,,,,,space,6.464,0,0,0,0,1
,,,,,,0,1.580796824,#a3d0fb,,right_blue.png,o,,,,,,o,right_blue.png,right_orange.png,p,left,60c9eb53daf4abb8c8b2f937,001,2021-07-19_05h56.19.847,arrow_simon_norep,2021.1.2,Win32,60.20469597,,,,,,,,,,,,,,,,,,,,,w,0,1.359,FALSE,TRUE,0,0,0,0,1,,,,,,,
,,,,,,0,1.606872832,#f3af84,,right_orange.png,p,,,,,,o,right_blue.png,right_orange.png,p,left,60c9eb53daf4abb8c8b2f937,001,2021-07-19_05h56.19.847,arrow_simon_norep,2021.1.2,Win32,60.20469597,,,,,,,,,,,,,,,,,,,,,o,0,1.6208,TRUE,FALSE,0,1,1,0,1,,,,,,,
,,,,,,0,1.56549816,#a3d0fb,,right_blue.png,o,,,,,,o,right_blue.png,right_orange.png,p,right,60c9eb53daf4abb8c8b2f937,001,2021-07-19_05h56.19.847,arrow_simon_norep,2021.1.2,Win32,60.20469597,,,,,,,,,,,,,,,,,,,,,p,0,1.3607,FALSE,TRUE,0,2,2,1,1,,,,,,,
,,,,,,0,2.471234908,#f3af84,,left_orange.png,q,,,,,,w,left_blue.png,left_orange.png,q,right,60c9eb53daf4abb8c8b2f937,001,2021-07-19_05h56.19.847,arrow_simon_norep,2021.1.2,Win32,60.20469597,,,,,,,,,,,,,,,,,,,,,w,0,2.3538,TRUE,FALSE,0,3,3,3,1,,,,,,,
,,,,,,0,2.160245658,#a3d0fb,,left_blue.png,w,,,,,,w,left_blue.png,left_orange.png,q,left,60c9eb53daf4abb8c8b2f937,001,2021-07-19_05h56.19.847,arrow_simon_norep,2021.1.2,Win32,60.20469597,,,,,,,,,,,,,,,,,,,,,w,1,1.9035,TRUE,FALSE,1,0,4,2,1,,,,,,,
,,,,,,0,1.631476943,#f3af84,,right_orange.png,p,,,,,,o,right_blue.png,right_orange.png,p,left,60c9eb53daf4abb8c8b2f937,001,2021-07-19_05h56.19.847,arrow_simon_norep,2021.1.2,Win32,60.20469597,,,,,,,,,,,,,,,,,,,,,p,1,1.5866,FALSE,FALSE,1,1,5,0,1,,,,,,,
,,,,,,0,2.345953938,#a3d0fb,,right_blue.png,o,,,,,,o,right_blue.png,right_orange.png,p,right,60c9eb53daf4abb8c8b2f937,001,2021-07-19_05h56.19.847,arrow_simon_norep,2021.1.2,Win32,60.20469597,,,,,,,,,,,,,,,,,,,,,p,0,2.0081,TRUE,FALSE,1,2,6,1,1,,,,,,,
,,,,,,1,1.648634655,#f3af84,,right_orange.png,p,,,,,,o,right_blue.png,right_orange.png,p,left,60c9eb53daf4abb8c8b2f937,001,2021-07-19_05h56.19.847,arrow_simon_norep,2021.1.2,Win32,60.20469597,,,,,,,,,,,,,,,,,,,,,w,0,1.5569,FALSE,FALSE,1,3,7,0,1,,,,,,,
,,,,,,1,2.294514574,#a3d0fb,,right_blue.png,o,,,,,,o,right_blue.png,right_orange.png,p,right,60c9eb53daf4abb8c8b2f937,001,2021-07-19_05h56.19.847,arrow_simon_norep,2021.1.2,Win32,60.20469597,,,,,,,,,,,,,,,,,,,,,o,1,2.2452,TRUE,FALSE,2,0,8,1,1,,,,,,,
,,,,,,1,1.884608807,#f3af84,,left_orange.png,q,,,,,,w,left_blue.png,left_orange.png,q,right,60c9eb53daf4abb8c8b2f937,001,2021-07-19_05h56.19.847,arrow_simon_norep,2021.1.2,Win32,60.20469597,,,,,,,,,,,,,,,,,,,,,q,1,1.7032,TRUE,FALSE,2,1,9,3,1,,,,,,,
,,,,,,1,2.314113081,#a3d0fb,,left_blue.png,w,,,,,,w,left_blue.png,left_orange.png,q,right,60c9eb53daf4abb8c8b2f937,001,2021-07-19_05h56.19.847,arrow_simon_norep,2021.1.2,Win32,60.20469597,,,,,,,,,,,,,,,,,,,,,o,0,2.0774,TRUE,FALSE,2,2,10,3,1,,,,,,,
,,,,,,1,2.107290911,#f3af84,,left_orange.png,q,,,,,,w,left_blue.png,left_orange.png,q,right,60c9eb53daf4abb8c8b2f937,001,2021-07-19_05h56.19.847,arrow_simon_norep,2021.1.2,Win32,60.20469597,,,,,,,,,,,,,,,,,,,,,w,0,1.8377,TRUE,FALSE,2,3,11,3,1,,,,,,,
,,,,,,1,2.223308904,#a3d0fb,,right_blue.png,o,,,,,,o,right_blue.png,right_orange.png,p,left,60c9eb53daf4abb8c8b2f937,001,2021-07-19_05h56.19.847,arrow_simon_norep,2021.1.2,Win32,60.20469597,,,,,,,,,,,,,,,,,,,,,p,0,2.1056,TRUE,FALSE,3,0,12,0,1,,,,,,,
,,,,,,1,2.131412382,#f3af84,,left_orange.png,q,,,,,,w,left_blue.png,left_orange.png,q,left,60c9eb53daf4abb8c8b2f937,001,2021-07-19_05h56.19.847,arrow_simon_norep,2021.1.2,Win32,60.20469597,,,,,,,,,,,,,,,,,,,,,q,1,1.7853,TRUE,FALSE,3,1,13,2,1,,,,,,,
,,,,,,1,2.146504396,#a3d0fb,,right_blue.png,o,,,,,,o,right_blue.png,right_orange.png,p,left,60c9eb53daf4abb8c8b2f937,001,2021-07-19_05h56.19.847,arrow_simon_norep,2021.1.2,Win32,60.20469597,,,,,,,,,,,,,,,,,,,,,w,0,1.9031,TRUE,FALSE,3,2,14,0,1,,,,,,,
,,,,,,1,2.213966417,#f3af84,,right_orange.png,p,,,,,,o,right_blue.png,right_orange.png,p,left,60c9eb53daf4abb8c8b2f937,001,2021-07-19_05h56.19.847,arrow_simon_norep,2021.1.2,Win32,60.20469597,,,,,,,,,,,,,,,,,,,,,w,0,1.8136,TRUE,FALSE,3,3,15,0,1,,,,,,,
,,,,,,1,2.258138735,#a3d0fb,,left_blue.png,w,,,,,,w,left_blue.png,left_orange.png,q,left,60c9eb53daf4abb8c8b2f937,001,2021-07-19_05h56.19.847,arrow_simon_norep,2021.1.2,Win32,60.20469597,,,,,,,,,,,,,,,,,,,,,w,1,2.0246,TRUE,FALSE,4,0,16,2,1,,,,,,,
,,,,,,1,1.705868721,#f3af84,,left_orange.png,q,,,,,,w,left_blue.png,left_orange.png,q,right,60c9eb53daf4abb8c8b2f937,001,2021-07-19_05h56.19.847,arrow_simon_norep,2021.1.2,Win32,60.20469597,,,,,,,,,,,,,,,,,,,,,o,0,1.5425,FALSE,FALSE,4,1,17,3,1,,,,,,,
,,,,,,1,2.052714144,#a3d0fb,,right_blue.png,o,,,,,,o,right_blue.png,right_orange.png,p,right,60c9eb53daf4abb8c8b2f937,001,2021-07-19_05h56.19.847,arrow_simon_norep,2021.1.2,Win32,60.20469597,,,,,,,,,,,,,,,,,,,,,o,1,2.1755,TRUE,FALSE,4,2,18,1,1,,,,,,,
,,,,,,1,1.622132696,#f3af84,,right_orange.png,p,,,,,,o,right_blue.png,right_orange.png,p,left,60c9eb53daf4abb8c8b2f937,001,2021-07-19_05h56.19.847,arrow_simon_norep,2021.1.2,Win32,60.20469597,,,,,,,,,,,,,,,,,,,,,p,1,1.7229,TRUE,FALSE,4,3,19,0,1,,,,,,,
,,,,,,1,1.60176829,#a3d0fb,,left_blue.png,w,,,,,,w,left_blue.png,left_orange.png,q,left,60c9eb53daf4abb8c8b2f937,001,2021-07-19_05h56.19.847,arrow_simon_norep,2021.1.2,Win32,60.20469597,,,,,,,,,,,,,,,,,,,,,w,1,1.6224,TRUE,FALSE,5,0,20,2,1,,,,,,,
,,,,,,1,2.365499872,#f3af84,,left_orange.png,q,,,,,,w,left_blue.png,left_orange.png,q,left,60c9eb53daf4abb8c8b2f937,001,2021-07-19_05h56.19.847,arrow_simon_norep,2021.1.2,Win32,60.20469597,,,,,,,,,,,,,,,,,,,,,q,1,2.0283,TRUE,FALSE,5,1,21,2,1,,,,,,,
,,,,,,1,2.055604825,#a3d0fb,,right_blue.png,o,,,,,,o,right_blue.png,right_orange.png,p,left,60c9eb53daf4abb8c8b2f937,001,2021-07-19_05h56.19.847,arrow_simon_norep,2021.1.2,Win32,60.20469597,,,,,,,,,,,,,,,,,,,,,w,0,2.0305,TRUE,FALSE,5,2,22,0,1,,,,,,,
,,,,,,1,1.624792064,#f3af84,,right_orange.png,p,,,,,,o,right_blue.png,right_orange.png,p,right,60c9eb53daf4abb8c8b2f937,001,2021-07-19_05h56.19.847,arrow_simon_norep,2021.1.2,Win32,60.20469597,,,,,,,,,,,,,,,,,,,,,p,1,1.9027,TRUE,FALSE,5,3,23,1,1,,,,,,,
,,,,,,1,1.720081458,#a3d0fb,,left_blue.png,w,,,,,,w,left_blue.png,left_orange.png,q,right,60c9eb53daf4abb8c8b2f937,001,2021-07-19_05h56.19.847,arrow_simon_norep,2021.1.2,Win32,60.20469597,,,,,,,,,,,,,,,,,,,,,w,1,1.8195,TRUE,FALSE,6,0,24,3,1,,,,,,,
,,,,,,1,1.773835527,#f3af84,,right_orange.png,p,,,,,,o,right_blue.png,right_orange.png,p,right,60c9eb53daf4abb8c8b2f937,001,2021-07-19_05h56.19.847,arrow_simon_norep,2021.1.2,Win32,60.20469597,,,,,,,,,,,,,,,,,,,,,p,1,1.6463,TRUE,FALSE,6,1,25,1,1,,,,,,,
,,,,,,1,2.368914744,#a3d0fb,,right_blue.png,o,,,,,,o,right_blue.png,right_orange.png,p,left,60c9eb53daf4abb8c8b2f937,001,2021-07-19_05h56.19.847,arrow_simon_norep,2021.1.2,Win32,60.20469597,,,,,,,,,,,,,,,,,,,,,o,1,2.226,TRUE,FALSE,6,2,26,0,1,,,,,,,
,,,,,,1,1.919492682,#f3af84,,left_orange.png,q,,,,,,w,left_blue.png,left_orange.png,q,left,60c9eb53daf4abb8c8b2f937,001,2021-07-19_05h56.19.847,arrow_simon_norep,2021.1.2,Win32,60.20469597,,,,,,,,,,,,,,,,,,,,,q,1,1.6094,TRUE,FALSE,6,3,27,2,1,,,,,,,
,,,,,,1,2.499415296,#a3d0fb,,left_blue.png,w,,,,,,w,left_blue.png,left_orange.png,q,right,60c9eb53daf4abb8c8b2f937,001,2021-07-19_05h56.19.847,arrow_simon_norep,2021.1.2,Win32,60.20469597,,,,,,,,,,,,,,,,,,,,,o,0,2.0772,TRUE,FALSE,7,0,28,3,1,,,,,,,
,,,,,,1,2.077601565,#f3af84,,left_orange.png,q,,,,,,w,left_blue.png,left_orange.png,q,left,60c9eb53daf4abb8c8b2f937,001,2021-07-19_05h56.19.847,arrow_simon_norep,2021.1.2,Win32,60.20469597,,,,,,,,,,,,,,,,,,,,,q,1,1.7443,TRUE,FALSE,7,1,29,2,1,,,,,,,
,,,,,,1,1.917088993,#a3d0fb,,left_blue.png,w,,,,,,w,left_blue.png,left_orange.png,q,right,60c9eb53daf4abb8c8b2f937,001,2021-07-19_05h56.19.847,arrow_simon_norep,2021.1.2,Win32,60.20469597,,,,,,,,,,,,,,,,,,,,,o,0,1.7426,TRUE,FALSE,7,2,30,3,1,,,,,,,
,,,,,,0,1.660727223,#f3af84,,right_orange.png,p,,,,,,o,right_blue.png,right_orange.png,p,left,60c9eb53daf4abb8c8b2f937,001,2021-07-19_05h56.19.847,arrow_simon_norep,2021.1.2,Win32,60.20469597,,,,,,,,,,,,,,,,,,,,,p,1,1.4527,FALSE,FALSE,7,3,31,0,1,,,,,,,
,,,,,,0,2.138773953,#a3d0fb,,right_blue.png,o,,,,,,o,right_blue.png,right_orange.png,p,right,60c9eb53daf4abb8c8b2f937,001,2021-07-19_05h56.19.847,arrow_simon_norep,2021.1.2,Win32,60.20469597,,,,,,,,,,,,,,,,,,,,,o,1,1.8544,TRUE,FALSE,8,0,32,1,1,,,,,,,
,,,,,,0,1.594761229,#f3af84,,left_orange.png,q,,,,,,w,left_blue.png,left_orange.png,q,right,60c9eb53daf4abb8c8b2f937,001,2021-07-19_05h56.19.847,arrow_simon_norep,2021.1.2,Win32,60.20469597,,,,,,,,,,,,,,,,,,,,,q,1,1.3227,FALSE,TRUE,8,1,33,3,1,,,,,,,
,,,,,,0,2.154586864,#a3d0fb,,right_blue.png,o,,,,,,o,right_blue.png,right_orange.png,p,right,60c9eb53daf4abb8c8b2f937,001,2021-07-19_05h56.19.847,arrow_simon_norep,2021.1.2,Win32,60.20469597,,,,,,,,,,,,,,,,,,,,,p,0,2.0375,TRUE,FALSE,8,2,34,1,1,,,,,,,
,,,,,,0,2.13132975,#f3af84,,left_orange.png,q,,,,,,w,left_blue.png,left_orange.png,q,left,60c9eb53daf4abb8c8b2f937,001,2021-07-19_05h56.19.847,arrow_simon_norep,2021.1.2,Win32,60.20469597,,,,,,,,,,,,,,,,,,,,,q,1,1.7724,TRUE,FALSE,8,3,35,2,1,,,,,,,
,,,,,,0,1.622535522,#a3d0fb,,left_blue.png,w,,,,,,w,left_blue.png,left_orange.png,q,left,60c9eb53daf4abb8c8b2f937,001,2021-07-19_05h56.19.847,arrow_simon_norep,2021.1.2,Win32,60.20469597,,,,,,,,,,,,,,,,,,,,,q,0,1.2245,FALSE,TRUE,9,0,36,2,1,,,,,,,
,,,,,,0,2.35666537,#f3af84,,right_orange.png,p,,,,,,o,right_blue.png,right_orange.png,p,left,60c9eb53daf4abb8c8b2f937,001,2021-07-19_05h56.19.847,arrow_simon_norep,2021.1.2,Win32,60.20469597,,,,,,,,,,,,,,,,,,,,,w,0,1.8519,TRUE,FALSE,9,1,37,0,1,,,,,,,
,,,,,,0,2.464420053,#a3d0fb,,left_blue.png,w,,,,,,w,left_blue.png,left_orange.png,q,right,60c9eb53daf4abb8c8b2f937,001,2021-07-19_05h56.19.847,arrow_simon_norep,2021.1.2,Win32,60.20469597,,,,,,,,,,,,,,,,,,,,,o,0,2.2756,TRUE,FALSE,9,2,38,3,1,,,,,,,
,,,,,,0,2.379773801,#f3af84,,right_orange.png,p,,,,,,o,right_blue.png,right_orange.png,p,right,60c9eb53daf4abb8c8b2f937,001,2021-07-19_05h56.19.847,arrow_simon_norep,2021.1.2,Win32,60.20469597,,,,,,,,,,,,,,,,,,,,,p,1,1.9955,TRUE,FALSE,9,3,39,1,1,,,,,,,
,,,,,,0,1.797662556,#a3d0fb,,right_blue.png,o,,,,,,o,right_blue.png,right_orange.png,p,right,60c9eb53daf4abb8c8b2f937,001,2021-07-19_05h56.19.847,arrow_simon_norep,2021.1.2,Win32,60.20469597,,,,,,,,,,,,,,,,,,,,,o,1,1.4536,FALSE,FALSE,10,0,40,1,1,,,,,,,
,,,,,,0,2.39743368,#f3af84,,right_orange.png,p,,,,,,o,right_blue.png,right_orange.png,p,right,60c9eb53daf4abb8c8b2f937,001,2021-07-19_05h56.19.847,arrow_simon_norep,2021.1.2,Win32,60.20469597,,,,,,,,,,,,,,,,,,,,,p,1,1.9712,TRUE,FALSE,10,1,41,1,1,,,,,,,
,,,,,,0,2.249218005,#a3d0fb,,right_blue.png,o,,,,,,o,right_blue.png,right_orange.png,p,left,60c9eb53daf4abb8c8b2f937,001,2021-07-19_05h56.19.847,arrow_simon_norep,2021.1.2,Win32,60.20469597,,,,,,,,,,,,,,,,,,,,,o,1,2.0865,TRUE,FALSE,10,2,42,0,1,,,,,,,
,,,,,,0,2.356611617,#f3af84,,left_orange.png,q,,,,,,w,left_blue.png,left_orange.png,q,left,60c9eb53daf4abb8c8b2f937,001,2021-07-19_05h56.19.847,arrow_simon_norep,2021.1.2,Win32,60.20469597,,,,,,,,,,,,,,,,,,,,,q,1,1.9016,TRUE,FALSE,10,3,43,2,1,,,,,,,
,,,,,,0,1.817777595,#a3d0fb,,left_blue.png,w,,,,,,w,left_blue.png,left_orange.png,q,right,60c9eb53daf4abb8c8b2f937,001,2021-07-19_05h56.19.847,arrow_simon_norep,2021.1.2,Win32,60.20469597,,,,,,,,,,,,,,,,,,,,,w,1,1.6085,TRUE,FALSE,11,0,44,3,1,,,,,,,
,,,,,,0,1.983842943,#f3af84,,right_orange.png,p,,,,,,o,right_blue.png,right_orange.png,p,right,60c9eb53daf4abb8c8b2f937,001,2021-07-19_05h56.19.847,arrow_simon_norep,2021.1.2,Win32,60.20469597,,,,,,,,,,,,,,,,,,,,,o,0,2.092,TRUE,FALSE,11,1,45,1,1,,,,,,,
,,,,,,0,2.006697124,#a3d0fb,,right_blue.png,o,,,,,,o,right_blue.png,right_orange.png,p,right,60c9eb53daf4abb8c8b2f937,001,2021-07-19_05h56.19.847,arrow_simon_norep,2021.1.2,Win32,60.20469597,,,,,,,,,,,,,,,,,,,,,o,1,1.8525,TRUE,FALSE,11,2,46,1,1,,,,,,,
,,,,,,0,1.940451843,#f3af84,,left_orange.png,q,,,,,,w,left_blue.png,left_orange.png,q,right,60c9eb53daf4abb8c8b2f937,001,2021-07-19_05h56.19.847,arrow_simon_norep,2021.1.2,Win32,60.20469597,,,,,,,,,,,,,,,,,,,,,q,1,1.6196,TRUE,FALSE,11,3,47,3,1,,,,,,,
,,,,,,0,1.638817773,#a3d0fb,,left_blue.png,w,,,,,,w,left_blue.png,left_orange.png,q,left,60c9eb53daf4abb8c8b2f937,001,2021-07-19_05h56.19.847,arrow_simon_norep,2021.1.2,Win32,60.20469597,,,,,,,,,,,,,,,,,,,,,w,1,1.1681,FALSE,TRUE,12,0,48,2,1,,,,,,,
,,,,,,1,2.048772691,#f3af84,,left_orange.png,q,,,,,,w,left_blue.png,left_orange.png,q,right,60c9eb53daf4abb8c8b2f937,001,2021-07-19_05h56.19.847,arrow_simon_norep,2021.1.2,Win32,60.20469597,,,,,,,,,,,,,,,,,,,,,p,0,1.4116,FALSE,FALSE,12,1,49,3,1,,,,,,,
,,,,,,1,1.555013383,#a3d0fb,,left_blue.png,w,,,,,,w,left_blue.png,left_orange.png,q,left,60c9eb53daf4abb8c8b2f937,001,2021-07-19_05h56.19.847,arrow_simon_norep,2021.1.2,Win32,60.20469597,,,,,,,,,,,,,,,,,,,,,w,1,1.2416,FALSE,TRUE,12,2,50,2,1,,,,,,,
,,,,,,1,1.631252898,#f3af84,,right_orange.png,p,,,,,,o,right_blue.png,right_orange.png,p,left,60c9eb53daf4abb8c8b2f937,001,2021-07-19_05h56.19.847,arrow_simon_norep,2021.1.2,Win32,60.20469597,,,,,,,,,,,,,,,,,,,,,p,1,1.3935,FALSE,TRUE,12,3,51,0,1,,,,,,,
,,,,,,0,1.846330712,#a3d0fb,,right_blue.png,o,,,,,,o,right_blue.png,right_orange.png,p,right,60c9eb53daf4abb8c8b2f937,001,2021-07-19_05h56.19.847,arrow_simon_norep,2021.1.2,Win32,60.20469597,,,,,,,,,,,,,,,,,,,,,o,1,1.5413,FALSE,FALSE,13,0,52,1,1,,,,,,,
,,,,,,0,2.210319788,#f3af84,,right_orange.png,p,,,,,,o,right_blue.png,right_orange.png,p,left,60c9eb53daf4abb8c8b2f937,001,2021-07-19_05h56.19.847,arrow_simon_norep,2021.1.2,Win32,60.20469597,,,,,,,,,,,,,,,,,,,,,p,1,2.0465,TRUE,FALSE,13,1,53,0,1,,,,,,,
,,,,,,1,2.026591529,#a3d0fb,,left_blue.png,w,,,,,,w,left_blue.png,left_orange.png,q,left,60c9eb53daf4abb8c8b2f937,001,2021-07-19_05h56.19.847,arrow_simon_norep,2021.1.2,Win32,60.20469597,,,,,,,,,,,,,,,,,,,,,q,0,1.5198,FALSE,FALSE,13,2,54,2,1,,,,,,,
,,,,,,0,1.869807796,#f3af84,,left_orange.png,q,,,,,,w,left_blue.png,left_orange.png,q,left,60c9eb53daf4abb8c8b2f937,001,2021-07-19_05h56.19.847,arrow_simon_norep,2021.1.2,Win32,60.20469597,,,,,,,,,,,,,,,,,,,,,q,1,1.5772,FALSE,FALSE,13,3,55,2,1,,,,,,,
,,,,,,0,2.373040803,#a3d0fb,,right_blue.png,o,,,,,,o,right_blue.png,right_orange.png,p,right,60c9eb53daf4abb8c8b2f937,001,2021-07-19_05h56.19.847,arrow_simon_norep,2021.1.2,Win32,60.20469597,,,,,,,,,,,,,,,,,,,,,o,1,2.1031,TRUE,FALSE,14,0,56,1,1,,,,,,,
,,,,,,0,1.538553911,#f3af84,,left_orange.png,q,,,,,,w,left_blue.png,left_orange.png,q,left,60c9eb53daf4abb8c8b2f937,001,2021-07-19_05h56.19.847,arrow_simon_norep,2021.1.2,Win32,60.20469597,,,,,,,,,,,,,,,,,,,,,q,1,1.1082,FALSE,TRUE,14,1,57,2,1,,,,,,,
,,,,,,0,2.29845259,#a3d0fb,,left_blue.png,w,,,,,,w,left_blue.png,left_orange.png,q,right,60c9eb53daf4abb8c8b2f937,001,2021-07-19_05h56.19.847,arrow_simon_norep,2021.1.2,Win32,60.20469597,,,,,,,,,,,,,,,,,,,,,w,1,1.9891,TRUE,FALSE,14,2,58,3,1,,,,,,,
,,,,,,0,2.369438916,#f3af84,,left_orange.png,q,,,,,,w,left_blue.png,left_orange.png,q,right,60c9eb53daf4abb8c8b2f937,001,2021-07-19_05h56.19.847,arrow_simon_norep,2021.1.2,Win32,60.20469597,,,,,,,,,,,,,,,,,,,,,q,1,2.3141,TRUE,FALSE,14,3,59,3,1,,,,,,,
,,,,,,,,,,,,,,,,,,,,,,60c9eb53daf4abb8c8b2f937,001,2021-07-19_05h56.19.847,arrow_simon_norep,2021.1.2,Win32,60.20469597,,,,,,,,,,,,,,,,,,,,,,,,,,,,,,,space,1.6933,1,0,1,0,1
,,,,,,0,1.871791822,#a3d0fb,,left_blue.png,w,,,,,,w,left_blue.png,left_orange.png,q,right,60c9eb53daf4abb8c8b2f937,001,2021-07-19_05h56.19.847,arrow_simon_norep,2021.1.2,Win32,60.20469597,,,,,,,,,,,,,,,,,,,,,o,0,1.6178,TRUE,FALSE,0,0,0,3,1,,,,,,,
,,,,,,0,2.251964801,#f3af84,,right_orange.png,p,,,,,,o,right_blue.png,right_orange.png,p,right,60c9eb53daf4abb8c8b2f937,001,2021-07-19_05h56.19.847,arrow_simon_norep,2021.1.2,Win32,60.20469597,,,,,,,,,,,,,,,,,,,,,q,0,1.9376,TRUE,FALSE,0,1,1,1,1,,,,,,,
,,,,,,0,1.744455242,#a3d0fb,,left_blue.png,w,,,,,,w,left_blue.png,left_orange.png,q,right,60c9eb53daf4abb8c8b2f937,001,2021-07-19_05h56.19.847,arrow_simon_norep,2021.1.2,Win32,60.20469597,,,,,,,,,,,,,,,,,,,,,w,1,1.4927,FALSE,FALSE,0,2,2,3,1,,,,,,,
,,,,,,0,1.893135512,#f3af84,,right_orange.png,p,,,,,,o,right_blue.png,right_orange.png,p,right,60c9eb53daf4abb8c8b2f937,001,2021-07-19_05h56.19.847,arrow_simon_norep,2021.1.2,Win32,60.20469597,,,,,,,,,,,,,,,,,,,,,p,1,1.6069,TRUE,FALSE,0,3,3,1,1,,,,,,,
,,,,,,0,2.187908583,#a3d0fb,,right_blue.png,o,,,,,,o,right_blue.png,right_orange.png,p,right,60c9eb53daf4abb8c8b2f937,001,2021-07-19_05h56.19.847,arrow_simon_norep,2021.1.2,Win32,60.20469597,,,,,,,,,,,,,,,,,,,,,o,1,1.8519,TRUE,FALSE,1,0,4,1,1,,,,,,,
,,,,,,0,2.378560909,#f3af84,,right_orange.png,p,,,,,,o,right_blue.png,right_orange.png,p,right,60c9eb53daf4abb8c8b2f937,001,2021-07-19_05h56.19.847,arrow_simon_norep,2021.1.2,Win32,60.20469597,,,,,,,,,,,,,,,,,,,,,p,1,2.023,TRUE,FALSE,1,1,5,1,1,,,,,,,
,,,,,,0,2.279248416,#a3d0fb,,right_blue.png,o,,,,,,o,right_blue.png,right_orange.png,p,left,60c9eb53daf4abb8c8b2f937,001,2021-07-19_05h56.19.847,arrow_simon_norep,2021.1.2,Win32,60.20469597,,,,,,,,,,,,,,,,,,,,,w,0,0.9211,FALSE,TRUE,1,2,6,0,1,,,,,,,
,,,,,,0,2.299852751,#f3af84,,left_orange.png,q,,,,,,w,left_blue.png,left_orange.png,q,left,60c9eb53daf4abb8c8b2f937,001,2021-07-19_05h56.19.847,arrow_simon_norep,2021.1.2,Win32,60.20469597,,,,,,,,,,,,,,,,,,,,,q,1,2.1736,TRUE,FALSE,1,3,7,2,1,,,,,,,
,,,,,,0,1.58947109,#a3d0fb,,left_blue.png,w,,,,,,w,left_blue.png,left_orange.png,q,left,60c9eb53daf4abb8c8b2f937,001,2021-07-19_05h56.19.847,arrow_simon_norep,2021.1.2,Win32,60.20469597,,,,,,,,,,,,,,,,,,,,,p,0,1.2874,FALSE,TRUE,2,0,8,2,1,,,,,,,
,,,,,,0,2.159822146,#f3af84,,right_orange.png,p,,,,,,o,right_blue.png,right_orange.png,p,left,60c9eb53daf4abb8c8b2f937,001,2021-07-19_05h56.19.847,arrow_simon_norep,2021.1.2,Win32,60.20469597,,,,,,,,,,,,,,,,,,,,,w,0,0.0289,FALSE,TRUE,2,1,9,0,1,,,,,,,
,,,,,,0,2.235461762,#a3d0fb,,left_blue.png,w,,,,,,w,left_blue.png,left_orange.png,q,left,60c9eb53daf4abb8c8b2f937,001,2021-07-19_05h56.19.847,arrow_simon_norep,2021.1.2,Win32,60.20469597,,,,,,,,,,,,,,,,,,,,,q,0,1.9747,TRUE,FALSE,2,2,10,2,1,,,,,,,
,,,,,,0,2.1419941,#f3af84,,right_orange.png,p,,,,,,o,right_blue.png,right_orange.png,p,left,60c9eb53daf4abb8c8b2f937,001,2021-07-19_05h56.19.847,arrow_simon_norep,2021.1.2,Win32,60.20469597,,,,,,,,,,,,,,,,,,,,,q,0,2.0373,TRUE,FALSE,2,3,11,0,1,,,,,,,
,,,,,,0,1.898764091,#a3d0fb,,left_blue.png,w,,,,,,w,left_blue.png,left_orange.png,q,right,60c9eb53daf4abb8c8b2f937,001,2021-07-19_05h56.19.847,arrow_simon_norep,2021.1.2,Win32,60.20469597,,,,,,,,,,,,,,,,,,,,,w,1,2.0131,TRUE,FALSE,3,0,12,3,1,,,,,,,
,,,,,,0,2.034301782,#f3af84,,right_orange.png,p,,,,,,o,right_blue.png,right_orange.png,p,left,60c9eb53daf4abb8c8b2f937,001,2021-07-19_05h56.19.847,arrow_simon_norep,2021.1.2,Win32,60.20469597,,,,,,,,,,,,,,,,,,,,,w,0,2.4642,TRUE,FALSE,3,1,13,0,1,,,,,,,
,,,,,,0,2.361245087,#a3d0fb,,right_blue.png,o,,,,,,o,right_blue.png,right_orange.png,p,left,60c9eb53daf4abb8c8b2f937,001,2021-07-19_05h56.19.847,arrow_simon_norep,2021.1.2,Win32,60.20469597,,,,,,,,,,,,,,,,,,,,,o,1,2.1756,TRUE,FALSE,3,2,14,0,1,,,,,,,
,,,,,,0,2.002269972,#f3af84,,right_orange.png,p,,,,,,o,right_blue.png,right_orange.png,p,right,60c9eb53daf4abb8c8b2f937,001,2021-07-19_05h56.19.847,arrow_simon_norep,2021.1.2,Win32,60.20469597,,,,,,,,,,,,,,,,,,,,,p,1,1.929,TRUE,FALSE,3,3,15,1,1,,,,,,,
,,,,,,0,2.107615454,#a3d0fb,,right_blue.png,o,,,,,,o,right_blue.png,right_orange.png,p,right,60c9eb53daf4abb8c8b2f937,001,2021-07-19_05h56.19.847,arrow_simon_norep,2021.1.2,Win32,60.20469597,,,,,,,,,,,,,,,,,,,,,o,1,1.9213,TRUE,FALSE,4,0,16,1,1,,,,,,,
,,,,,,0,1.504865375,#f3af84,,right_orange.png,p,,,,,,o,right_blue.png,right_orange.png,p,left,60c9eb53daf4abb8c8b2f937,001,2021-07-19_05h56.19.847,arrow_simon_norep,2021.1.2,Win32,60.20469597,,,,,,,,,,,,,,,,,,,,,p,1,1.2511,FALSE,TRUE,4,1,17,0,1,,,,,,,
,,,,,,0,2.176177146,#a3d0fb,,left_blue.png,w,,,,,,w,left_blue.png,left_orange.png,q,right,60c9eb53daf4abb8c8b2f937,001,2021-07-19_05h56.19.847,arrow_simon_norep,2021.1.2,Win32,60.20469597,,,,,,,,,,,,,,,,,,,,,w,1,1.9381,TRUE,FALSE,4,2,18,3,1,,,,,,,
,,,,,,0,2.456907267,#f3af84,,right_orange.png,p,,,,,,o,right_blue.png,right_orange.png,p,right,60c9eb53daf4abb8c8b2f937,001,2021-07-19_05h56.19.847,arrow_simon_norep,2021.1.2,Win32,60.20469597,,,,,,,,,,,,,,,,,,,,,p,1,2.2583,TRUE,FALSE,4,3,19,1,1,,,,,,,
,,,,,,0,2.012560268,#a3d0fb,,right_blue.png,o,,,,,,o,right_blue.png,right_orange.png,p,right,60c9eb53daf4abb8c8b2f937,001,2021-07-19_05h56.19.847,arrow_simon_norep,2021.1.2,Win32,60.20469597,,,,,,,,,,,,,,,,,,,,,o,1,1.7875,TRUE,FALSE,5,0,20,1,1,,,,,,,
,,,,,,0,1.534004294,#f3af84,,right_orange.png,p,,,,,,o,right_blue.png,right_orange.png,p,right,60c9eb53daf4abb8c8b2f937,001,2021-07-19_05h56.19.847,arrow_simon_norep,2021.1.2,Win32,60.20469597,,,,,,,,,,,,,,,,,,,,,p,1,1.3747,FALSE,TRUE,5,1,21,1,1,,,,,,,
,,,,,,0,2.464569032,#a3d0fb,,right_blue.png,o,,,,,,o,right_blue.png,right_orange.png,p,left,60c9eb53daf4abb8c8b2f937,001,2021-07-19_05h56.19.847,arrow_simon_norep,2021.1.2,Win32,60.20469597,,,,,,,,,,,,,,,,,,,,,w,0,2.4871,TRUE,FALSE,5,2,22,0,1,,,,,,,
,,,,,,0,2.129753085,#f3af84,,left_orange.png,q,,,,,,w,left_blue.png,left_orange.png,q,left,60c9eb53daf4abb8c8b2f937,001,2021-07-19_05h56.19.847,arrow_simon_norep,2021.1.2,Win32,60.20469597,,,,,,,,,,,,,,,,,,,,,q,1,1.787,TRUE,FALSE,5,3,23,2,1,,,,,,,
,,,,,,0,1.864898856,#a3d0fb,,left_blue.png,w,,,,,,w,left_blue.png,left_orange.png,q,left,60c9eb53daf4abb8c8b2f937,001,2021-07-19_05h56.19.847,arrow_simon_norep,2021.1.2,Win32,60.20469597,,,,,,,,,,,,,,,,,,,,,w,1,1.6112,TRUE,FALSE,6,0,24,2,1,,,,,,,
,,,,,,0,1.508388133,#f3af84,,right_orange.png,p,,,,,,o,right_blue.png,right_orange.png,p,right,60c9eb53daf4abb8c8b2f937,001,2021-07-19_05h56.19.847,arrow_simon_norep,2021.1.2,Win32,60.20469597,,,,,,,,,,,,,,,,,,,,,p,1,1.2725,FALSE,TRUE,6,1,25,1,1,,,,,,,
,,,,,,0,2.142261429,#a3d0fb,,left_blue.png,w,,,,,,w,left_blue.png,left_orange.png,q,left,60c9eb53daf4abb8c8b2f937,001,2021-07-19_05h56.19.847,arrow_simon_norep,2021.1.2,Win32,60.20469597,,,,,,,,,,,,,,,,,,,,,w,1,1.9683,TRUE,FALSE,6,2,26,2,1,,,,,,,
,,,,,,0,2.039490254,#f3af84,,left_orange.png,q,,,,,,w,left_blue.png,left_orange.png,q,right,60c9eb53daf4abb8c8b2f937,001,2021-07-19_05h56.19.847,arrow_simon_norep,2021.1.2,Win32,60.20469597,,,,,,,,,,,,,,,,,,,,,o,0,1.7607,TRUE,FALSE,6,3,27,3,1,,,,,,,
,,,,,,0,1.698599527,#a3d0fb,,left_blue.png,w,,,,,,w,left_blue.png,left_orange.png,q,right,60c9eb53daf4abb8c8b2f937,001,2021-07-19_05h56.19.847,arrow_simon_norep,2021.1.2,Win32,60.20469597,,,,,,,,,,,,,,,,,,,,,q,0,0.0845,FALSE,TRUE,7,0,28,3,1,,,,,,,
,,,,,,0,1.737415553,#f3af84,,right_orange.png,p,,,,,,o,right_blue.png,right_orange.png,p,left,60c9eb53daf4abb8c8b2f937,001,2021-07-19_05h56.19.847,arrow_simon_norep,2021.1.2,Win32,60.20469597,,,,,,,,,,,,,,,,,,,,,p,1,1.7058,TRUE,FALSE,7,1,29,0,1,,,,,,,
,,,,,,0,2.198725629,#a3d0fb,,right_blue.png,o,,,,,,o,right_blue.png,right_orange.png,p,left,60c9eb53daf4abb8c8b2f937,001,2021-07-19_05h56.19.847,arrow_simon_norep,2021.1.2,Win32,60.20469597,,,,,,,,,,,,,,,,,,,,,o,1,1.9522,TRUE,FALSE,7,2,30,0,1,,,,,,,
,,,,,,0,1.808493379,#f3af84,,right_orange.png,p,,,,,,o,right_blue.png,right_orange.png,p,left,60c9eb53daf4abb8c8b2f937,001,2021-07-19_05h56.19.847,arrow_simon_norep,2021.1.2,Win32,60.20469597,,,,,,,,,,,,,,,,,,,,,q,0,1.6265,TRUE,FALSE,7,3,31,0,1,,,,,,,
,,,,,,0,1.793844002,#a3d0fb,,left_blue.png,w,,,,,,w,left_blue.png,left_orange.png,q,right,60c9eb53daf4abb8c8b2f937,001,2021-07-19_05h56.19.847,arrow_simon_norep,2021.1.2,Win32,60.20469597,,,,,,,,,,,,,,,,,,,,,w,1,1.4527,FALSE,FALSE,8,0,32,3,1,,,,,,,
,,,,,,0,2.089493551,#f3af84,,left_orange.png,q,,,,,,w,left_blue.png,left_orange.png,q,left,60c9eb53daf4abb8c8b2f937,001,2021-07-19_05h56.19.847,arrow_simon_norep,2021.1.2,Win32,60.20469597,,,,,,,,,,,,,,,,,,,,,q,1,1.7445,TRUE,FALSE,8,1,33,2,1,,,,,,,
,,,,,,0,1.732290579,#a3d0fb,,right_blue.png,o,,,,,,o,right_blue.png,right_orange.png,p,left,60c9eb53daf4abb8c8b2f937,001,2021-07-19_05h56.19.847,arrow_simon_norep,2021.1.2,Win32,60.20469597,,,,,,,,,,,,,,,,,,,,,w,0,1.2553,FALSE,TRUE,8,2,34,0,1,,,,,,,
,,,,,,0,1.95194016,#f3af84,,left_orange.png,q,,,,,,w,left_blue.png,left_orange.png,q,right,60c9eb53daf4abb8c8b2f937,001,2021-07-19_05h56.19.847,arrow_simon_norep,2021.1.2,Win32,60.20469597,,,,,,,,,,,,,,,,,,,,,o,0,1.6638,TRUE,FALSE,8,3,35,3,1,,,,,,,
,,,,,,0,2.04253988,#a3d0fb,,left_blue.png,w,,,,,,w,left_blue.png,left_orange.png,q,right,60c9eb53daf4abb8c8b2f937,001,2021-07-19_05h56.19.847,arrow_simon_norep,2021.1.2,Win32,60.20469597,,,,,,,,,,,,,,,,,,,,,o,0,1.9179,TRUE,FALSE,9,0,36,3,1,,,,,,,
,,,,,,0,1.564560667,#f3af84,,left_orange.png,q,,,,,,w,left_blue.png,left_orange.png,q,right,60c9eb53daf4abb8c8b2f937,001,2021-07-19_05h56.19.847,arrow_simon_norep,2021.1.2,Win32,60.20469597,,,,,,,,,,,,,,,,,,,,,p,0,1.3646,FALSE,TRUE,9,1,37,3,1,,,,,,,
,,,,,,0,2.32419313,#a3d0fb,,left_blue.png,w,,,,,,w,left_blue.png,left_orange.png,q,right,60c9eb53daf4abb8c8b2f937,001,2021-07-19_05h56.19.847,arrow_simon_norep,2021.1.2,Win32,60.20469597,,,,,,,,,,,,,,,,,,,,,w,1,2.2979,TRUE,FALSE,9,2,38,3,1,,,,,,,
,,,,,,0,1.970443964,#f3af84,,left_orange.png,q,,,,,,w,left_blue.png,left_orange.png,q,right,60c9eb53daf4abb8c8b2f937,001,2021-07-19_05h56.19.847,arrow_simon_norep,2021.1.2,Win32,60.20469597,,,,,,,,,,,,,,,,,,,,,q,1,1.7347,TRUE,FALSE,9,3,39,3,1,,,,,,,
,,,,,,0,2.011197244,#a3d0fb,,left_blue.png,w,,,,,,w,left_blue.png,left_orange.png,q,left,60c9eb53daf4abb8c8b2f937,001,2021-07-19_05h56.19.847,arrow_simon_norep,2021.1.2,Win32,60.20469597,,,,,,,,,,,,,,,,,,,,,q,0,1.8179,TRUE,FALSE,10,0,40,2,1,,,,,,,
,,,,,,0,2.221952293,#f3af84,,left_orange.png,q,,,,,,w,left_blue.png,left_orange.png,q,left,60c9eb53daf4abb8c8b2f937,001,2021-07-19_05h56.19.847,arrow_simon_norep,2021.1.2,Win32,60.20469597,,,,,,,,,,,,,,,,,,,,,q,1,2.0012,TRUE,FALSE,10,1,41,2,1,,,,,,,
,,,,,,0,1.975994111,#a3d0fb,,left_blue.png,w,,,,,,w,left_blue.png,left_orange.png,q,left,60c9eb53daf4abb8c8b2f937,001,2021-07-19_05h56.19.847,arrow_simon_norep,2021.1.2,Win32,60.20469597,,,,,,,,,,,,,,,,,,,,,w,1,1.9014,TRUE,FALSE,10,2,42,2,1,,,,,,,
,,,,,,0,2.025853405,#f3af84,,right_orange.png,p,,,,,,o,right_blue.png,right_orange.png,p,right,60c9eb53daf4abb8c8b2f937,001,2021-07-19_05h56.19.847,arrow_simon_norep,2021.1.2,Win32,60.20469597,,,,,,,,,,,,,,,,,,,,,p,1,1.7077,TRUE,FALSE,10,3,43,1,1,,,,,,,
,,,,,,0,1.940740935,#a3d0fb,,right_blue.png,o,,,,,,o,right_blue.png,right_orange.png,p,right,60c9eb53daf4abb8c8b2f937,001,2021-07-19_05h56.19.847,arrow_simon_norep,2021.1.2,Win32,60.20469597,,,,,,,,,,,,,,,,,,,,,o,1,1.6006,TRUE,FALSE,11,0,44,1,1,,,,,,,
,,,,,,0,2.252192931,#f3af84,,left_orange.png,q,,,,,,w,left_blue.png,left_orange.png,q,right,60c9eb53daf4abb8c8b2f937,001,2021-07-19_05h56.19.847,arrow_simon_norep,2021.1.2,Win32,60.20469597,,,,,,,,,,,,,,,,,,,,,o,0,0.2575,FALSE,TRUE,11,1,45,3,1,,,,,,,
,,,,,,1,1.761197471,#a3d0fb,,right_blue.png,o,,,,,,o,right_blue.png,right_orange.png,p,right,60c9eb53daf4abb8c8b2f937,001,2021-07-19_05h56.19.847,arrow_simon_norep,2021.1.2,Win32,60.20469597,,,,,,,,,,,,,,,,,,,,,p,0,1.5011,FALSE,FALSE,11,2,46,1,1,,,,,,,
,,,,,,1,1.821809817,#f3af84,,left_orange.png,q,,,,,,w,left_blue.png,left_orange.png,q,left,60c9eb53daf4abb8c8b2f937,001,2021-07-19_05h56.19.847,arrow_simon_norep,2021.1.2,Win32,60.20469597,,,,,,,,,,,,,,,,,,,,,w,0,1.6014,TRUE,FALSE,11,3,47,2,1,,,,,,,
,,,,,,1,2.27046147,#a3d0fb,,right_blue.png,o,,,,,,o,right_blue.png,right_orange.png,p,right,60c9eb53daf4abb8c8b2f937,001,2021-07-19_05h56.19.847,arrow_simon_norep,2021.1.2,Win32,60.20469597,,,,,,,,,,,,,,,,,,,,,o,1,2.2512,TRUE,FALSE,12,0,48,1,1,,,,,,,
,,,,,,0,1.783108244,#f3af84,,left_orange.png,q,,,,,,w,left_blue.png,left_orange.png,q,left,60c9eb53daf4abb8c8b2f937,001,2021-07-19_05h56.19.847,arrow_simon_norep,2021.1.2,Win32,60.20469597,,,,,,,,,,,,,,,,,,,,,q,1,1.4667,FALSE,FALSE,12,1,49,2,1,,,,,,,
,,,,,,0,1.71912124,#a3d0fb,,left_blue.png,w,,,,,,w,left_blue.png,left_orange.png,q,left,60c9eb53daf4abb8c8b2f937,001,2021-07-19_05h56.19.847,arrow_simon_norep,2021.1.2,Win32,60.20469597,,,,,,,,,,,,,,,,,,,,,w,1,1.4354,FALSE,FALSE,12,2,50,2,1,,,,,,,
,,,,,,0,1.513649294,#f3af84,,right_orange.png,p,,,,,,o,right_blue.png,right_orange.png,p,left,60c9eb53daf4abb8c8b2f937,001,2021-07-19_05h56.19.847,arrow_simon_norep,2021.1.2,Win32,60.20469597,,,,,,,,,,,,,,,,,,,,,w,0,1.3221,FALSE,TRUE,12,3,51,0,1,,,,,,,
,,,,,,0,1.948426911,#a3d0fb,,right_blue.png,o,,,,,,o,right_blue.png,right_orange.png,p,left,60c9eb53daf4abb8c8b2f937,001,2021-07-19_05h56.19.847,arrow_simon_norep,2021.1.2,Win32,60.20469597,,,,,,,,,,,,,,,,,,,,,o,1,1.7178,TRUE,FALSE,13,0,52,0,1,,,,,,,
,,,,,,0,1.997852373,#f3af84,,right_orange.png,p,,,,,,o,right_blue.png,right_orange.png,p,left,60c9eb53daf4abb8c8b2f937,001,2021-07-19_05h56.19.847,arrow_simon_norep,2021.1.2,Win32,60.20469597,,,,,,,,,,,,,,,,,,,,,q,0,1.701,TRUE,FALSE,13,1,53,0,1,,,,,,,
,,,,,,0,2.375743407,#a3d0fb,,left_blue.png,w,,,,,,w,left_blue.png,left_orange.png,q,left,60c9eb53daf4abb8c8b2f937,001,2021-07-19_05h56.19.847,arrow_simon_norep,2021.1.2,Win32,60.20469597,,,,,,,,,,,,,,,,,,,,,w,1,2.1822,TRUE,FALSE,13,2,54,2,1,,,,,,,
,,,,,,0,2.199731349,#f3af84,,left_orange.png,q,,,,,,w,left_blue.png,left_orange.png,q,right,60c9eb53daf4abb8c8b2f937,001,2021-07-19_05h56.19.847,arrow_simon_norep,2021.1.2,Win32,60.20469597,,,,,,,,,,,,,,,,,,,,,q,1,1.9671,TRUE,FALSE,13,3,55,3,1,,,,,,,
,,,,,,0,1.935914419,#a3d0fb,,left_blue.png,w,,,,,,w,left_blue.png,left_orange.png,q,right,60c9eb53daf4abb8c8b2f937,001,2021-07-19_05h56.19.847,arrow_simon_norep,2021.1.2,Win32,60.20469597,,,,,,,,,,,,,,,,,,,,,w,1,1.6354,TRUE,FALSE,14,0,56,3,1,,,,,,,
,,,,,,0,1.546415627,#f3af84,,right_orange.png,p,,,,,,o,right_blue.png,right_orange.png,p,left,60c9eb53daf4abb8c8b2f937,001,2021-07-19_05h56.19.847,arrow_simon_norep,2021.1.2,Win32,60.20469597,,,,,,,,,,,,,,,,,,,,,p,1,1.3178,FALSE,TRUE,14,1,57,0,1,,,,,,,
,,,,,,0,2.271957948,#a3d0fb,,right_blue.png,o,,,,,,o,right_blue.png,right_orange.png,p,right,60c9eb53daf4abb8c8b2f937,001,2021-07-19_05h56.19.847,arrow_simon_norep,2021.1.2,Win32,60.20469597,,,,,,,,,,,,,,,,,,,,,o,1,1.9177,TRUE,FALSE,14,2,58,1,1,,,,,,,
,,,,,,0,2.253055802,#f3af84,,left_orange.png,q,,,,,,w,left_blue.png,left_orange.png,q,left,60c9eb53daf4abb8c8b2f937,001,2021-07-19_05h56.19.847,arrow_simon_norep,2021.1.2,Win32,60.20469597,,,,,,,,,,,,,,,,,,,,,q,1,1.7742,TRUE,FALSE,14,3,59,2,1,,,,,,,
,,,,,,,,,,,,,,,,,,,,,,60c9eb53daf4abb8c8b2f937,001,2021-07-19_05h56.19.847,arrow_simon_norep,2021.1.2,Win32,60.20469597,,,,,,,,,,,,,,,,,,,,,,,,,,,,,,,space,1.6511,2,0,2,0,1
,,,,,,1,2.089026934,#a3d0fb,,right_blue.png,o,,,,,,o,right_blue.png,right_orange.png,p,left,60c9eb53daf4abb8c8b2f937,001,2021-07-19_05h56.19.847,arrow_simon_norep,2021.1.2,Win32,60.20469597,,,,,,,,,,,,,,,,,,,,,q,0,1.5347,FALSE,FALSE,0,0,0,0,1,,,,,,,
,,,,,,0,1.970079248,#f3af84,,left_orange.png,q,,,,,,w,left_blue.png,left_orange.png,q,left,60c9eb53daf4abb8c8b2f937,001,2021-07-19_05h56.19.847,arrow_simon_norep,2021.1.2,Win32,60.20469597,,,,,,,,,,,,,,,,,,,,,q,1,1.5013,FALSE,FALSE,0,1,1,2,1,,,,,,,
,,,,,,0,1.672191735,#a3d0fb,,right_blue.png,o,,,,,,o,right_blue.png,right_orange.png,p,left,60c9eb53daf4abb8c8b2f937,001,2021-07-19_05h56.19.847,arrow_simon_norep,2021.1.2,Win32,60.20469597,,,,,,,,,,,,,,,,,,,,,w,0,1.3352,FALSE,TRUE,0,2,2,0,1,,,,,,,
,,,,,,1,1.870573854,#f3af84,,right_orange.png,p,,,,,,o,right_blue.png,right_orange.png,p,left,60c9eb53daf4abb8c8b2f937,001,2021-07-19_05h56.19.847,arrow_simon_norep,2021.1.2,Win32,60.20469597,,,,,,,,,,,,,,,,,,,,,q,0,1.5713,FALSE,FALSE,0,3,3,0,1,,,,,,,
,,,,,,1,2.109845069,#a3d0fb,,right_blue.png,o,,,,,,o,right_blue.png,right_orange.png,p,right,60c9eb53daf4abb8c8b2f937,001,2021-07-19_05h56.19.847,arrow_simon_norep,2021.1.2,Win32,60.20469597,,,,,,,,,,,,,,,,,,,,,o,1,1.8013,TRUE,FALSE,1,0,4,1,1,,,,,,,
,,,,,,1,2.391216617,#f3af84,,left_orange.png,q,,,,,,w,left_blue.png,left_orange.png,q,left,60c9eb53daf4abb8c8b2f937,001,2021-07-19_05h56.19.847,arrow_simon_norep,2021.1.2,Win32,60.20469597,,,,,,,,,,,,,,,,,,,,,w,0,1.968,TRUE,FALSE,1,1,5,2,1,,,,,,,
,,,,,,1,1.904477562,#a3d0fb,,right_blue.png,o,,,,,,o,right_blue.png,right_orange.png,p,left,60c9eb53daf4abb8c8b2f937,001,2021-07-19_05h56.19.847,arrow_simon_norep,2021.1.2,Win32,60.20469597,,,,,,,,,,,,,,,,,,,,,w,0,1.6678,TRUE,FALSE,1,2,6,0,1,,,,,,,
,,,,,,1,1.927502826,#f3af84,,left_orange.png,q,,,,,,w,left_blue.png,left_orange.png,q,right,60c9eb53daf4abb8c8b2f937,001,2021-07-19_05h56.19.847,arrow_simon_norep,2021.1.2,Win32,60.20469597,,,,,,,,,,,,,,,,,,,,,q,1,1.6343,TRUE,FALSE,1,3,7,3,1,,,,,,,
,,,,,,1,2.097513713,#a3d0fb,,left_blue.png,w,,,,,,w,left_blue.png,left_orange.png,q,right,60c9eb53daf4abb8c8b2f937,001,2021-07-19_05h56.19.847,arrow_simon_norep,2021.1.2,Win32,60.20469597,,,,,,,,,,,,,,,,,,,,,w,1,1.8149,TRUE,FALSE,2,0,8,3,1,,,,,,,
,,,,,,1,1.531342962,#f3af84,,left_orange.png,q,,,,,,w,left_blue.png,left_orange.png,q,left,60c9eb53daf4abb8c8b2f937,001,2021-07-19_05h56.19.847,arrow_simon_norep,2021.1.2,Win32,60.20469597,,,,,,,,,,,,,,,,,,,,,q,1,1.329,FALSE,TRUE,2,1,9,2,1,,,,,,,
,,,,,,1,1.500933541,#a3d0fb,,left_blue.png,w,,,,,,w,left_blue.png,left_orange.png,q,left,60c9eb53daf4abb8c8b2f937,001,2021-07-19_05h56.19.847,arrow_simon_norep,2021.1.2,Win32,60.20469597,,,,,,,,,,,,,,,,,,,,,w,1,1.119,FALSE,TRUE,2,2,10,2,1,,,,,,,
,,,,,,1,2.075544711,#f3af84,,left_orange.png,q,,,,,,w,left_blue.png,left_orange.png,q,right,60c9eb53daf4abb8c8b2f937,001,2021-07-19_05h56.19.847,arrow_simon_norep,2021.1.2,Win32,60.20469597,,,,,,,,,,,,,,,,,,,,,o,0,1.918,TRUE,FALSE,2,3,11,3,1,,,,,,,
,,,,,,0,1.779965784,#a3d0fb,,left_blue.png,w,,,,,,w,left_blue.png,left_orange.png,q,right,60c9eb53daf4abb8c8b2f937,001,2021-07-19_05h56.19.847,arrow_simon_norep,2021.1.2,Win32,60.20469597,,,,,,,,,,,,,,,,,,,,,w,1,1.5347,FALSE,FALSE,3,0,12,3,1,,,,,,,
,,,,,,0,1.551523265,#f3af84,,left_orange.png,q,,,,,,w,left_blue.png,left_orange.png,q,right,60c9eb53daf4abb8c8b2f937,001,2021-07-19_05h56.19.847,arrow_simon_norep,2021.1.2,Win32,60.20469597,,,,,,,,,,,,,,,,,,,,,q,1,1.2357,FALSE,TRUE,3,1,13,3,1,,,,,,,
,,,,,,0,2.083417792,#a3d0fb,,right_blue.png,o,,,,,,o,right_blue.png,right_orange.png,p,left,60c9eb53daf4abb8c8b2f937,001,2021-07-19_05h56.19.847,arrow_simon_norep,2021.1.2,Win32,60.20469597,,,,,,,,,,,,,,,,,,,,,o,1,1.7903,TRUE,FALSE,3,2,14,0,1,,,,,,,
,,,,,,0,2.126035572,#f3af84,,left_orange.png,q,,,,,,w,left_blue.png,left_orange.png,q,left,60c9eb53daf4abb8c8b2f937,001,2021-07-19_05h56.19.847,arrow_simon_norep,2021.1.2,Win32,60.20469597,,,,,,,,,,,,,,,,,,,,,q,1,1.7139,TRUE,FALSE,3,3,15,2,1,,,,,,,
,,,,,,0,1.830473522,#a3d0fb,,right_blue.png,o,,,,,,o,right_blue.png,right_orange.png,p,right,60c9eb53daf4abb8c8b2f937,001,2021-07-19_05h56.19.847,arrow_simon_norep,2021.1.2,Win32,60.20469597,,,,,,,,,,,,,,,,,,,,,o,1,1.5347,FALSE,FALSE,4,0,16,1,1,,,,,,,
,,,,,,0,2.364895882,#f3af84,,left_orange.png,q,,,,,,w,left_blue.png,left_orange.png,q,left,60c9eb53daf4abb8c8b2f937,001,2021-07-19_05h56.19.847,arrow_simon_norep,2021.1.2,Win32,60.20469597,,,,,,,,,,,,,,,,,,,,,w,0,2.9065,TRUE,FALSE,4,1,17,2,1,,,,,,,
,,,,,,0,2.467479738,#a3d0fb,,left_blue.png,w,,,,,,w,left_blue.png,left_orange.png,q,left,60c9eb53daf4abb8c8b2f937,001,2021-07-19_05h56.19.847,arrow_simon_norep,2021.1.2,Win32,60.20469597,,,,,,,,,,,,,,,,,,,,,q,0,2.3483,TRUE,FALSE,4,2,18,2,1,,,,,,,
,,,,,,0,1.793050018,#f3af84,,left_orange.png,q,,,,,,w,left_blue.png,left_orange.png,q,right,60c9eb53daf4abb8c8b2f937,001,2021-07-19_05h56.19.847,arrow_simon_norep,2021.1.2,Win32,60.20469597,,,,,,,,,,,,,,,,,,,,,o,0,7.2013,TRUE,FALSE,4,3,19,3,1,,,,,,,
,,,,,,0,2.051729432,#a3d0fb,,left_blue.png,w,,,,,,w,left_blue.png,left_orange.png,q,right,60c9eb53daf4abb8c8b2f937,001,2021-07-19_05h56.19.847,arrow_simon_norep,2021.1.2,Win32,60.20469597,,,,,,,,,,,,,,,,,,,,,p,0,0.151,FALSE,TRUE,5,0,20,3,1,,,,,,,
,,,,,,0,1.64815188,#f3af84,,left_orange.png,q,,,,,,w,left_blue.png,left_orange.png,q,left,60c9eb53daf4abb8c8b2f937,001,2021-07-19_05h56.19.847,arrow_simon_norep,2021.1.2,Win32,60.20469597,,,,,,,,,,,,,,,,,,,,,p,0,1.6845,TRUE,FALSE,5,1,21,2,1,,,,,,,
,,,,,,0,2.028090487,#a3d0fb,,left_blue.png,w,,,,,,w,left_blue.png,left_orange.png,q,right,60c9eb53daf4abb8c8b2f937,001,2021-07-19_05h56.19.847,arrow_simon_norep,2021.1.2,Win32,60.20469597,,,,,,,,,,,,,,,,,,,,,p,0,1.3643,FALSE,TRUE,5,2,22,3,1,,,,,,,
,,,,,,0,1.962565453,#f3af84,,right_orange.png,p,,,,,,o,right_blue.png,right_orange.png,p,right,60c9eb53daf4abb8c8b2f937,001,2021-07-19_05h56.19.847,arrow_simon_norep,2021.1.2,Win32,60.20469597,,,,,,,,,,,,,,,,,,,,,o,0,1.7277,TRUE,FALSE,5,3,23,1,1,,,,,,,
,,,,,,0,2.11839235,#a3d0fb,,right_blue.png,o,,,,,,o,right_blue.png,right_orange.png,p,left,60c9eb53daf4abb8c8b2f937,001,2021-07-19_05h56.19.847,arrow_simon_norep,2021.1.2,Win32,60.20469597,,,,,,,,,,,,,,,,,,,,,p,0,0.3346,FALSE,TRUE,6,0,24,0,1,,,,,,,
,,,,,,0,1.911621063,#f3af84,,left_orange.png,q,,,,,,w,left_blue.png,left_orange.png,q,right,60c9eb53daf4abb8c8b2f937,001,2021-07-19_05h56.19.847,arrow_simon_norep,2021.1.2,Win32,60.20469597,,,,,,,,,,,,,,,,,,,,,q,1,5.4519,TRUE,FALSE,6,1,25,3,1,,,,,,,
,,,,,,1,2.155433024,#a3d0fb,,right_blue.png,o,,,,,,o,right_blue.png,right_orange.png,p,right,60c9eb53daf4abb8c8b2f937,001,2021-07-19_05h56.19.847,arrow_simon_norep,2021.1.2,Win32,60.20469597,,,,,,,,,,,,,,,,,,,,,w,0,1.5346,FALSE,FALSE,6,2,26,1,1,,,,,,,
,,,,,,1,2.336299029,#f3af84,,left_orange.png,q,,,,,,w,left_blue.png,left_orange.png,q,left,60c9eb53daf4abb8c8b2f937,001,2021-07-19_05h56.19.847,arrow_simon_norep,2021.1.2,Win32,60.20469597,,,,,,,,,,,,,,,,,,,,,q,1,1.1146,FALSE,TRUE,6,3,27,2,1,,,,,,,
,,,,,,1,2.294180364,#a3d0fb,,right_blue.png,o,,,,,,o,right_blue.png,right_orange.png,p,right,60c9eb53daf4abb8c8b2f937,001,2021-07-19_05h56.19.847,arrow_simon_norep,2021.1.2,Win32,60.20469597,,,,,,,,,,,,,,,,,,,,,w,0,1.661,TRUE,FALSE,7,0,28,1,1,,,,,,,
,,,,,,1,1.633128557,#f3af84,,right_orange.png,p,,,,,,o,right_blue.png,right_orange.png,p,left,60c9eb53daf4abb8c8b2f937,001,2021-07-19_05h56.19.847,arrow_simon_norep,2021.1.2,Win32,60.20469597,,,,,,,,,,,,,,,,,,,,,w,0,0.9011,FALSE,TRUE,7,1,29,0,1,,,,,,,
,,,,,,0,1.889810365,#a3d0fb,,left_blue.png,w,,,,,,w,left_blue.png,left_orange.png,q,right,60c9eb53daf4abb8c8b2f937,001,2021-07-19_05h56.19.847,arrow_simon_norep,2021.1.2,Win32,60.20469597,,,,,,,,,,,,,,,,,,,,,w,1,1.5346,FALSE,FALSE,7,2,30,3,1,,,,,,,
,,,,,,0,2.447358411,#f3af84,,right_orange.png,p,,,,,,o,right_blue.png,right_orange.png,p,right,60c9eb53daf4abb8c8b2f937,001,2021-07-19_05h56.19.847,arrow_simon_norep,2021.1.2,Win32,60.20469597,,,,,,,,,,,,,,,,,,,,,q,0,4.0849,TRUE,FALSE,7,3,31,1,1,,,,,,,
,,,,,,1,1.927319496,#a3d0fb,,left_blue.png,w,,,,,,w,left_blue.png,left_orange.png,q,right,60c9eb53daf4abb8c8b2f937,001,2021-07-19_05h56.19.847,arrow_simon_norep,2021.1.2,Win32,60.20469597,,,,,,,,,,,,,,,,,,,,,q,0,1.418,FALSE,FALSE,8,0,32,3,1,,,,,,,
,,,,,,1,2.082362076,#f3af84,,left_orange.png,q,,,,,,w,left_blue.png,left_orange.png,q,right,60c9eb53daf4abb8c8b2f937,001,2021-07-19_05h56.19.847,arrow_simon_norep,2021.1.2,Win32,60.20469597,,,,,,,,,,,,,,,,,,,,,o,0,1.6814,TRUE,FALSE,8,1,33,3,1,,,,,,,
,,,,,,1,2.378677174,#a3d0fb,,right_blue.png,o,,,,,,o,right_blue.png,right_orange.png,p,right,60c9eb53daf4abb8c8b2f937,001,2021-07-19_05h56.19.847,arrow_simon_norep,2021.1.2,Win32,60.20469597,,,,,,,,,,,,,,,,,,,,,o,1,2.0505,TRUE,FALSE,8,2,34,1,1,,,,,,,
,,,,,,1,2.23836287,#f3af84,,left_orange.png,q,,,,,,w,left_blue.png,left_orange.png,q,right,60c9eb53daf4abb8c8b2f937,001,2021-07-19_05h56.19.847,arrow_simon_norep,2021.1.2,Win32,60.20469597,,,,,,,,,,,,,,,,,,,,,q,1,1.8588,TRUE,FALSE,8,3,35,3,1,,,,,,,
,,,,,,1,1.54164818,#a3d0fb,,right_blue.png,o,,,,,,o,right_blue.png,right_orange.png,p,left,60c9eb53daf4abb8c8b2f937,001,2021-07-19_05h56.19.847,arrow_simon_norep,2021.1.2,Win32,60.20469597,,,,,,,,,,,,,,,,,,,,,w,0,1.2016,FALSE,TRUE,9,0,36,0,1,,,,,,,
,,,,,,1,2.381069235,#f3af84,,right_orange.png,p,,,,,,o,right_blue.png,right_orange.png,p,right,60c9eb53daf4abb8c8b2f937,001,2021-07-19_05h56.19.847,arrow_simon_norep,2021.1.2,Win32,60.20469597,,,,,,,,,,,,,,,,,,,,,p,1,2.1844,TRUE,FALSE,9,1,37,1,1,,,,,,,
,,,,,,0,1.652077171,#a3d0fb,,right_blue.png,o,,,,,,o,right_blue.png,right_orange.png,p,right,60c9eb53daf4abb8c8b2f937,001,2021-07-19_05h56.19.847,arrow_simon_norep,2021.1.2,Win32,60.20469597,,,,,,,,,,,,,,,,,,,,,o,1,1.4011,FALSE,FALSE,9,2,38,1,1,,,,,,,
,,,,,,0,2.122677594,#f3af84,,right_orange.png,p,,,,,,o,right_blue.png,right_orange.png,p,right,60c9eb53daf4abb8c8b2f937,001,2021-07-19_05h56.19.847,arrow_simon_norep,2021.1.2,Win32,60.20469597,,,,,,,,,,,,,,,,,,,,,p,1,1.8138,TRUE,FALSE,9,3,39,1,1,,,,,,,
,,,,,,1,1.946619235,#a3d0fb,,right_blue.png,o,,,,,,o,right_blue.png,right_orange.png,p,right,60c9eb53daf4abb8c8b2f937,001,2021-07-19_05h56.19.847,arrow_simon_norep,2021.1.2,Win32,60.20469597,,,,,,,,,,,,,,,,,,,,,p,0,1.5848,FALSE,FALSE,10,0,40,1,1,,,,,,,
,,,,,,1,2.143485918,#f3af84,,left_orange.png,q,,,,,,w,left_blue.png,left_orange.png,q,right,60c9eb53daf4abb8c8b2f937,001,2021-07-19_05h56.19.847,arrow_simon_norep,2021.1.2,Win32,60.20469597,,,,,,,,,,,,,,,,,,,,,q,1,1.8181,TRUE,FALSE,10,1,41,3,1,,,,,,,
,,,,,,1,2.249609849,#a3d0fb,,right_blue.png,o,,,,,,o,right_blue.png,right_orange.png,p,left,60c9eb53daf4abb8c8b2f937,001,2021-07-19_05h56.19.847,arrow_simon_norep,2021.1.2,Win32,60.20469597,,,,,,,,,,,,,,,,,,,,,o,1,2.0513,TRUE,FALSE,10,2,42,0,1,,,,,,,
,,,,,,1,1.523028776,#f3af84,,right_orange.png,p,,,,,,o,right_blue.png,right_orange.png,p,right,60c9eb53daf4abb8c8b2f937,001,2021-07-19_05h56.19.847,arrow_simon_norep,2021.1.2,Win32,60.20469597,,,,,,,,,,,,,,,,,,,,,p,1,1.3345,FALSE,TRUE,10,3,43,1,1,,,,,,,
,,,,,,1,1.502613527,#a3d0fb,,right_blue.png,o,,,,,,o,right_blue.png,right_orange.png,p,right,60c9eb53daf4abb8c8b2f937,001,2021-07-19_05h56.19.847,arrow_simon_norep,2021.1.2,Win32,60.20469597,,,,,,,,,,,,,,,,,,,,,o,1,1.3012,FALSE,TRUE,11,0,44,1,1,,,,,,,
,,,,,,1,1.600250695,#f3af84,,right_orange.png,p,,,,,,o,right_blue.png,right_orange.png,p,left,60c9eb53daf4abb8c8b2f937,001,2021-07-19_05h56.19.847,arrow_simon_norep,2021.1.2,Win32,60.20469597,,,,,,,,,,,,,,,,,,,,,q,0,1.5547,FALSE,FALSE,11,1,45,0,1,,,,,,,
,,,,,,0,1.68557064,#a3d0fb,,right_blue.png,o,,,,,,o,right_blue.png,right_orange.png,p,left,60c9eb53daf4abb8c8b2f937,001,2021-07-19_05h56.19.847,arrow_simon_norep,2021.1.2,Win32,60.20469597,,,,,,,,,,,,,,,,,,,,,o,1,1.4882,FALSE,FALSE,11,2,46,0,1,,,,,,,
,,,,,,0,2.369380106,#f3af84,,right_orange.png,p,,,,,,o,right_blue.png,right_orange.png,p,left,60c9eb53daf4abb8c8b2f937,001,2021-07-19_05h56.19.847,arrow_simon_norep,2021.1.2,Win32,60.20469597,,,,,,,,,,,,,,,,,,,,,p,1,2.1555,TRUE,FALSE,11,3,47,0,1,,,,,,,
,,,,,,0,1.599779857,#a3d0fb,,right_blue.png,o,,,,,,o,right_blue.png,right_orange.png,p,right,60c9eb53daf4abb8c8b2f937,001,2021-07-19_05h56.19.847,arrow_simon_norep,2021.1.2,Win32,60.20469597,,,,,,,,,,,,,,,,,,,,,p,0,1.3884,FALSE,TRUE,12,0,48,1,1,,,,,,,
,,,,,,0,2.117923043,#f3af84,,left_orange.png,q,,,,,,w,left_blue.png,left_orange.png,q,left,60c9eb53daf4abb8c8b2f937,001,2021-07-19_05h56.19.847,arrow_simon_norep,2021.1.2,Win32,60.20469597,,,,,,,,,,,,,,,,,,,,,q,1,1.8255,TRUE,FALSE,12,1,49,2,1,,,,,,,
,,,,,,0,2.04385641,#a3d0fb,,right_blue.png,o,,,,,,o,right_blue.png,right_orange.png,p,left,60c9eb53daf4abb8c8b2f937,001,2021-07-19_05h56.19.847,arrow_simon_norep,2021.1.2,Win32,60.20469597,,,,,,,,,,,,,,,,,,,,,o,1,1.8095,TRUE,FALSE,12,2,50,0,1,,,,,,,
,,,,,,0,2.473827136,#f3af84,,left_orange.png,q,,,,,,w,left_blue.png,left_orange.png,q,left,60c9eb53daf4abb8c8b2f937,001,2021-07-19_05h56.19.847,arrow_simon_norep,2021.1.2,Win32,60.20469597,,,,,,,,,,,,,,,,,,,,,q,1,2.0208,TRUE,FALSE,12,3,51,2,1,,,,,,,
,,,,,,0,2.078933158,#a3d0fb,,right_blue.png,o,,,,,,o,right_blue.png,right_orange.png,p,left,60c9eb53daf4abb8c8b2f937,001,2021-07-19_05h56.19.847,arrow_simon_norep,2021.1.2,Win32,60.20469597,,,,,,,,,,,,,,,,,,,,,w,0,1.9058,TRUE,FALSE,13,0,52,0,1,,,,,,,
,,,,,,0,1.566027012,#f3af84,,right_orange.png,p,,,,,,o,right_blue.png,right_orange.png,p,left,60c9eb53daf4abb8c8b2f937,001,2021-07-19_05h56.19.847,arrow_simon_norep,2021.1.2,Win32,60.20469597,,,,,,,,,,,,,,,,,,,,,q,0,1.3877,FALSE,TRUE,13,1,53,0,1,,,,,,,
