instruct_resp_simon.keys,instruct_resp_simon.corr,instruct_resp_simon.rt,trial_resp_simon.keys,trial_resp_simon.corr,trial_resp_simon.rt,kerr,target_onset,target_color,target_pos,target_file,target_resp,trials_train_simon.thisRepN,trials_train_simon.thisTrialN,trials_train_simon.thisN,trials_train_simon.thisIndex,trials_train_simon.ran,odd_target_resp,odd_target_file,even_target_file,even_target_resp,target_side,participant,session,date,expName,psychopyVersion,OS,frameRate,train_block_note_resp.keys,train_block_note_resp.rt,blocks_train.thisRepN,blocks_train.thisTrialN,blocks_train.thisN,blocks_train.thisIndex,blocks_train.ran,instruct_resp_timing.keys,instruct_resp_timing.corr,instruct_resp_timing.rt,trial_resp_timing.keys,trial_resp_timing.rt,trials_train_timing.thisRepN,trials_train_timing.thisTrialN,trials_train_timing.thisN,trials_train_timing.thisIndex,trials_train_timing.ran,instruct_resp.keys,instruct_resp.corr,instruct_resp.rt,trial_resp.keys,trial_resp.corr,trial_resp.rt,trial_num,too_slow,too_soon,trials.thisRepN,trials.thisTrialN,trials.thisN,trials.thisIndex,trials.ran,block_note_resp.keys,block_note_resp.rt,blocks.thisRepN,blocks.thisTrialN,blocks.thisN,blocks.thisIndex,blocks.ran
space,0,104.5561,w,1,3.7443,0,0.588937385,#a3d0fb,,left_blue.png,w,0,0,0,3,1,w,left_blue.png,left_orange.png,q,right,60d13c261171b69977e81f9b,001,2021-08-01_13h58.32.383,arrow_simon_norep,2021.1.2,MacIntel,60.0024001,,,,,,,,,,,,,,,,,,,,,,,,,,,,,,,,,,,,,,
,,,p,1,2.2467,0,0.883603427,#f3af84,,right_orange.png,p,0,1,1,0,1,o,right_blue.png,right_orange.png,p,left,60d13c261171b69977e81f9b,001,2021-08-01_13h58.32.383,arrow_simon_norep,2021.1.2,MacIntel,60.0024001,,,,,,,,,,,,,,,,,,,,,,,,,,,,,,,,,,,,,,
,,,o,1,1.6298,0,0.511758564,#a3d0fb,,right_blue.png,o,0,2,2,1,1,o,right_blue.png,right_orange.png,p,right,60d13c261171b69977e81f9b,001,2021-08-01_13h58.32.383,arrow_simon_norep,2021.1.2,MacIntel,60.0024001,,,,,,,,,,,,,,,,,,,,,,,,,,,,,,,,,,,,,,
,,,q,0,1.3639,1,0.425422362,#f3af84,,right_orange.png,p,0,3,3,0,1,o,right_blue.png,right_orange.png,p,left,60d13c261171b69977e81f9b,001,2021-08-01_13h58.32.383,arrow_simon_norep,2021.1.2,MacIntel,60.0024001,,,,,,,,,,,,,,,,,,,,,,,,,,,,,,,,,,,,,,
,,,p,0,1.5422,1,0.518597455,#a3d0fb,,left_blue.png,w,1,0,4,3,1,w,left_blue.png,left_orange.png,q,right,60d13c261171b69977e81f9b,001,2021-08-01_13h58.32.383,arrow_simon_norep,2021.1.2,MacIntel,60.0024001,,,,,,,,,,,,,,,,,,,,,,,,,,,,,,,,,,,,,,
,,,p,1,2.2142,0,0.176551277,#f3af84,,right_orange.png,p,1,1,5,0,1,o,right_blue.png,right_orange.png,p,left,60d13c261171b69977e81f9b,001,2021-08-01_13h58.32.383,arrow_simon_norep,2021.1.2,MacIntel,60.0024001,,,,,,,,,,,,,,,,,,,,,,,,,,,,,,,,,,,,,,
,,,o,1,1.2772,0,0.080053927,#a3d0fb,,right_blue.png,o,1,2,6,1,1,o,right_blue.png,right_orange.png,p,right,60d13c261171b69977e81f9b,001,2021-08-01_13h58.32.383,arrow_simon_norep,2021.1.2,MacIntel,60.0024001,,,,,,,,,,,,,,,,,,,,,,,,,,,,,,,,,,,,,,
,,,o,0,1.4697,1,0.252112958,#f3af84,,right_orange.png,p,1,3,7,1,1,o,right_blue.png,right_orange.png,p,right,60d13c261171b69977e81f9b,001,2021-08-01_13h58.32.383,arrow_simon_norep,2021.1.2,MacIntel,60.0024001,,,,,,,,,,,,,,,,,,,,,,,,,,,,,,,,,,,,,,
,,,p,0,1.5782,1,0.969625739,#a3d0fb,,right_blue.png,o,2,0,8,1,1,o,right_blue.png,right_orange.png,p,right,60d13c261171b69977e81f9b,001,2021-08-01_13h58.32.383,arrow_simon_norep,2021.1.2,MacIntel,60.0024001,,,,,,,,,,,,,,,,,,,,,,,,,,,,,,,,,,,,,,
,,,w,0,2.1662,1,0.288142153,#f3af84,,left_orange.png,q,2,1,9,3,1,w,left_blue.png,left_orange.png,q,right,60d13c261171b69977e81f9b,001,2021-08-01_13h58.32.383,arrow_simon_norep,2021.1.2,MacIntel,60.0024001,,,,,,,,,,,,,,,,,,,,,,,,,,,,,,,,,,,,,,
,,,q,0,1.4202,1,0.790031156,#a3d0fb,,left_blue.png,w,2,2,10,3,1,w,left_blue.png,left_orange.png,q,right,60d13c261171b69977e81f9b,001,2021-08-01_13h58.32.383,arrow_simon_norep,2021.1.2,MacIntel,60.0024001,,,,,,,,,,,,,,,,,,,,,,,,,,,,,,,,,,,,,,
,,,q,1,1.6184,0,0.37972648,#f3af84,,left_orange.png,q,2,3,11,3,1,w,left_blue.png,left_orange.png,q,right,60d13c261171b69977e81f9b,001,2021-08-01_13h58.32.383,arrow_simon_norep,2021.1.2,MacIntel,60.0024001,,,,,,,,,,,,,,,,,,,,,,,,,,,,,,,,,,,,,,
,,,w,1,1.4286,0,0.153959189,#a3d0fb,,left_blue.png,w,3,0,12,3,1,w,left_blue.png,left_orange.png,q,right,60d13c261171b69977e81f9b,001,2021-08-01_13h58.32.383,arrow_simon_norep,2021.1.2,MacIntel,60.0024001,,,,,,,,,,,,,,,,,,,,,,,,,,,,,,,,,,,,,,
,,,p,1,2.5823,0,0.926615287,#f3af84,,right_orange.png,p,3,1,13,0,1,o,right_blue.png,right_orange.png,p,left,60d13c261171b69977e81f9b,001,2021-08-01_13h58.32.383,arrow_simon_norep,2021.1.2,MacIntel,60.0024001,,,,,,,,,,,,,,,,,,,,,,,,,,,,,,,,,,,,,,
,,,w,1,1.6139,0,0.442310804,#a3d0fb,,left_blue.png,w,3,2,14,2,1,w,left_blue.png,left_orange.png,q,left,60d13c261171b69977e81f9b,001,2021-08-01_13h58.32.383,arrow_simon_norep,2021.1.2,MacIntel,60.0024001,,,,,,,,,,,,,,,,,,,,,,,,,,,,,,,,,,,,,,
,,,q,1,1.5448,0,0.118366329,#f3af84,,left_orange.png,q,3,3,15,2,1,w,left_blue.png,left_orange.png,q,left,60d13c261171b69977e81f9b,001,2021-08-01_13h58.32.383,arrow_simon_norep,2021.1.2,MacIntel,60.0024001,,,,,,,,,,,,,,,,,,,,,,,,,,,,,,,,,,,,,,
,,,o,1,2.2825,0,0.307397471,#a3d0fb,,right_blue.png,o,4,0,16,0,1,o,right_blue.png,right_orange.png,p,left,60d13c261171b69977e81f9b,001,2021-08-01_13h58.32.383,arrow_simon_norep,2021.1.2,MacIntel,60.0024001,,,,,,,,,,,,,,,,,,,,,,,,,,,,,,,,,,,,,,
,,,p,1,1.3495,0,0.756033669,#f3af84,,right_orange.png,p,4,1,17,1,1,o,right_blue.png,right_orange.png,p,right,60d13c261171b69977e81f9b,001,2021-08-01_13h58.32.383,arrow_simon_norep,2021.1.2,MacIntel,60.0024001,,,,,,,,,,,,,,,,,,,,,,,,,,,,,,,,,,,,,,
,,,o,1,2.0951,0,0.864453799,#a3d0fb,,right_blue.png,o,4,2,18,0,1,o,right_blue.png,right_orange.png,p,left,60d13c261171b69977e81f9b,001,2021-08-01_13h58.32.383,arrow_simon_norep,2021.1.2,MacIntel,60.0024001,,,,,,,,,,,,,,,,,,,,,,,,,,,,,,,,,,,,,,
,,,p,1,1.8516,0,0.762562434,#f3af84,,right_orange.png,p,4,3,19,0,1,o,right_blue.png,right_orange.png,p,left,60d13c261171b69977e81f9b,001,2021-08-01_13h58.32.383,arrow_simon_norep,2021.1.2,MacIntel,60.0024001,,,,,,,,,,,,,,,,,,,,,,,,,,,,,,,,,,,,,,
,,,o,1,1.5488,0,0.248460643,#a3d0fb,,right_blue.png,o,5,0,20,1,1,o,right_blue.png,right_orange.png,p,right,60d13c261171b69977e81f9b,001,2021-08-01_13h58.32.383,arrow_simon_norep,2021.1.2,MacIntel,60.0024001,,,,,,,,,,,,,,,,,,,,,,,,,,,,,,,,,,,,,,
,,,q,1,2.8122,0,0.883980616,#f3af84,,left_orange.png,q,5,1,21,3,1,w,left_blue.png,left_orange.png,q,right,60d13c261171b69977e81f9b,001,2021-08-01_13h58.32.383,arrow_simon_norep,2021.1.2,MacIntel,60.0024001,,,,,,,,,,,,,,,,,,,,,,,,,,,,,,,,,,,,,,
,,,w,1,3.0526,0,0.77079593,#a3d0fb,,left_blue.png,w,5,2,22,2,1,w,left_blue.png,left_orange.png,q,left,60d13c261171b69977e81f9b,001,2021-08-01_13h58.32.383,arrow_simon_norep,2021.1.2,MacIntel,60.0024001,,,,,,,,,,,,,,,,,,,,,,,,,,,,,,,,,,,,,,
,,,p,1,1.3636,0,0.625373103,#f3af84,,right_orange.png,p,5,3,23,0,1,o,right_blue.png,right_orange.png,p,left,60d13c261171b69977e81f9b,001,2021-08-01_13h58.32.383,arrow_simon_norep,2021.1.2,MacIntel,60.0024001,,,,,,,,,,,,,,,,,,,,,,,,,,,,,,,,,,,,,,
,,,o,1,1.4164,0,0.673374263,#a3d0fb,,right_blue.png,o,6,0,24,0,1,o,right_blue.png,right_orange.png,p,left,60d13c261171b69977e81f9b,001,2021-08-01_13h58.32.383,arrow_simon_norep,2021.1.2,MacIntel,60.0024001,,,,,,,,,,,,,,,,,,,,,,,,,,,,,,,,,,,,,,
,,,p,1,1.5169,0,0.518666192,#f3af84,,right_orange.png,p,6,1,25,0,1,o,right_blue.png,right_orange.png,p,left,60d13c261171b69977e81f9b,001,2021-08-01_13h58.32.383,arrow_simon_norep,2021.1.2,MacIntel,60.0024001,,,,,,,,,,,,,,,,,,,,,,,,,,,,,,,,,,,,,,
,,,w,1,1.7014,0,0.992739152,#a3d0fb,,left_blue.png,w,6,2,26,2,1,w,left_blue.png,left_orange.png,q,left,60d13c261171b69977e81f9b,001,2021-08-01_13h58.32.383,arrow_simon_norep,2021.1.2,MacIntel,60.0024001,,,,,,,,,,,,,,,,,,,,,,,,,,,,,,,,,,,,,,
,,,p,1,1.9039,0,0.613858676,#f3af84,,right_orange.png,p,6,3,27,0,1,o,right_blue.png,right_orange.png,p,left,60d13c261171b69977e81f9b,001,2021-08-01_13h58.32.383,arrow_simon_norep,2021.1.2,MacIntel,60.0024001,,,,,,,,,,,,,,,,,,,,,,,,,,,,,,,,,,,,,,
,,,w,1,1.6988,0,0.230146363,#a3d0fb,,left_blue.png,w,7,0,28,2,1,w,left_blue.png,left_orange.png,q,left,60d13c261171b69977e81f9b,001,2021-08-01_13h58.32.383,arrow_simon_norep,2021.1.2,MacIntel,60.0024001,,,,,,,,,,,,,,,,,,,,,,,,,,,,,,,,,,,,,,
,,,p,0,2.1135,1,0.403247866,#f3af84,,left_orange.png,q,7,1,29,3,1,w,left_blue.png,left_orange.png,q,right,60d13c261171b69977e81f9b,001,2021-08-01_13h58.32.383,arrow_simon_norep,2021.1.2,MacIntel,60.0024001,,,,,,,,,,,,,,,,,,,,,,,,,,,,,,,,,,,,,,
,,,w,1,2.0689,0,0.561958196,#a3d0fb,,left_blue.png,w,7,2,30,2,1,w,left_blue.png,left_orange.png,q,left,60d13c261171b69977e81f9b,001,2021-08-01_13h58.32.383,arrow_simon_norep,2021.1.2,MacIntel,60.0024001,,,,,,,,,,,,,,,,,,,,,,,,,,,,,,,,,,,,,,
,,,q,1,1.6292,0,0.869287615,#f3af84,,left_orange.png,q,7,3,31,2,1,w,left_blue.png,left_orange.png,q,left,60d13c261171b69977e81f9b,001,2021-08-01_13h58.32.383,arrow_simon_norep,2021.1.2,MacIntel,60.0024001,,,,,,,,,,,,,,,,,,,,,,,,,,,,,,,,,,,,,,
,,,o,0,2.6357,1,0.893572048,#a3d0fb,,left_blue.png,w,8,0,32,3,1,w,left_blue.png,left_orange.png,q,right,60d13c261171b69977e81f9b,001,2021-08-01_13h58.32.383,arrow_simon_norep,2021.1.2,MacIntel,60.0024001,,,,,,,,,,,,,,,,,,,,,,,,,,,,,,,,,,,,,,
,,,q,1,2.2342,0,0.903730899,#f3af84,,left_orange.png,q,8,1,33,2,1,w,left_blue.png,left_orange.png,q,left,60d13c261171b69977e81f9b,001,2021-08-01_13h58.32.383,arrow_simon_norep,2021.1.2,MacIntel,60.0024001,,,,,,,,,,,,,,,,,,,,,,,,,,,,,,,,,,,,,,
,,,o,1,1.9182,0,0.155234041,#a3d0fb,,right_blue.png,o,8,2,34,1,1,o,right_blue.png,right_orange.png,p,right,60d13c261171b69977e81f9b,001,2021-08-01_13h58.32.383,arrow_simon_norep,2021.1.2,MacIntel,60.0024001,,,,,,,,,,,,,,,,,,,,,,,,,,,,,,,,,,,,,,
,,,q,1,1.2185,0,0.183519463,#f3af84,,left_orange.png,q,8,3,35,2,1,w,left_blue.png,left_orange.png,q,left,60d13c261171b69977e81f9b,001,2021-08-01_13h58.32.383,arrow_simon_norep,2021.1.2,MacIntel,60.0024001,,,,,,,,,,,,,,,,,,,,,,,,,,,,,,,,,,,,,,
,,,w,1,1.2385,0,0.298419021,#a3d0fb,,left_blue.png,w,9,0,36,2,1,w,left_blue.png,left_orange.png,q,left,60d13c261171b69977e81f9b,001,2021-08-01_13h58.32.383,arrow_simon_norep,2021.1.2,MacIntel,60.0024001,,,,,,,,,,,,,,,,,,,,,,,,,,,,,,,,,,,,,,
,,,q,1,1.1948,0,0.400058565,#f3af84,,left_orange.png,q,9,1,37,2,1,w,left_blue.png,left_orange.png,q,left,60d13c261171b69977e81f9b,001,2021-08-01_13h58.32.383,arrow_simon_norep,2021.1.2,MacIntel,60.0024001,,,,,,,,,,,,,,,,,,,,,,,,,,,,,,,,,,,,,,
,,,o,1,1.2606,0,0.652461389,#a3d0fb,,right_blue.png,o,9,2,38,0,1,o,right_blue.png,right_orange.png,p,left,60d13c261171b69977e81f9b,001,2021-08-01_13h58.32.383,arrow_simon_norep,2021.1.2,MacIntel,60.0024001,,,,,,,,,,,,,,,,,,,,,,,,,,,,,,,,,,,,,,
,,,p,1,0.8199,0,0.28333804,#f3af84,,right_orange.png,p,9,3,39,0,1,o,right_blue.png,right_orange.png,p,left,60d13c261171b69977e81f9b,001,2021-08-01_13h58.32.383,arrow_simon_norep,2021.1.2,MacIntel,60.0024001,,,,,,,,,,,,,,,,,,,,,,,,,,,,,,,,,,,,,,
,,,w,1,1.3012,0,0.534734516,#a3d0fb,,left_blue.png,w,10,0,40,2,1,w,left_blue.png,left_orange.png,q,left,60d13c261171b69977e81f9b,001,2021-08-01_13h58.32.383,arrow_simon_norep,2021.1.2,MacIntel,60.0024001,,,,,,,,,,,,,,,,,,,,,,,,,,,,,,,,,,,,,,
,,,q,1,1.3609,0,0.814767204,#f3af84,,left_orange.png,q,10,1,41,2,1,w,left_blue.png,left_orange.png,q,left,60d13c261171b69977e81f9b,001,2021-08-01_13h58.32.383,arrow_simon_norep,2021.1.2,MacIntel,60.0024001,,,,,,,,,,,,,,,,,,,,,,,,,,,,,,,,,,,,,,
,,,o,1,1.764,0,0.837096095,#a3d0fb,,right_blue.png,o,10,2,42,0,1,o,right_blue.png,right_orange.png,p,left,60d13c261171b69977e81f9b,001,2021-08-01_13h58.32.383,arrow_simon_norep,2021.1.2,MacIntel,60.0024001,,,,,,,,,,,,,,,,,,,,,,,,,,,,,,,,,,,,,,
,,,p,1,1.2795,0,0.43493325,#f3af84,,right_orange.png,p,10,3,43,0,1,o,right_blue.png,right_orange.png,p,left,60d13c261171b69977e81f9b,001,2021-08-01_13h58.32.383,arrow_simon_norep,2021.1.2,MacIntel,60.0024001,,,,,,,,,,,,,,,,,,,,,,,,,,,,,,,,,,,,,,
,,,o,1,1.1017,0,0.066424816,#a3d0fb,,right_blue.png,o,11,0,44,1,1,o,right_blue.png,right_orange.png,p,right,60d13c261171b69977e81f9b,001,2021-08-01_13h58.32.383,arrow_simon_norep,2021.1.2,MacIntel,60.0024001,,,,,,,,,,,,,,,,,,,,,,,,,,,,,,,,,,,,,,
,,,q,1,1.4955,0,0.149452593,#f3af84,,left_orange.png,q,11,1,45,3,1,w,left_blue.png,left_orange.png,q,right,60d13c261171b69977e81f9b,001,2021-08-01_13h58.32.383,arrow_simon_norep,2021.1.2,MacIntel,60.0024001,,,,,,,,,,,,,,,,,,,,,,,,,,,,,,,,,,,,,,
,,,o,1,0.9802,0,0.333909913,#a3d0fb,,right_blue.png,o,11,2,46,1,1,o,right_blue.png,right_orange.png,p,right,60d13c261171b69977e81f9b,001,2021-08-01_13h58.32.383,arrow_simon_norep,2021.1.2,MacIntel,60.0024001,,,,,,,,,,,,,,,,,,,,,,,,,,,,,,,,,,,,,,
,,,q,1,2.7784,0,0.851703643,#f3af84,,left_orange.png,q,11,3,47,3,1,w,left_blue.png,left_orange.png,q,right,60d13c261171b69977e81f9b,001,2021-08-01_13h58.32.383,arrow_simon_norep,2021.1.2,MacIntel,60.0024001,,,,,,,,,,,,,,,,,,,,,,,,,,,,,,,,,,,,,,
,,,o,1,1.7527,0,0.717465454,#a3d0fb,,right_blue.png,o,12,0,48,1,1,o,right_blue.png,right_orange.png,p,right,60d13c261171b69977e81f9b,001,2021-08-01_13h58.32.383,arrow_simon_norep,2021.1.2,MacIntel,60.0024001,,,,,,,,,,,,,,,,,,,,,,,,,,,,,,,,,,,,,,
,,,p,1,1.1318,0,0.173764542,#f3af84,,right_orange.png,p,12,1,49,1,1,o,right_blue.png,right_orange.png,p,right,60d13c261171b69977e81f9b,001,2021-08-01_13h58.32.383,arrow_simon_norep,2021.1.2,MacIntel,60.0024001,,,,,,,,,,,,,,,,,,,,,,,,,,,,,,,,,,,,,,
,,,w,1,1.5187,0,0.652601177,#a3d0fb,,left_blue.png,w,12,2,50,2,1,w,left_blue.png,left_orange.png,q,left,60d13c261171b69977e81f9b,001,2021-08-01_13h58.32.383,arrow_simon_norep,2021.1.2,MacIntel,60.0024001,,,,,,,,,,,,,,,,,,,,,,,,,,,,,,,,,,,,,,
,,,p,1,1.2856,0,0.654474415,#f3af84,,right_orange.png,p,12,3,51,1,1,o,right_blue.png,right_orange.png,p,right,60d13c261171b69977e81f9b,001,2021-08-01_13h58.32.383,arrow_simon_norep,2021.1.2,MacIntel,60.0024001,,,,,,,,,,,,,,,,,,,,,,,,,,,,,,,,,,,,,,
,,,w,1,2.7326,0,0.854053236,#a3d0fb,,left_blue.png,w,13,0,52,3,1,w,left_blue.png,left_orange.png,q,right,60d13c261171b69977e81f9b,001,2021-08-01_13h58.32.383,arrow_simon_norep,2021.1.2,MacIntel,60.0024001,,,,,,,,,,,,,,,,,,,,,,,,,,,,,,,,,,,,,,
,,,q,1,1.7685,0,0.710534446,#f3af84,,left_orange.png,q,13,1,53,3,1,w,left_blue.png,left_orange.png,q,right,60d13c261171b69977e81f9b,001,2021-08-01_13h58.32.383,arrow_simon_norep,2021.1.2,MacIntel,60.0024001,,,,,,,,,,,,,,,,,,,,,,,,,,,,,,,,,,,,,,
,,,q,0,3.7517,1,0.197541054,#a3d0fb,,left_blue.png,w,13,2,54,2,1,w,left_blue.png,left_orange.png,q,left,60d13c261171b69977e81f9b,001,2021-08-01_13h58.32.383,arrow_simon_norep,2021.1.2,MacIntel,60.0024001,,,,,,,,,,,,,,,,,,,,,,,,,,,,,,,,,,,,,,
,,,q,1,1.4511,0,0.307683613,#f3af84,,left_orange.png,q,13,3,55,3,1,w,left_blue.png,left_orange.png,q,right,60d13c261171b69977e81f9b,001,2021-08-01_13h58.32.383,arrow_simon_norep,2021.1.2,MacIntel,60.0024001,,,,,,,,,,,,,,,,,,,,,,,,,,,,,,,,,,,,,,
,,,o,1,1.4848,0,0.735056951,#a3d0fb,,right_blue.png,o,14,0,56,1,1,o,right_blue.png,right_orange.png,p,right,60d13c261171b69977e81f9b,001,2021-08-01_13h58.32.383,arrow_simon_norep,2021.1.2,MacIntel,60.0024001,,,,,,,,,,,,,,,,,,,,,,,,,,,,,,,,,,,,,,
,,,p,0,1.2151,1,0.163903892,#f3af84,,left_orange.png,q,14,1,57,3,1,w,left_blue.png,left_orange.png,q,right,60d13c261171b69977e81f9b,001,2021-08-01_13h58.32.383,arrow_simon_norep,2021.1.2,MacIntel,60.0024001,,,,,,,,,,,,,,,,,,,,,,,,,,,,,,,,,,,,,,
,,,o,1,1.2833,0,0.170140231,#a3d0fb,,right_blue.png,o,14,2,58,1,1,o,right_blue.png,right_orange.png,p,right,60d13c261171b69977e81f9b,001,2021-08-01_13h58.32.383,arrow_simon_norep,2021.1.2,MacIntel,60.0024001,,,,,,,,,,,,,,,,,,,,,,,,,,,,,,,,,,,,,,
,,,p,1,0.9966,0,0.028849329,#f3af84,,right_orange.png,p,14,3,59,1,1,o,right_blue.png,right_orange.png,p,right,60d13c261171b69977e81f9b,001,2021-08-01_13h58.32.383,arrow_simon_norep,2021.1.2,MacIntel,60.0024001,,,,,,,,,,,,,,,,,,,,,,,,,,,,,,,,,,,,,,
,,,,,,,,,,,,,,,,,,,,,,60d13c261171b69977e81f9b,001,2021-08-01_13h58.32.383,arrow_simon_norep,2021.1.2,MacIntel,60.0024001,space,11.9166,0,0,0,0,1,,,,,,,,,,,,,,,,,,,,,,,,,,,,,,,
,,,o,1,1.9629,0,0.810858163,#a3d0fb,,right_blue.png,o,0,0,0,1,1,o,right_blue.png,right_orange.png,p,right,60d13c261171b69977e81f9b,001,2021-08-01_13h58.32.383,arrow_simon_norep,2021.1.2,MacIntel,60.0024001,,,,,,,,,,,,,,,,,,,,,,,,,,,,,,,,,,,,,,
,,,p,1,1.6365,0,0.934824812,#f3af84,,right_orange.png,p,0,1,1,0,1,o,right_blue.png,right_orange.png,p,left,60d13c261171b69977e81f9b,001,2021-08-01_13h58.32.383,arrow_simon_norep,2021.1.2,MacIntel,60.0024001,,,,,,,,,,,,,,,,,,,,,,,,,,,,,,,,,,,,,,
,,,w,1,2.0041,0,0.223857272,#a3d0fb,,left_blue.png,w,0,2,2,3,1,w,left_blue.png,left_orange.png,q,right,60d13c261171b69977e81f9b,001,2021-08-01_13h58.32.383,arrow_simon_norep,2021.1.2,MacIntel,60.0024001,,,,,,,,,,,,,,,,,,,,,,,,,,,,,,,,,,,,,,
,,,q,1,0.9431,0,0.169511506,#f3af84,,left_orange.png,q,0,3,3,3,1,w,left_blue.png,left_orange.png,q,right,60d13c261171b69977e81f9b,001,2021-08-01_13h58.32.383,arrow_simon_norep,2021.1.2,MacIntel,60.0024001,,,,,,,,,,,,,,,,,,,,,,,,,,,,,,,,,,,,,,
,,,o,1,0.9088,0,0.178177074,#a3d0fb,,right_blue.png,o,1,0,4,0,1,o,right_blue.png,right_orange.png,p,left,60d13c261171b69977e81f9b,001,2021-08-01_13h58.32.383,arrow_simon_norep,2021.1.2,MacIntel,60.0024001,,,,,,,,,,,,,,,,,,,,,,,,,,,,,,,,,,,,,,
,,,p,1,0.9626,0,0.304147582,#f3af84,,right_orange.png,p,1,1,5,0,1,o,right_blue.png,right_orange.png,p,left,60d13c261171b69977e81f9b,001,2021-08-01_13h58.32.383,arrow_simon_norep,2021.1.2,MacIntel,60.0024001,,,,,,,,,,,,,,,,,,,,,,,,,,,,,,,,,,,,,,
,,,p,0,1.2633,1,0.620072229,#a3d0fb,,right_blue.png,o,1,2,6,1,1,o,right_blue.png,right_orange.png,p,right,60d13c261171b69977e81f9b,001,2021-08-01_13h58.32.383,arrow_simon_norep,2021.1.2,MacIntel,60.0024001,,,,,,,,,,,,,,,,,,,,,,,,,,,,,,,,,,,,,,
,,,p,1,1.6496,0,0.945675692,#f3af84,,right_orange.png,p,1,3,7,0,1,o,right_blue.png,right_orange.png,p,left,60d13c261171b69977e81f9b,001,2021-08-01_13h58.32.383,arrow_simon_norep,2021.1.2,MacIntel,60.0024001,,,,,,,,,,,,,,,,,,,,,,,,,,,,,,,,,,,,,,
,,,w,1,1.2779,0,0.706172434,#a3d0fb,,left_blue.png,w,2,0,8,3,1,w,left_blue.png,left_orange.png,q,right,60d13c261171b69977e81f9b,001,2021-08-01_13h58.32.383,arrow_simon_norep,2021.1.2,MacIntel,60.0024001,,,,,,,,,,,,,,,,,,,,,,,,,,,,,,,,,,,,,,
,,,q,1,0.7674,0,0.156523244,#f3af84,,left_orange.png,q,2,1,9,2,1,w,left_blue.png,left_orange.png,q,left,60d13c261171b69977e81f9b,001,2021-08-01_13h58.32.383,arrow_simon_norep,2021.1.2,MacIntel,60.0024001,,,,,,,,,,,,,,,,,,,,,,,,,,,,,,,,,,,,,,
,,,w,1,2.4852,0,0.347451964,#a3d0fb,,left_blue.png,w,2,2,10,3,1,w,left_blue.png,left_orange.png,q,right,60d13c261171b69977e81f9b,001,2021-08-01_13h58.32.383,arrow_simon_norep,2021.1.2,MacIntel,60.0024001,,,,,,,,,,,,,,,,,,,,,,,,,,,,,,,,,,,,,,
,,,p,1,0.8764,0,0.232592955,#f3af84,,right_orange.png,p,2,3,11,1,1,o,right_blue.png,right_orange.png,p,right,60d13c261171b69977e81f9b,001,2021-08-01_13h58.32.383,arrow_simon_norep,2021.1.2,MacIntel,60.0024001,,,,,,,,,,,,,,,,,,,,,,,,,,,,,,,,,,,,,,
,,,o,0,1.6447,1,0.518301105,#a3d0fb,,left_blue.png,w,3,0,12,3,1,w,left_blue.png,left_orange.png,q,right,60d13c261171b69977e81f9b,001,2021-08-01_13h58.32.383,arrow_simon_norep,2021.1.2,MacIntel,60.0024001,,,,,,,,,,,,,,,,,,,,,,,,,,,,,,,,,,,,,,
,,,q,1,2.0192,0,0.187486356,#f3af84,,left_orange.png,q,3,1,13,3,1,w,left_blue.png,left_orange.png,q,right,60d13c261171b69977e81f9b,001,2021-08-01_13h58.32.383,arrow_simon_norep,2021.1.2,MacIntel,60.0024001,,,,,,,,,,,,,,,,,,,,,,,,,,,,,,,,,,,,,,
,,,w,1,1.5778,0,0.689857317,#a3d0fb,,left_blue.png,w,3,2,14,2,1,w,left_blue.png,left_orange.png,q,left,60d13c261171b69977e81f9b,001,2021-08-01_13h58.32.383,arrow_simon_norep,2021.1.2,MacIntel,60.0024001,,,,,,,,,,,,,,,,,,,,,,,,,,,,,,,,,,,,,,
,,,q,1,1.6502,0,0.282670359,#f3af84,,left_orange.png,q,3,3,15,3,1,w,left_blue.png,left_orange.png,q,right,60d13c261171b69977e81f9b,001,2021-08-01_13h58.32.383,arrow_simon_norep,2021.1.2,MacIntel,60.0024001,,,,,,,,,,,,,,,,,,,,,,,,,,,,,,,,,,,,,,
,,,w,1,2.4372,0,0.02538844,#a3d0fb,,left_blue.png,w,4,0,16,3,1,w,left_blue.png,left_orange.png,q,right,60d13c261171b69977e81f9b,001,2021-08-01_13h58.32.383,arrow_simon_norep,2021.1.2,MacIntel,60.0024001,,,,,,,,,,,,,,,,,,,,,,,,,,,,,,,,,,,,,,
,,,p,1,2.215,0,0.568437805,#f3af84,,right_orange.png,p,4,1,17,0,1,o,right_blue.png,right_orange.png,p,left,60d13c261171b69977e81f9b,001,2021-08-01_13h58.32.383,arrow_simon_norep,2021.1.2,MacIntel,60.0024001,,,,,,,,,,,,,,,,,,,,,,,,,,,,,,,,,,,,,,
,,,w,1,1.3771,0,0.614744932,#a3d0fb,,left_blue.png,w,4,2,18,2,1,w,left_blue.png,left_orange.png,q,left,60d13c261171b69977e81f9b,001,2021-08-01_13h58.32.383,arrow_simon_norep,2021.1.2,MacIntel,60.0024001,,,,,,,,,,,,,,,,,,,,,,,,,,,,,,,,,,,,,,
,,,q,1,1.2048,0,0.323711594,#f3af84,,left_orange.png,q,4,3,19,3,1,w,left_blue.png,left_orange.png,q,right,60d13c261171b69977e81f9b,001,2021-08-01_13h58.32.383,arrow_simon_norep,2021.1.2,MacIntel,60.0024001,,,,,,,,,,,,,,,,,,,,,,,,,,,,,,,,,,,,,,
,,,w,1,1.6861,0,0.315780957,#a3d0fb,,left_blue.png,w,5,0,20,3,1,w,left_blue.png,left_orange.png,q,right,60d13c261171b69977e81f9b,001,2021-08-01_13h58.32.383,arrow_simon_norep,2021.1.2,MacIntel,60.0024001,,,,,,,,,,,,,,,,,,,,,,,,,,,,,,,,,,,,,,
,,,q,1,1.1682,0,0.334854153,#f3af84,,left_orange.png,q,5,1,21,3,1,w,left_blue.png,left_orange.png,q,right,60d13c261171b69977e81f9b,001,2021-08-01_13h58.32.383,arrow_simon_norep,2021.1.2,MacIntel,60.0024001,,,,,,,,,,,,,,,,,,,,,,,,,,,,,,,,,,,,,,
,,,o,1,2.9346,0,0.284709665,#a3d0fb,,right_blue.png,o,5,2,22,0,1,o,right_blue.png,right_orange.png,p,left,60d13c261171b69977e81f9b,001,2021-08-01_13h58.32.383,arrow_simon_norep,2021.1.2,MacIntel,60.0024001,,,,,,,,,,,,,,,,,,,,,,,,,,,,,,,,,,,,,,
,,,q,1,1.8408,0,0.771823824,#f3af84,,left_orange.png,q,5,3,23,2,1,w,left_blue.png,left_orange.png,q,left,60d13c261171b69977e81f9b,001,2021-08-01_13h58.32.383,arrow_simon_norep,2021.1.2,MacIntel,60.0024001,,,,,,,,,,,,,,,,,,,,,,,,,,,,,,,,,,,,,,
,,,w,1,1.7788,0,0.887600693,#a3d0fb,,left_blue.png,w,6,0,24,2,1,w,left_blue.png,left_orange.png,q,left,60d13c261171b69977e81f9b,001,2021-08-01_13h58.32.383,arrow_simon_norep,2021.1.2,MacIntel,60.0024001,,,,,,,,,,,,,,,,,,,,,,,,,,,,,,,,,,,,,,
,,,p,1,1.4609,0,0.600314735,#f3af84,,right_orange.png,p,6,1,25,0,1,o,right_blue.png,right_orange.png,p,left,60d13c261171b69977e81f9b,001,2021-08-01_13h58.32.383,arrow_simon_norep,2021.1.2,MacIntel,60.0024001,,,,,,,,,,,,,,,,,,,,,,,,,,,,,,,,,,,,,,
,,,w,1,2.1689,0,0.678632859,#a3d0fb,,left_blue.png,w,6,2,26,3,1,w,left_blue.png,left_orange.png,q,right,60d13c261171b69977e81f9b,001,2021-08-01_13h58.32.383,arrow_simon_norep,2021.1.2,MacIntel,60.0024001,,,,,,,,,,,,,,,,,,,,,,,,,,,,,,,,,,,,,,
,,,p,1,1.3952,0,0.803975201,#f3af84,,right_orange.png,p,6,3,27,1,1,o,right_blue.png,right_orange.png,p,right,60d13c261171b69977e81f9b,001,2021-08-01_13h58.32.383,arrow_simon_norep,2021.1.2,MacIntel,60.0024001,,,,,,,,,,,,,,,,,,,,,,,,,,,,,,,,,,,,,,
,,,o,1,3.8454,0,0.034413923,#a3d0fb,,right_blue.png,o,7,0,28,1,1,o,right_blue.png,right_orange.png,p,right,60d13c261171b69977e81f9b,001,2021-08-01_13h58.32.383,arrow_simon_norep,2021.1.2,MacIntel,60.0024001,,,,,,,,,,,,,,,,,,,,,,,,,,,,,,,,,,,,,,
,,,p,1,1.5205,0,0.859202278,#f3af84,,right_orange.png,p,7,1,29,1,1,o,right_blue.png,right_orange.png,p,right,60d13c261171b69977e81f9b,001,2021-08-01_13h58.32.383,arrow_simon_norep,2021.1.2,MacIntel,60.0024001,,,,,,,,,,,,,,,,,,,,,,,,,,,,,,,,,,,,,,
,,,w,1,1.3853,0,0.097989372,#a3d0fb,,left_blue.png,w,7,2,30,2,1,w,left_blue.png,left_orange.png,q,left,60d13c261171b69977e81f9b,001,2021-08-01_13h58.32.383,arrow_simon_norep,2021.1.2,MacIntel,60.0024001,,,,,,,,,,,,,,,,,,,,,,,,,,,,,,,,,,,,,,
,,,q,1,1.1872,0,0.374837706,#f3af84,,left_orange.png,q,7,3,31,2,1,w,left_blue.png,left_orange.png,q,left,60d13c261171b69977e81f9b,001,2021-08-01_13h58.32.383,arrow_simon_norep,2021.1.2,MacIntel,60.0024001,,,,,,,,,,,,,,,,,,,,,,,,,,,,,,,,,,,,,,
,,,w,1,1.1789,0,0.293957946,#a3d0fb,,left_blue.png,w,8,0,32,2,1,w,left_blue.png,left_orange.png,q,left,60d13c261171b69977e81f9b,001,2021-08-01_13h58.32.383,arrow_simon_norep,2021.1.2,MacIntel,60.0024001,,,,,,,,,,,,,,,,,,,,,,,,,,,,,,,,,,,,,,
,,,o,0,1.4319,1,0.602851686,#f3af84,,right_orange.png,p,8,1,33,0,1,o,right_blue.png,right_orange.png,p,left,60d13c261171b69977e81f9b,001,2021-08-01_13h58.32.383,arrow_simon_norep,2021.1.2,MacIntel,60.0024001,,,,,,,,,,,,,,,,,,,,,,,,,,,,,,,,,,,,,,
,,,p,0,1.203,1,0.690798603,#a3d0fb,,right_blue.png,o,8,2,34,1,1,o,right_blue.png,right_orange.png,p,right,60d13c261171b69977e81f9b,001,2021-08-01_13h58.32.383,arrow_simon_norep,2021.1.2,MacIntel,60.0024001,,,,,,,,,,,,,,,,,,,,,,,,,,,,,,,,,,,,,,
,,,q,1,1.3533,0,0.912409154,#f3af84,,left_orange.png,q,8,3,35,2,1,w,left_blue.png,left_orange.png,q,left,60d13c261171b69977e81f9b,001,2021-08-01_13h58.32.383,arrow_simon_norep,2021.1.2,MacIntel,60.0024001,,,,,,,,,,,,,,,,,,,,,,,,,,,,,,,,,,,,,,
,,,o,1,2.5534,0,0.695954733,#a3d0fb,,right_blue.png,o,9,0,36,1,1,o,right_blue.png,right_orange.png,p,right,60d13c261171b69977e81f9b,001,2021-08-01_13h58.32.383,arrow_simon_norep,2021.1.2,MacIntel,60.0024001,,,,,,,,,,,,,,,,,,,,,,,,,,,,,,,,,,,,,,
,,,p,1,1.7079,0,0.839890608,#f3af84,,right_orange.png,p,9,1,37,1,1,o,right_blue.png,right_orange.png,p,right,60d13c261171b69977e81f9b,001,2021-08-01_13h58.32.383,arrow_simon_norep,2021.1.2,MacIntel,60.0024001,,,,,,,,,,,,,,,,,,,,,,,,,,,,,,,,,,,,,,
,,,w,1,1.7721,0,0.774421548,#a3d0fb,,left_blue.png,w,9,2,38,3,1,w,left_blue.png,left_orange.png,q,right,60d13c261171b69977e81f9b,001,2021-08-01_13h58.32.383,arrow_simon_norep,2021.1.2,MacIntel,60.0024001,,,,,,,,,,,,,,,,,,,,,,,,,,,,,,,,,,,,,,
,,,q,1,1.5025,0,0.976622277,#f3af84,,left_orange.png,q,9,3,39,2,1,w,left_blue.png,left_orange.png,q,left,60d13c261171b69977e81f9b,001,2021-08-01_13h58.32.383,arrow_simon_norep,2021.1.2,MacIntel,60.0024001,,,,,,,,,,,,,,,,,,,,,,,,,,,,,,,,,,,,,,
,,,o,1,0.8896,0,0.285829581,#a3d0fb,,right_blue.png,o,10,0,40,0,1,o,right_blue.png,right_orange.png,p,left,60d13c261171b69977e81f9b,001,2021-08-01_13h58.32.383,arrow_simon_norep,2021.1.2,MacIntel,60.0024001,,,,,,,,,,,,,,,,,,,,,,,,,,,,,,,,,,,,,,
,,,q,1,1.1368,0,0.748822435,#f3af84,,left_orange.png,q,10,1,41,2,1,w,left_blue.png,left_orange.png,q,left,60d13c261171b69977e81f9b,001,2021-08-01_13h58.32.383,arrow_simon_norep,2021.1.2,MacIntel,60.0024001,,,,,,,,,,,,,,,,,,,,,,,,,,,,,,,,,,,,,,
,,,o,1,0.9375,0,0.243173009,#a3d0fb,,right_blue.png,o,10,2,42,0,1,o,right_blue.png,right_orange.png,p,left,60d13c261171b69977e81f9b,001,2021-08-01_13h58.32.383,arrow_simon_norep,2021.1.2,MacIntel,60.0024001,,,,,,,,,,,,,,,,,,,,,,,,,,,,,,,,,,,,,,
,,,p,1,0.8695,0,0.139638058,#f3af84,,right_orange.png,p,10,3,43,0,1,o,right_blue.png,right_orange.png,p,left,60d13c261171b69977e81f9b,001,2021-08-01_13h58.32.383,arrow_simon_norep,2021.1.2,MacIntel,60.0024001,,,,,,,,,,,,,,,,,,,,,,,,,,,,,,,,,,,,,,
,,,o,1,1.2776,0,0.202895667,#a3d0fb,,right_blue.png,o,11,0,44,1,1,o,right_blue.png,right_orange.png,p,right,60d13c261171b69977e81f9b,001,2021-08-01_13h58.32.383,arrow_simon_norep,2021.1.2,MacIntel,60.0024001,,,,,,,,,,,,,,,,,,,,,,,,,,,,,,,,,,,,,,
,,,q,1,0.9115,0,0.278620075,#f3af84,,left_orange.png,q,11,1,45,2,1,w,left_blue.png,left_orange.png,q,left,60d13c261171b69977e81f9b,001,2021-08-01_13h58.32.383,arrow_simon_norep,2021.1.2,MacIntel,60.0024001,,,,,,,,,,,,,,,,,,,,,,,,,,,,,,,,,,,,,,
,,,o,0,0.9195,1,0.316055309,#a3d0fb,,left_blue.png,w,11,2,46,3,1,w,left_blue.png,left_orange.png,q,right,60d13c261171b69977e81f9b,001,2021-08-01_13h58.32.383,arrow_simon_norep,2021.1.2,MacIntel,60.0024001,,,,,,,,,,,,,,,,,,,,,,,,,,,,,,,,,,,,,,
,,,p,1,1.3359,0,0.526807054,#f3af84,,right_orange.png,p,11,3,47,0,1,o,right_blue.png,right_orange.png,p,left,60d13c261171b69977e81f9b,001,2021-08-01_13h58.32.383,arrow_simon_norep,2021.1.2,MacIntel,60.0024001,,,,,,,,,,,,,,,,,,,,,,,,,,,,,,,,,,,,,,
,,,o,1,0.8628,0,0.133556955,#a3d0fb,,right_blue.png,o,12,0,48,1,1,o,right_blue.png,right_orange.png,p,right,60d13c261171b69977e81f9b,001,2021-08-01_13h58.32.383,arrow_simon_norep,2021.1.2,MacIntel,60.0024001,,,,,,,,,,,,,,,,,,,,,,,,,,,,,,,,,,,,,,
,,,q,1,1.0106,0,0.521563788,#f3af84,,left_orange.png,q,12,1,49,2,1,w,left_blue.png,left_orange.png,q,left,60d13c261171b69977e81f9b,001,2021-08-01_13h58.32.383,arrow_simon_norep,2021.1.2,MacIntel,60.0024001,,,,,,,,,,,,,,,,,,,,,,,,,,,,,,,,,,,,,,
,,,o,1,1.5356,0,0.534648795,#a3d0fb,,right_blue.png,o,12,2,50,1,1,o,right_blue.png,right_orange.png,p,right,60d13c261171b69977e81f9b,001,2021-08-01_13h58.32.383,arrow_simon_norep,2021.1.2,MacIntel,60.0024001,,,,,,,,,,,,,,,,,,,,,,,,,,,,,,,,,,,,,,
,,,w,0,1.836,1,0.708315098,#f3af84,,left_orange.png,q,12,3,51,2,1,w,left_blue.png,left_orange.png,q,left,60d13c261171b69977e81f9b,001,2021-08-01_13h58.32.383,arrow_simon_norep,2021.1.2,MacIntel,60.0024001,,,,,,,,,,,,,,,,,,,,,,,,,,,,,,,,,,,,,,
,,,o,1,1.5165,0,0.689977544,#a3d0fb,,right_blue.png,o,13,0,52,0,1,o,right_blue.png,right_orange.png,p,left,60d13c261171b69977e81f9b,001,2021-08-01_13h58.32.383,arrow_simon_norep,2021.1.2,MacIntel,60.0024001,,,,,,,,,,,,,,,,,,,,,,,,,,,,,,,,,,,,,,
,,,p,1,1.6643,0,0.899365164,#f3af84,,right_orange.png,p,13,1,53,1,1,o,right_blue.png,right_orange.png,p,right,60d13c261171b69977e81f9b,001,2021-08-01_13h58.32.383,arrow_simon_norep,2021.1.2,MacIntel,60.0024001,,,,,,,,,,,,,,,,,,,,,,,,,,,,,,,,,,,,,,
,,,w,1,1.8521,0,0.296839642,#a3d0fb,,left_blue.png,w,13,2,54,2,1,w,left_blue.png,left_orange.png,q,left,60d13c261171b69977e81f9b,001,2021-08-01_13h58.32.383,arrow_simon_norep,2021.1.2,MacIntel,60.0024001,,,,,,,,,,,,,,,,,,,,,,,,,,,,,,,,,,,,,,
,,,p,1,0.8351,0,0.200424345,#f3af84,,right_orange.png,p,13,3,55,1,1,o,right_blue.png,right_orange.png,p,right,60d13c261171b69977e81f9b,001,2021-08-01_13h58.32.383,arrow_simon_norep,2021.1.2,MacIntel,60.0024001,,,,,,,,,,,,,,,,,,,,,,,,,,,,,,,,,,,,,,
,,,o,1,1.5764,0,0.42399288,#a3d0fb,,right_blue.png,o,14,0,56,0,1,o,right_blue.png,right_orange.png,p,left,60d13c261171b69977e81f9b,001,2021-08-01_13h58.32.383,arrow_simon_norep,2021.1.2,MacIntel,60.0024001,,,,,,,,,,,,,,,,,,,,,,,,,,,,,,,,,,,,,,
,,,p,1,1.1118,0,0.706920943,#f3af84,,right_orange.png,p,14,1,57,1,1,o,right_blue.png,right_orange.png,p,right,60d13c261171b69977e81f9b,001,2021-08-01_13h58.32.383,arrow_simon_norep,2021.1.2,MacIntel,60.0024001,,,,,,,,,,,,,,,,,,,,,,,,,,,,,,,,,,,,,,
,,,w,1,2.1028,0,0.946616678,#a3d0fb,,left_blue.png,w,14,2,58,3,1,w,left_blue.png,left_orange.png,q,right,60d13c261171b69977e81f9b,001,2021-08-01_13h58.32.383,arrow_simon_norep,2021.1.2,MacIntel,60.0024001,,,,,,,,,,,,,,,,,,,,,,,,,,,,,,,,,,,,,,
,,,p,1,1.2444,0,0.373128185,#f3af84,,right_orange.png,p,14,3,59,0,1,o,right_blue.png,right_orange.png,p,left,60d13c261171b69977e81f9b,001,2021-08-01_13h58.32.383,arrow_simon_norep,2021.1.2,MacIntel,60.0024001,,,,,,,,,,,,,,,,,,,,,,,,,,,,,,,,,,,,,,
,,,,,,,,,,,,,,,,,,,,,,60d13c261171b69977e81f9b,001,2021-08-01_13h58.32.383,arrow_simon_norep,2021.1.2,MacIntel,60.0024001,space,23.6769,1,0,1,0,1,,,,,,,,,,,,,,,,,,,,,,,,,,,,,,,
,,,,,,,,,,,,,,,,,,,,,,60d13c261171b69977e81f9b,001,2021-08-01_13h58.32.383,arrow_simon_norep,2021.1.2,MacIntel,60.0024001,,,,,,,,space,0,63.1646,o,2.752,0,0,0,0,1,,,,,,,,,,,,,,,,,,,,,
,,,,,,,,,,,,,,,,,,,,,,60d13c261171b69977e81f9b,001,2021-08-01_13h58.32.383,arrow_simon_norep,2021.1.2,MacIntel,60.0024001,,,,,,,,,,,p,2.5853,1,0,1,0,1,,,,,,,,,,,,,,,,,,,,,
,,,,,,,,,,,,,,,,,,,,,,60d13c261171b69977e81f9b,001,2021-08-01_13h58.32.383,arrow_simon_norep,2021.1.2,MacIntel,60.0024001,,,,,,,,,,,o,2.5985,2,0,2,0,1,,,,,,,,,,,,,,,,,,,,,
,,,,,,,,,,,,,,,,,,,,,,60d13c261171b69977e81f9b,001,2021-08-01_13h58.32.383,arrow_simon_norep,2021.1.2,MacIntel,60.0024001,,,,,,,,,,,p,2.5852,3,0,3,0,1,,,,,,,,,,,,,,,,,,,,,
,,,,,,,,,,,,,,,,,,,,,,60d13c261171b69977e81f9b,001,2021-08-01_13h58.32.383,arrow_simon_norep,2021.1.2,MacIntel,60.0024001,,,,,,,,,,,p,2.5865,4,0,4,0,1,,,,,,,,,,,,,,,,,,,,,
,,,,,,,,,,,,,,,,,,,,,,60d13c261171b69977e81f9b,001,2021-08-01_13h58.32.383,arrow_simon_norep,2021.1.2,MacIntel,60.0024001,,,,,,,,,,,p,2.653,5,0,5,0,1,,,,,,,,,,,,,,,,,,,,,
,,,,,,,,,,,,,,,,,,,,,,60d13c261171b69977e81f9b,001,2021-08-01_13h58.32.383,arrow_simon_norep,2021.1.2,MacIntel,60.0024001,,,,,,,,,,,p,2.6462,6,0,6,0,1,,,,,,,,,,,,,,,,,,,,,
,,,,,,,,,,,,,,,,,,,,,,60d13c261171b69977e81f9b,001,2021-08-01_13h58.32.383,arrow_simon_norep,2021.1.2,MacIntel,60.0024001,,,,,,,,,,,p,2.4862,7,0,7,0,1,,,,,,,,,,,,,,,,,,,,,
,,,,,,,,,,,,,,,,,,,,,,60d13c261171b69977e81f9b,001,2021-08-01_13h58.32.383,arrow_simon_norep,2021.1.2,MacIntel,60.0024001,,,,,,,,,,,p,2.4446,8,0,8,0,1,,,,,,,,,,,,,,,,,,,,,
,,,,,,,,,,,,,,,,,,,,,,60d13c261171b69977e81f9b,001,2021-08-01_13h58.32.383,arrow_simon_norep,2021.1.2,MacIntel,60.0024001,,,,,,,,,,,p,2.5445,9,0,9,0,1,,,,,,,,,,,,,,,,,,,,,
,,,,,,,,,,,,,,,,,,,,,,60d13c261171b69977e81f9b,001,2021-08-01_13h58.32.383,arrow_simon_norep,2021.1.2,MacIntel,60.0024001,,,,,,,,,,,p,2.5383,10,0,10,0,1,,,,,,,,,,,,,,,,,,,,,
,,,,,,,,,,,,,,,,,,,,,,60d13c261171b69977e81f9b,001,2021-08-01_13h58.32.383,arrow_simon_norep,2021.1.2,MacIntel,60.0024001,,,,,,,,,,,p,2.5174,11,0,11,0,1,,,,,,,,,,,,,,,,,,,,,
,,,,,,,,,,,,,,,,,,,,,,60d13c261171b69977e81f9b,001,2021-08-01_13h58.32.383,arrow_simon_norep,2021.1.2,MacIntel,60.0024001,,,,,,,,,,,p,2.5507,12,0,12,0,1,,,,,,,,,,,,,,,,,,,,,
,,,,,,,,,,,,,,,,,,,,,,60d13c261171b69977e81f9b,001,2021-08-01_13h58.32.383,arrow_simon_norep,2021.1.2,MacIntel,60.0024001,,,,,,,,,,,p,2.5327,13,0,13,0,1,,,,,,,,,,,,,,,,,,,,,
,,,,,,,,,,,,,,,,,,,,,,60d13c261171b69977e81f9b,001,2021-08-01_13h58.32.383,arrow_simon_norep,2021.1.2,MacIntel,60.0024001,,,,,,,,,,,p,2.4007,14,0,14,0,1,,,,,,,,,,,,,,,,,,,,,
,,,,,,,,,,,,,,,,,,,,,,60d13c261171b69977e81f9b,001,2021-08-01_13h58.32.383,arrow_simon_norep,2021.1.2,MacIntel,60.0024001,,,,,,,,,,,p,2.4721,15,0,15,0,1,,,,,,,,,,,,,,,,,,,,,
,,,,,,,,,,,,,,,,,,,,,,60d13c261171b69977e81f9b,001,2021-08-01_13h58.32.383,arrow_simon_norep,2021.1.2,MacIntel,60.0024001,,,,,,,,,,,p,2.3347,16,0,16,0,1,,,,,,,,,,,,,,,,,,,,,
,,,,,,,,,,,,,,,,,,,,,,60d13c261171b69977e81f9b,001,2021-08-01_13h58.32.383,arrow_simon_norep,2021.1.2,MacIntel,60.0024001,,,,,,,,,,,p,2.312,17,0,17,0,1,,,,,,,,,,,,,,,,,,,,,
,,,,,,,,,,,,,,,,,,,,,,60d13c261171b69977e81f9b,001,2021-08-01_13h58.32.383,arrow_simon_norep,2021.1.2,MacIntel,60.0024001,,,,,,,,,,,p,2.4018,18,0,18,0,1,,,,,,,,,,,,,,,,,,,,,
,,,,,,,,,,,,,,,,,,,,,,60d13c261171b69977e81f9b,001,2021-08-01_13h58.32.383,arrow_simon_norep,2021.1.2,MacIntel,60.0024001,,,,,,,,,,,p,2.4351,19,0,19,0,1,,,,,,,,,,,,,,,,,,,,,
,,,,,,,,,,,,,,,,,,,,,,60d13c261171b69977e81f9b,001,2021-08-01_13h58.32.383,arrow_simon_norep,2021.1.2,MacIntel,60.0024001,,,,,,,,,,,o,2.4675,20,0,20,0,1,,,,,,,,,,,,,,,,,,,,,
,,,,,,,,,,,,,,,,,,,,,,60d13c261171b69977e81f9b,001,2021-08-01_13h58.32.383,arrow_simon_norep,2021.1.2,MacIntel,60.0024001,,,,,,,,,,,p,2.4184,21,0,21,0,1,,,,,,,,,,,,,,,,,,,,,
,,,,,,,,,,,,,,,,,,,,,,60d13c261171b69977e81f9b,001,2021-08-01_13h58.32.383,arrow_simon_norep,2021.1.2,MacIntel,60.0024001,,,,,,,,,,,o,2.4291,22,0,22,0,1,,,,,,,,,,,,,,,,,,,,,
,,,,,,,,,,,,,,,,,,,,,,60d13c261171b69977e81f9b,001,2021-08-01_13h58.32.383,arrow_simon_norep,2021.1.2,MacIntel,60.0024001,,,,,,,,,,,p,2.349,23,0,23,0,1,,,,,,,,,,,,,,,,,,,,,
,,,,,,,,,,,,,,,,,,,,,,60d13c261171b69977e81f9b,001,2021-08-01_13h58.32.383,arrow_simon_norep,2021.1.2,MacIntel,60.0024001,,,,,,,,,,,o,2.2959,24,0,24,0,1,,,,,,,,,,,,,,,,,,,,,
,,,,,,,,,,,,,,,,,,,,,,60d13c261171b69977e81f9b,001,2021-08-01_13h58.32.383,arrow_simon_norep,2021.1.2,MacIntel,60.0024001,,,,,,,,,,,p,2.4786,25,0,25,0,1,,,,,,,,,,,,,,,,,,,,,
,,,,,,,,,,,,,,,,,,,,,,60d13c261171b69977e81f9b,001,2021-08-01_13h58.32.383,arrow_simon_norep,2021.1.2,MacIntel,60.0024001,,,,,,,,,,,o,2.3674,26,0,26,0,1,,,,,,,,,,,,,,,,,,,,,
,,,,,,,,,,,,,,,,,,,,,,60d13c261171b69977e81f9b,001,2021-08-01_13h58.32.383,arrow_simon_norep,2021.1.2,MacIntel,60.0024001,,,,,,,,,,,p,2.4618,27,0,27,0,1,,,,,,,,,,,,,,,,,,,,,
,,,,,,,,,,,,,,,,,,,,,,60d13c261171b69977e81f9b,001,2021-08-01_13h58.32.383,arrow_simon_norep,2021.1.2,MacIntel,60.0024001,,,,,,,,,,,o,2.4272,28,0,28,0,1,,,,,,,,,,,,,,,,,,,,,
,,,,,,,,,,,,,,,,,,,,,,60d13c261171b69977e81f9b,001,2021-08-01_13h58.32.383,arrow_simon_norep,2021.1.2,MacIntel,60.0024001,,,,,,,,,,,p,2.5789,29,0,29,0,1,,,,,,,,,,,,,,,,,,,,,
,,,,,,,,,,,,,,,,,,,,,,60d13c261171b69977e81f9b,001,2021-08-01_13h58.32.383,arrow_simon_norep,2021.1.2,MacIntel,60.0024001,,,,,,,,,,,o,2.692,30,0,30,0,1,,,,,,,,,,,,,,,,,,,,,
,,,,,,,,,,,,,,,,,,,,,,60d13c261171b69977e81f9b,001,2021-08-01_13h58.32.383,arrow_simon_norep,2021.1.2,MacIntel,60.0024001,,,,,,,,,,,p,2.2955,31,0,31,0,1,,,,,,,,,,,,,,,,,,,,,
,,,,,,,,,,,,,,,,,,,,,,60d13c261171b69977e81f9b,001,2021-08-01_13h58.32.383,arrow_simon_norep,2021.1.2,MacIntel,60.0024001,,,,,,,,,,,p,2.3327,32,0,32,0,1,,,,,,,,,,,,,,,,,,,,,
,,,,,,,,,,,,,,,,,,,,,,60d13c261171b69977e81f9b,001,2021-08-01_13h58.32.383,arrow_simon_norep,2021.1.2,MacIntel,60.0024001,,,,,,,,,,,p,2.131,33,0,33,0,1,,,,,,,,,,,,,,,,,,,,,
,,,,,,,,,,,,,,,,,,,,,,60d13c261171b69977e81f9b,001,2021-08-01_13h58.32.383,arrow_simon_norep,2021.1.2,MacIntel,60.0024001,,,,,,,,,,,o,2.1646,34,0,34,0,1,,,,,,,,,,,,,,,,,,,,,
,,,,,,,,,,,,,,,,,,,,,,60d13c261171b69977e81f9b,001,2021-08-01_13h58.32.383,arrow_simon_norep,2021.1.2,MacIntel,60.0024001,,,,,,,,,,,p,2.3828,35,0,35,0,1,,,,,,,,,,,,,,,,,,,,,
,,,,,,,,,,,,,,,,,,,,,,60d13c261171b69977e81f9b,001,2021-08-01_13h58.32.383,arrow_simon_norep,2021.1.2,MacIntel,60.0024001,,,,,,,,,,,o,2.3103,36,0,36,0,1,,,,,,,,,,,,,,,,,,,,,
,,,,,,,,,,,,,,,,,,,,,,60d13c261171b69977e81f9b,001,2021-08-01_13h58.32.383,arrow_simon_norep,2021.1.2,MacIntel,60.0024001,,,,,,,,,,,p,2.4001,37,0,37,0,1,,,,,,,,,,,,,,,,,,,,,
,,,,,,,,,,,,,,,,,,,,,,60d13c261171b69977e81f9b,001,2021-08-01_13h58.32.383,arrow_simon_norep,2021.1.2,MacIntel,60.0024001,,,,,,,,,,,o,2.4285,38,0,38,0,1,,,,,,,,,,,,,,,,,,,,,
,,,,,,,,,,,,,,,,,,,,,,60d13c261171b69977e81f9b,001,2021-08-01_13h58.32.383,arrow_simon_norep,2021.1.2,MacIntel,60.0024001,,,,,,,,,,,p,2.4645,39,0,39,0,1,,,,,,,,,,,,,,,,,,,,,
,,,,,,,,,,,,,,,,,,,,,,60d13c261171b69977e81f9b,001,2021-08-01_13h58.32.383,arrow_simon_norep,2021.1.2,MacIntel,60.0024001,,,,,,,,,,,o,2.4527,40,0,40,0,1,,,,,,,,,,,,,,,,,,,,,
,,,,,,,,,,,,,,,,,,,,,,60d13c261171b69977e81f9b,001,2021-08-01_13h58.32.383,arrow_simon_norep,2021.1.2,MacIntel,60.0024001,,,,,,,,,,,p,2.3445,41,0,41,0,1,,,,,,,,,,,,,,,,,,,,,
,,,,,,,,,,,,,,,,,,,,,,60d13c261171b69977e81f9b,001,2021-08-01_13h58.32.383,arrow_simon_norep,2021.1.2,MacIntel,60.0024001,,,,,,,,,,,o,2.3279,42,0,42,0,1,,,,,,,,,,,,,,,,,,,,,
,,,,,,,,,,,,,,,,,,,,,,60d13c261171b69977e81f9b,001,2021-08-01_13h58.32.383,arrow_simon_norep,2021.1.2,MacIntel,60.0024001,,,,,,,,,,,p,2.2787,43,0,43,0,1,,,,,,,,,,,,,,,,,,,,,
,,,,,,,,,,,,,,,,,,,,,,60d13c261171b69977e81f9b,001,2021-08-01_13h58.32.383,arrow_simon_norep,2021.1.2,MacIntel,60.0024001,,,,,,,,,,,o,2.3329,44,0,44,0,1,,,,,,,,,,,,,,,,,,,,,
,,,,,,,,,,,,,,,,,,,,,,60d13c261171b69977e81f9b,001,2021-08-01_13h58.32.383,arrow_simon_norep,2021.1.2,MacIntel,60.0024001,,,,,,,,,,,p,2.5301,45,0,45,0,1,,,,,,,,,,,,,,,,,,,,,
,,,,,,,,,,,,,,,,,,,,,,60d13c261171b69977e81f9b,001,2021-08-01_13h58.32.383,arrow_simon_norep,2021.1.2,MacIntel,60.0024001,,,,,,,,,,,o,2.4329,46,0,46,0,1,,,,,,,,,,,,,,,,,,,,,
,,,,,,,,,,,,,,,,,,,,,,60d13c261171b69977e81f9b,001,2021-08-01_13h58.32.383,arrow_simon_norep,2021.1.2,MacIntel,60.0024001,,,,,,,,,,,p,2.5333,47,0,47,0,1,,,,,,,,,,,,,,,,,,,,,
,,,,,,,,,,,,,,,,,,,,,,60d13c261171b69977e81f9b,001,2021-08-01_13h58.32.383,arrow_simon_norep,2021.1.2,MacIntel,60.0024001,,,,,,,,,,,o,2.4434,48,0,48,0,1,,,,,,,,,,,,,,,,,,,,,
,,,,,,,,,,,,,,,,,,,,,,60d13c261171b69977e81f9b,001,2021-08-01_13h58.32.383,arrow_simon_norep,2021.1.2,MacIntel,60.0024001,,,,,,,,,,,p,2.5356,49,0,49,0,1,,,,,,,,,,,,,,,,,,,,,
,,,,,,,,,,,,,,,,,,,,,,60d13c261171b69977e81f9b,001,2021-08-01_13h58.32.383,arrow_simon_norep,2021.1.2,MacIntel,60.0024001,,,,,,,,,,,o,2.3023,50,0,50,0,1,,,,,,,,,,,,,,,,,,,,,
,,,,,,,,,,,,,,,,,,,,,,60d13c261171b69977e81f9b,001,2021-08-01_13h58.32.383,arrow_simon_norep,2021.1.2,MacIntel,60.0024001,,,,,,,,,,,p,2.4353,51,0,51,0,1,,,,,,,,,,,,,,,,,,,,,
,,,,,,,,,,,,,,,,,,,,,,60d13c261171b69977e81f9b,001,2021-08-01_13h58.32.383,arrow_simon_norep,2021.1.2,MacIntel,60.0024001,,,,,,,,,,,o,2.489,52,0,52,0,1,,,,,,,,,,,,,,,,,,,,,
,,,,,,,,,,,,,,,,,,,,,,60d13c261171b69977e81f9b,001,2021-08-01_13h58.32.383,arrow_simon_norep,2021.1.2,MacIntel,60.0024001,,,,,,,,,,,p,2.536,53,0,53,0,1,,,,,,,,,,,,,,,,,,,,,
,,,,,,,,,,,,,,,,,,,,,,60d13c261171b69977e81f9b,001,2021-08-01_13h58.32.383,arrow_simon_norep,2021.1.2,MacIntel,60.0024001,,,,,,,,,,,o,2.319,54,0,54,0,1,,,,,,,,,,,,,,,,,,,,,
,,,,,,,,,,,,,,,,,,,,,,60d13c261171b69977e81f9b,001,2021-08-01_13h58.32.383,arrow_simon_norep,2021.1.2,MacIntel,60.0024001,,,,,,,,,,,p,2.5934,55,0,55,0,1,,,,,,,,,,,,,,,,,,,,,
,,,,,,,,,,,,,,,,,,,,,,60d13c261171b69977e81f9b,001,2021-08-01_13h58.32.383,arrow_simon_norep,2021.1.2,MacIntel,60.0024001,,,,,,,,,,,o,2.427,56,0,56,0,1,,,,,,,,,,,,,,,,,,,,,
,,,,,,,,,,,,,,,,,,,,,,60d13c261171b69977e81f9b,001,2021-08-01_13h58.32.383,arrow_simon_norep,2021.1.2,MacIntel,60.0024001,,,,,,,,,,,p,2.2299,57,0,57,0,1,,,,,,,,,,,,,,,,,,,,,
,,,,,,,,,,,,,,,,,,,,,,60d13c261171b69977e81f9b,001,2021-08-01_13h58.32.383,arrow_simon_norep,2021.1.2,MacIntel,60.0024001,,,,,,,,,,,o,2.4919,58,0,58,0,1,,,,,,,,,,,,,,,,,,,,,
,,,,,,,,,,,,,,,,,,,,,,60d13c261171b69977e81f9b,001,2021-08-01_13h58.32.383,arrow_simon_norep,2021.1.2,MacIntel,60.0024001,,,,,,,,,,,p,2.6609,59,0,59,0,1,,,,,,,,,,,,,,,,,,,,,
,,,,,,1,1.554177145,#a3d0fb,,right_blue.png,o,,,,,,o,right_blue.png,right_orange.png,p,right,60d13c261171b69977e81f9b,001,2021-08-01_13h58.32.383,arrow_simon_norep,2021.1.2,MacIntel,60.0024001,,,,,,,,,,,,,,,,,,space,0,40.0109,p,0,1.4619,1,FALSE,FALSE,0,0,0,1,1,,,,,,,
,,,,,,1,2.276669587,#f3af84,,right_orange.png,p,,,,,,o,right_blue.png,right_orange.png,p,left,60d13c261171b69977e81f9b,001,2021-08-01_13h58.32.383,arrow_simon_norep,2021.1.2,MacIntel,60.0024001,,,,,,,,,,,,,,,,,,,,,p,1,1.7882,2,TRUE,FALSE,0,1,1,0,1,,,,,,,
,,,,,,1,2.198406296,#a3d0fb,,left_blue.png,w,,,,,,w,left_blue.png,left_orange.png,q,right,60d13c261171b69977e81f9b,001,2021-08-01_13h58.32.383,arrow_simon_norep,2021.1.2,MacIntel,60.0024001,,,,,,,,,,,,,,,,,,,,,o,0,1.5927,3,FALSE,FALSE,0,2,2,3,1,,,,,,,
,,,,,,1,2.42213082,#f3af84,,left_orange.png,q,,,,,,w,left_blue.png,left_orange.png,q,right,60d13c261171b69977e81f9b,001,2021-08-01_13h58.32.383,arrow_simon_norep,2021.1.2,MacIntel,60.0024001,,,,,,,,,,,,,,,,,,,,,q,1,1.8902,4,TRUE,FALSE,0,3,3,3,1,,,,,,,
,,,,,,1,2.46855915,#a3d0fb,,left_blue.png,w,,,,,,w,left_blue.png,left_orange.png,q,right,60d13c261171b69977e81f9b,001,2021-08-01_13h58.32.383,arrow_simon_norep,2021.1.2,MacIntel,60.0024001,,,,,,,,,,,,,,,,,,,,,o,0,1.9255,5,TRUE,FALSE,1,0,4,3,1,,,,,,,
,,,,,,0,1.962662255,#f3af84,,left_orange.png,q,,,,,,w,left_blue.png,left_orange.png,q,right,60d13c261171b69977e81f9b,001,2021-08-01_13h58.32.383,arrow_simon_norep,2021.1.2,MacIntel,60.0024001,,,,,,,,,,,,,,,,,,,,,q,1,1.585,6,FALSE,FALSE,1,1,5,3,1,,,,,,,
,,,,,,0,2.164397732,#a3d0fb,,right_blue.png,o,,,,,,o,right_blue.png,right_orange.png,p,left,60d13c261171b69977e81f9b,001,2021-08-01_13h58.32.383,arrow_simon_norep,2021.1.2,MacIntel,60.0024001,,,,,,,,,,,,,,,,,,,,,p,0,1.6261,7,TRUE,FALSE,1,2,6,0,1,,,,,,,
,,,,,,0,1.93745754,#f3af84,,left_orange.png,q,,,,,,w,left_blue.png,left_orange.png,q,right,60d13c261171b69977e81f9b,001,2021-08-01_13h58.32.383,arrow_simon_norep,2021.1.2,MacIntel,60.0024001,,,,,,,,,,,,,,,,,,,,,q,1,1.4158,8,FALSE,FALSE,1,3,7,3,1,,,,,,,
,,,,,,0,2.481516355,#a3d0fb,,right_blue.png,o,,,,,,o,right_blue.png,right_orange.png,p,right,60d13c261171b69977e81f9b,001,2021-08-01_13h58.32.383,arrow_simon_norep,2021.1.2,MacIntel,60.0024001,,,,,,,,,,,,,,,,,,,,,o,1,1.8511,9,TRUE,FALSE,2,0,8,1,1,,,,,,,
,,,,,,0,1.98930884,#f3af84,,left_orange.png,q,,,,,,w,left_blue.png,left_orange.png,q,left,60d13c261171b69977e81f9b,001,2021-08-01_13h58.32.383,arrow_simon_norep,2021.1.2,MacIntel,60.0024001,,,,,,,,,,,,,,,,,,,,,q,1,1.3556,10,FALSE,TRUE,2,1,9,2,1,,,,,,,
,,,,,,0,1.690580062,#a3d0fb,,right_blue.png,o,,,,,,o,right_blue.png,right_orange.png,p,left,60d13c261171b69977e81f9b,001,2021-08-01_13h58.32.383,arrow_simon_norep,2021.1.2,MacIntel,60.0024001,,,,,,,,,,,,,,,,,,,,,o,1,1.2512,11,FALSE,TRUE,2,2,10,0,1,,,,,,,
,,,,,,0,1.50605592,#f3af84,,right_orange.png,p,,,,,,o,right_blue.png,right_orange.png,p,left,60d13c261171b69977e81f9b,001,2021-08-01_13h58.32.383,arrow_simon_norep,2021.1.2,MacIntel,60.0024001,,,,,,,,,,,,,,,,,,,,,p,1,1.5215,12,FALSE,FALSE,2,3,11,0,1,,,,,,,
,,,,,,0,1.914255913,#a3d0fb,,left_blue.png,w,,,,,,w,left_blue.png,left_orange.png,q,right,60d13c261171b69977e81f9b,001,2021-08-01_13h58.32.383,arrow_simon_norep,2021.1.2,MacIntel,60.0024001,,,,,,,,,,,,,,,,,,,,,q,0,1.7076,13,TRUE,FALSE,3,0,12,3,1,,,,,,,
,,,,,,0,2.47820673,#f3af84,,left_orange.png,q,,,,,,w,left_blue.png,left_orange.png,q,left,60d13c261171b69977e81f9b,001,2021-08-01_13h58.32.383,arrow_simon_norep,2021.1.2,MacIntel,60.0024001,,,,,,,,,,,,,,,,,,,,,w,0,1.8706,14,TRUE,FALSE,3,1,13,2,1,,,,,,,
,,,,,,0,2.378073373,#a3d0fb,,left_blue.png,w,,,,,,w,left_blue.png,left_orange.png,q,right,60d13c261171b69977e81f9b,001,2021-08-01_13h58.32.383,arrow_simon_norep,2021.1.2,MacIntel,60.0024001,,,,,,,,,,,,,,,,,,,,,w,1,1.8929,15,TRUE,FALSE,3,2,14,3,1,,,,,,,
,,,,,,0,2.262654209,#f3af84,,right_orange.png,p,,,,,,o,right_blue.png,right_orange.png,p,right,60d13c261171b69977e81f9b,001,2021-08-01_13h58.32.383,arrow_simon_norep,2021.1.2,MacIntel,60.0024001,,,,,,,,,,,,,,,,,,,,,p,1,1.6495,16,TRUE,FALSE,3,3,15,1,1,,,,,,,
,,,,,,0,1.963945869,#a3d0fb,,right_blue.png,o,,,,,,o,right_blue.png,right_orange.png,p,right,60d13c261171b69977e81f9b,001,2021-08-01_13h58.32.383,arrow_simon_norep,2021.1.2,MacIntel,60.0024001,,,,,,,,,,,,,,,,,,,,,o,1,1.6328,17,TRUE,FALSE,4,0,16,1,1,,,,,,,
,,,,,,0,2.478512107,#f3af84,,right_orange.png,p,,,,,,o,right_blue.png,right_orange.png,p,right,60d13c261171b69977e81f9b,001,2021-08-01_13h58.32.383,arrow_simon_norep,2021.1.2,MacIntel,60.0024001,,,,,,,,,,,,,,,,,,,,,p,1,1.9578,18,TRUE,FALSE,4,1,17,1,1,,,,,,,
,,,,,,0,1.611705964,#a3d0fb,,left_blue.png,w,,,,,,w,left_blue.png,left_orange.png,q,left,60d13c261171b69977e81f9b,001,2021-08-01_13h58.32.383,arrow_simon_norep,2021.1.2,MacIntel,60.0024001,,,,,,,,,,,,,,,,,,,,,w,1,1.5343,19,FALSE,FALSE,4,2,18,2,1,,,,,,,
,,,,,,0,1.74700393,#f3af84,,right_orange.png,p,,,,,,o,right_blue.png,right_orange.png,p,left,60d13c261171b69977e81f9b,001,2021-08-01_13h58.32.383,arrow_simon_norep,2021.1.2,MacIntel,60.0024001,,,,,,,,,,,,,,,,,,,,,p,1,1.7409,20,TRUE,FALSE,4,3,19,0,1,,,,,,,
,,,,,,0,1.573342811,#a3d0fb,,right_blue.png,o,,,,,,o,right_blue.png,right_orange.png,p,left,60d13c261171b69977e81f9b,001,2021-08-01_13h58.32.383,arrow_simon_norep,2021.1.2,MacIntel,60.0024001,,,,,,,,,,,,,,,,,,,,,o,1,1.8212,21,TRUE,FALSE,5,0,20,0,1,,,,,,,
,,,,,,0,1.751425123,#f3af84,,right_orange.png,p,,,,,,o,right_blue.png,right_orange.png,p,left,60d13c261171b69977e81f9b,001,2021-08-01_13h58.32.383,arrow_simon_norep,2021.1.2,MacIntel,60.0024001,,,,,,,,,,,,,,,,,,,,,p,1,1.6677,22,TRUE,FALSE,5,1,21,0,1,,,,,,,
,,,,,,0,1.883981424,#a3d0fb,,right_blue.png,o,,,,,,o,right_blue.png,right_orange.png,p,left,60d13c261171b69977e81f9b,001,2021-08-01_13h58.32.383,arrow_simon_norep,2021.1.2,MacIntel,60.0024001,,,,,,,,,,,,,,,,,,,,,o,1,1.7032,23,TRUE,FALSE,5,2,22,0,1,,,,,,,
,,,,,,0,1.578986387,#f3af84,,right_orange.png,p,,,,,,o,right_blue.png,right_orange.png,p,left,60d13c261171b69977e81f9b,001,2021-08-01_13h58.32.383,arrow_simon_norep,2021.1.2,MacIntel,60.0024001,,,,,,,,,,,,,,,,,,,,,p,1,1.5183,24,FALSE,FALSE,5,3,23,0,1,,,,,,,
,,,,,,0,1.648111867,#a3d0fb,,left_blue.png,w,,,,,,w,left_blue.png,left_orange.png,q,right,60d13c261171b69977e81f9b,001,2021-08-01_13h58.32.383,arrow_simon_norep,2021.1.2,MacIntel,60.0024001,,,,,,,,,,,,,,,,,,,,,w,1,1.6842,25,TRUE,FALSE,6,0,24,3,1,,,,,,,
,,,,,,0,1.866487474,#f3af84,,right_orange.png,p,,,,,,o,right_blue.png,right_orange.png,p,left,60d13c261171b69977e81f9b,001,2021-08-01_13h58.32.383,arrow_simon_norep,2021.1.2,MacIntel,60.0024001,,,,,,,,,,,,,,,,,,,,,p,1,1.6675,26,TRUE,FALSE,6,1,25,0,1,,,,,,,
,,,,,,0,1.832614067,#a3d0fb,,left_blue.png,w,,,,,,w,left_blue.png,left_orange.png,q,right,60d13c261171b69977e81f9b,001,2021-08-01_13h58.32.383,arrow_simon_norep,2021.1.2,MacIntel,60.0024001,,,,,,,,,,,,,,,,,,,,,o,0,1.6039,27,TRUE,FALSE,6,2,26,3,1,,,,,,,
,,,,,,0,2.307338406,#f3af84,,left_orange.png,q,,,,,,w,left_blue.png,left_orange.png,q,left,60d13c261171b69977e81f9b,001,2021-08-01_13h58.32.383,arrow_simon_norep,2021.1.2,MacIntel,60.0024001,,,,,,,,,,,,,,,,,,,,,w,0,1.6928,28,TRUE,FALSE,6,3,27,2,1,,,,,,,
,,,,,,0,1.945083427,#a3d0fb,,right_blue.png,o,,,,,,o,right_blue.png,right_orange.png,p,right,60d13c261171b69977e81f9b,001,2021-08-01_13h58.32.383,arrow_simon_norep,2021.1.2,MacIntel,60.0024001,,,,,,,,,,,,,,,,,,,,,o,1,1.6356,29,TRUE,FALSE,7,0,28,1,1,,,,,,,
,,,,,,0,1.72800727,#f3af84,,left_orange.png,q,,,,,,w,left_blue.png,left_orange.png,q,left,60d13c261171b69977e81f9b,001,2021-08-01_13h58.32.383,arrow_simon_norep,2021.1.2,MacIntel,60.0024001,,,,,,,,,,,,,,,,,,,,,q,1,1.4715,30,FALSE,FALSE,7,1,29,2,1,,,,,,,
,,,,,,0,1.505105739,#a3d0fb,,left_blue.png,w,,,,,,w,left_blue.png,left_orange.png,q,left,60d13c261171b69977e81f9b,001,2021-08-01_13h58.32.383,arrow_simon_norep,2021.1.2,MacIntel,60.0024001,,,,,,,,,,,,,,,,,,,,,o,0,1.8006,31,TRUE,FALSE,7,2,30,2,1,,,,,,,
,,,,,,0,2.021088461,#f3af84,,left_orange.png,q,,,,,,w,left_blue.png,left_orange.png,q,left,60d13c261171b69977e81f9b,001,2021-08-01_13h58.32.383,arrow_simon_norep,2021.1.2,MacIntel,60.0024001,,,,,,,,,,,,,,,,,,,,,q,1,1.6703,32,TRUE,FALSE,7,3,31,2,1,,,,,,,
,,,,,,0,1.693078326,#a3d0fb,,right_blue.png,o,,,,,,o,right_blue.png,right_orange.png,p,left,60d13c261171b69977e81f9b,001,2021-08-01_13h58.32.383,arrow_simon_norep,2021.1.2,MacIntel,60.0024001,,,,,,,,,,,,,,,,,,,,,o,1,1.5399,33,FALSE,FALSE,8,0,32,0,1,,,,,,,
,,,,,,0,1.543799296,#f3af84,,left_orange.png,q,,,,,,w,left_blue.png,left_orange.png,q,right,60d13c261171b69977e81f9b,001,2021-08-01_13h58.32.383,arrow_simon_norep,2021.1.2,MacIntel,60.0024001,,,,,,,,,,,,,,,,,,,,,q,1,1.555,34,FALSE,FALSE,8,1,33,3,1,,,,,,,
,,,,,,0,2.106950464,#a3d0fb,,right_blue.png,o,,,,,,o,right_blue.png,right_orange.png,p,right,60d13c261171b69977e81f9b,001,2021-08-01_13h58.32.383,arrow_simon_norep,2021.1.2,MacIntel,60.0024001,,,,,,,,,,,,,,,,,,,,,o,1,1.5213,35,FALSE,FALSE,8,2,34,1,1,,,,,,,
,,,,,,0,1.595325426,#f3af84,,right_orange.png,p,,,,,,o,right_blue.png,right_orange.png,p,left,60d13c261171b69977e81f9b,001,2021-08-01_13h58.32.383,arrow_simon_norep,2021.1.2,MacIntel,60.0024001,,,,,,,,,,,,,,,,,,,,,p,1,1.3379,36,FALSE,TRUE,8,3,35,0,1,,,,,,,
,,,,,,0,1.969157722,#a3d0fb,,right_blue.png,o,,,,,,o,right_blue.png,right_orange.png,p,left,60d13c261171b69977e81f9b,001,2021-08-01_13h58.32.383,arrow_simon_norep,2021.1.2,MacIntel,60.0024001,,,,,,,,,,,,,,,,,,,,,o,1,1.694,37,TRUE,FALSE,9,0,36,0,1,,,,,,,
,,,,,,0,1.536776317,#f3af84,,right_orange.png,p,,,,,,o,right_blue.png,right_orange.png,p,right,60d13c261171b69977e81f9b,001,2021-08-01_13h58.32.383,arrow_simon_norep,2021.1.2,MacIntel,60.0024001,,,,,,,,,,,,,,,,,,,,,p,1,1.6067,38,TRUE,FALSE,9,1,37,1,1,,,,,,,
,,,,,,0,1.692785236,#a3d0fb,,left_blue.png,w,,,,,,w,left_blue.png,left_orange.png,q,right,60d13c261171b69977e81f9b,001,2021-08-01_13h58.32.383,arrow_simon_norep,2021.1.2,MacIntel,60.0024001,,,,,,,,,,,,,,,,,,,,,w,1,1.5177,39,FALSE,FALSE,9,2,38,3,1,,,,,,,
,,,,,,0,1.986661835,#f3af84,,left_orange.png,q,,,,,,w,left_blue.png,left_orange.png,q,left,60d13c261171b69977e81f9b,001,2021-08-01_13h58.32.383,arrow_simon_norep,2021.1.2,MacIntel,60.0024001,,,,,,,,,,,,,,,,,,,,,q,1,1.6475,40,TRUE,FALSE,9,3,39,2,1,,,,,,,
,,,,,,0,1.951544621,#a3d0fb,,left_blue.png,w,,,,,,w,left_blue.png,left_orange.png,q,right,60d13c261171b69977e81f9b,001,2021-08-01_13h58.32.383,arrow_simon_norep,2021.1.2,MacIntel,60.0024001,,,,,,,,,,,,,,,,,,,,,o,0,1.6588,41,TRUE,FALSE,10,0,40,3,1,,,,,,,
,,,,,,0,1.510991934,#f3af84,,left_orange.png,q,,,,,,w,left_blue.png,left_orange.png,q,left,60d13c261171b69977e81f9b,001,2021-08-01_13h58.32.383,arrow_simon_norep,2021.1.2,MacIntel,60.0024001,,,,,,,,,,,,,,,,,,,,,w,0,1.7327,42,TRUE,FALSE,10,1,41,2,1,,,,,,,
,,,,,,0,2.274794008,#a3d0fb,,left_blue.png,w,,,,,,w,left_blue.png,left_orange.png,q,right,60d13c261171b69977e81f9b,001,2021-08-01_13h58.32.383,arrow_simon_norep,2021.1.2,MacIntel,60.0024001,,,,,,,,,,,,,,,,,,,,,q,0,1.7355,43,TRUE,FALSE,10,2,42,3,1,,,,,,,
,,,,,,0,1.677165681,#f3af84,,right_orange.png,p,,,,,,o,right_blue.png,right_orange.png,p,right,60d13c261171b69977e81f9b,001,2021-08-01_13h58.32.383,arrow_simon_norep,2021.1.2,MacIntel,60.0024001,,,,,,,,,,,,,,,,,,,,,p,1,1.5487,44,FALSE,FALSE,10,3,43,1,1,,,,,,,
,,,,,,0,2.363668285,#a3d0fb,,right_blue.png,o,,,,,,o,right_blue.png,right_orange.png,p,right,60d13c261171b69977e81f9b,001,2021-08-01_13h58.32.383,arrow_simon_norep,2021.1.2,MacIntel,60.0024001,,,,,,,,,,,,,,,,,,,,,o,1,1.6661,45,TRUE,FALSE,11,0,44,1,1,,,,,,,
,,,,,,0,1.799590054,#f3af84,,right_orange.png,p,,,,,,o,right_blue.png,right_orange.png,p,left,60d13c261171b69977e81f9b,001,2021-08-01_13h58.32.383,arrow_simon_norep,2021.1.2,MacIntel,60.0024001,,,,,,,,,,,,,,,,,,,,,p,1,1.6758,46,TRUE,FALSE,11,1,45,0,1,,,,,,,
,,,,,,0,1.82091562,#a3d0fb,,left_blue.png,w,,,,,,w,left_blue.png,left_orange.png,q,left,60d13c261171b69977e81f9b,001,2021-08-01_13h58.32.383,arrow_simon_norep,2021.1.2,MacIntel,60.0024001,,,,,,,,,,,,,,,,,,,,,w,1,1.2333,47,FALSE,TRUE,11,2,46,2,1,,,,,,,
,,,,,,0,1.930019313,#f3af84,,right_orange.png,p,,,,,,o,right_blue.png,right_orange.png,p,right,60d13c261171b69977e81f9b,001,2021-08-01_13h58.32.383,arrow_simon_norep,2021.1.2,MacIntel,60.0024001,,,,,,,,,,,,,,,,,,,,,p,1,1.5664,48,FALSE,FALSE,11,3,47,1,1,,,,,,,
,,,,,,0,1.614493577,#a3d0fb,,right_blue.png,o,,,,,,o,right_blue.png,right_orange.png,p,right,60d13c261171b69977e81f9b,001,2021-08-01_13h58.32.383,arrow_simon_norep,2021.1.2,MacIntel,60.0024001,,,,,,,,,,,,,,,,,,,,,o,1,1.4984,49,FALSE,FALSE,12,0,48,1,1,,,,,,,
,,,,,,0,1.677209296,#f3af84,,right_orange.png,p,,,,,,o,right_blue.png,right_orange.png,p,left,60d13c261171b69977e81f9b,001,2021-08-01_13h58.32.383,arrow_simon_norep,2021.1.2,MacIntel,60.0024001,,,,,,,,,,,,,,,,,,,,,p,1,1.5726,50,FALSE,FALSE,12,1,49,0,1,,,,,,,
,,,,,,0,1.720936088,#a3d0fb,,right_blue.png,o,,,,,,o,right_blue.png,right_orange.png,p,right,60d13c261171b69977e81f9b,001,2021-08-01_13h58.32.383,arrow_simon_norep,2021.1.2,MacIntel,60.0024001,,,,,,,,,,,,,,,,,,,,,p,0,1.6841,51,TRUE,FALSE,12,2,50,1,1,,,,,,,
,,,,,,0,1.766027773,#f3af84,,left_orange.png,q,,,,,,w,left_blue.png,left_orange.png,q,left,60d13c261171b69977e81f9b,001,2021-08-01_13h58.32.383,arrow_simon_norep,2021.1.2,MacIntel,60.0024001,,,,,,,,,,,,,,,,,,,,,q,1,1.6665,52,TRUE,FALSE,12,3,51,2,1,,,,,,,
,,,,,,0,2.048123204,#a3d0fb,,left_blue.png,w,,,,,,w,left_blue.png,left_orange.png,q,left,60d13c261171b69977e81f9b,001,2021-08-01_13h58.32.383,arrow_simon_norep,2021.1.2,MacIntel,60.0024001,,,,,,,,,,,,,,,,,,,,,q,0,1.7325,53,TRUE,FALSE,13,0,52,2,1,,,,,,,
,,,,,,0,1.672506162,#f3af84,,left_orange.png,q,,,,,,w,left_blue.png,left_orange.png,q,right,60d13c261171b69977e81f9b,001,2021-08-01_13h58.32.383,arrow_simon_norep,2021.1.2,MacIntel,60.0024001,,,,,,,,,,,,,,,,,,,,,p,0,1.8976,54,TRUE,FALSE,13,1,53,3,1,,,,,,,
,,,,,,0,1.727151666,#a3d0fb,,right_blue.png,o,,,,,,o,right_blue.png,right_orange.png,p,right,60d13c261171b69977e81f9b,001,2021-08-01_13h58.32.383,arrow_simon_norep,2021.1.2,MacIntel,60.0024001,,,,,,,,,,,,,,,,,,,,,o,1,1.5177,55,FALSE,FALSE,13,2,54,1,1,,,,,,,
,,,,,,0,2.083442545,#f3af84,,left_orange.png,q,,,,,,w,left_blue.png,left_orange.png,q,left,60d13c261171b69977e81f9b,001,2021-08-01_13h58.32.383,arrow_simon_norep,2021.1.2,MacIntel,60.0024001,,,,,,,,,,,,,,,,,,,,,q,1,1.7161,56,TRUE,FALSE,13,3,55,2,1,,,,,,,
,,,,,,0,1.945335498,#a3d0fb,,left_blue.png,w,,,,,,w,left_blue.png,left_orange.png,q,left,60d13c261171b69977e81f9b,001,2021-08-01_13h58.32.383,arrow_simon_norep,2021.1.2,MacIntel,60.0024001,,,,,,,,,,,,,,,,,,,,,w,1,1.716,57,TRUE,FALSE,14,0,56,2,1,,,,,,,
,,,,,,0,1.622571102,#f3af84,,right_orange.png,p,,,,,,o,right_blue.png,right_orange.png,p,right,60d13c261171b69977e81f9b,001,2021-08-01_13h58.32.383,arrow_simon_norep,2021.1.2,MacIntel,60.0024001,,,,,,,,,,,,,,,,,,,,,p,1,1.1503,58,FALSE,TRUE,14,1,57,1,1,,,,,,,
,,,,,,0,2.169541458,#a3d0fb,,left_blue.png,w,,,,,,w,left_blue.png,left_orange.png,q,right,60d13c261171b69977e81f9b,001,2021-08-01_13h58.32.383,arrow_simon_norep,2021.1.2,MacIntel,60.0024001,,,,,,,,,,,,,,,,,,,,,w,1,1.6929,59,TRUE,FALSE,14,2,58,3,1,,,,,,,
,,,,,,0,1.750670455,#f3af84,,left_orange.png,q,,,,,,w,left_blue.png,left_orange.png,q,left,60d13c261171b69977e81f9b,001,2021-08-01_13h58.32.383,arrow_simon_norep,2021.1.2,MacIntel,60.0024001,,,,,,,,,,,,,,,,,,,,,q,1,1.5647,60,FALSE,FALSE,14,3,59,2,1,,,,,,,
,,,,,,,,,,,,,,,,,,,,,,60d13c261171b69977e81f9b,001,2021-08-01_13h58.32.383,arrow_simon_norep,2021.1.2,MacIntel,60.0024001,,,,,,,,,,,,,,,,,,,,,,,,,,,,,,,,space,17.6973,0,0,0,0,1
,,,,,,0,2.480384618,#a3d0fb,,left_blue.png,w,,,,,,w,left_blue.png,left_orange.png,q,right,60d13c261171b69977e81f9b,001,2021-08-01_13h58.32.383,arrow_simon_norep,2021.1.2,MacIntel,60.0024001,,,,,,,,,,,,,,,,,,,,,o,0,1.8336,1,TRUE,FALSE,0,0,0,3,1,,,,,,,
,,,,,,0,2.442034849,#f3af84,,left_orange.png,q,,,,,,w,left_blue.png,left_orange.png,q,right,60d13c261171b69977e81f9b,001,2021-08-01_13h58.32.383,arrow_simon_norep,2021.1.2,MacIntel,60.0024001,,,,,,,,,,,,,,,,,,,,,o,0,1.7807,2,TRUE,FALSE,0,1,1,3,1,,,,,,,
,,,,,,0,1.876244153,#a3d0fb,,left_blue.png,w,,,,,,w,left_blue.png,left_orange.png,q,left,60d13c261171b69977e81f9b,001,2021-08-01_13h58.32.383,arrow_simon_norep,2021.1.2,MacIntel,60.0024001,,,,,,,,,,,,,,,,,,,,,w,1,1.6144,3,TRUE,FALSE,0,2,2,2,1,,,,,,,
,,,,,,0,2.023470624,#f3af84,,left_orange.png,q,,,,,,w,left_blue.png,left_orange.png,q,left,60d13c261171b69977e81f9b,001,2021-08-01_13h58.32.383,arrow_simon_norep,2021.1.2,MacIntel,60.0024001,,,,,,,,,,,,,,,,,,,,,q,1,1.5986,4,FALSE,FALSE,0,3,3,2,1,,,,,,,
,,,,,,0,1.946880749,#a3d0fb,,left_blue.png,w,,,,,,w,left_blue.png,left_orange.png,q,left,60d13c261171b69977e81f9b,001,2021-08-01_13h58.32.383,arrow_simon_norep,2021.1.2,MacIntel,60.0024001,,,,,,,,,,,,,,,,,,,,,w,1,1.5823,5,FALSE,FALSE,1,0,4,2,1,,,,,,,
,,,,,,0,2.07297093,#f3af84,,right_orange.png,p,,,,,,o,right_blue.png,right_orange.png,p,left,60d13c261171b69977e81f9b,001,2021-08-01_13h58.32.383,arrow_simon_norep,2021.1.2,MacIntel,60.0024001,,,,,,,,,,,,,,,,,,,,,p,1,1.6622,6,TRUE,FALSE,1,1,5,0,1,,,,,,,
,,,,,,0,2.01113797,#a3d0fb,,right_blue.png,o,,,,,,o,right_blue.png,right_orange.png,p,left,60d13c261171b69977e81f9b,001,2021-08-01_13h58.32.383,arrow_simon_norep,2021.1.2,MacIntel,60.0024001,,,,,,,,,,,,,,,,,,,,,o,1,1.5324,7,FALSE,FALSE,1,2,6,0,1,,,,,,,
,,,,,,0,1.552400773,#f3af84,,left_orange.png,q,,,,,,w,left_blue.png,left_orange.png,q,right,60d13c261171b69977e81f9b,001,2021-08-01_13h58.32.383,arrow_simon_norep,2021.1.2,MacIntel,60.0024001,,,,,,,,,,,,,,,,,,,,,w,0,1.6852,8,TRUE,FALSE,1,3,7,3,1,,,,,,,
,,,,,,0,2.077288932,#a3d0fb,,right_blue.png,o,,,,,,o,right_blue.png,right_orange.png,p,left,60d13c261171b69977e81f9b,001,2021-08-01_13h58.32.383,arrow_simon_norep,2021.1.2,MacIntel,60.0024001,,,,,,,,,,,,,,,,,,,,,o,1,1.6122,9,TRUE,FALSE,2,0,8,0,1,,,,,,,
,,,,,,0,2.197476595,#f3af84,,right_orange.png,p,,,,,,o,right_blue.png,right_orange.png,p,left,60d13c261171b69977e81f9b,001,2021-08-01_13h58.32.383,arrow_simon_norep,2021.1.2,MacIntel,60.0024001,,,,,,,,,,,,,,,,,,,,,p,1,1.6288,10,TRUE,FALSE,2,1,9,0,1,,,,,,,
,,,,,,0,2.175619835,#a3d0fb,,left_blue.png,w,,,,,,w,left_blue.png,left_orange.png,q,right,60d13c261171b69977e81f9b,001,2021-08-01_13h58.32.383,arrow_simon_norep,2021.1.2,MacIntel,60.0024001,,,,,,,,,,,,,,,,,,,,,o,0,1.7477,11,TRUE,FALSE,2,2,10,3,1,,,,,,,
,,,,,,0,1.851403378,#f3af84,,right_orange.png,p,,,,,,o,right_blue.png,right_orange.png,p,right,60d13c261171b69977e81f9b,001,2021-08-01_13h58.32.383,arrow_simon_norep,2021.1.2,MacIntel,60.0024001,,,,,,,,,,,,,,,,,,,,,p,1,1.566,12,FALSE,FALSE,2,3,11,1,1,,,,,,,
,,,,,,0,1.573647443,#a3d0fb,,right_blue.png,o,,,,,,o,right_blue.png,right_orange.png,p,right,60d13c261171b69977e81f9b,001,2021-08-01_13h58.32.383,arrow_simon_norep,2021.1.2,MacIntel,60.0024001,,,,,,,,,,,,,,,,,,,,,o,1,1.5696,13,FALSE,FALSE,3,0,12,1,1,,,,,,,
,,,,,,0,1.853812456,#f3af84,,right_orange.png,p,,,,,,o,right_blue.png,right_orange.png,p,left,60d13c261171b69977e81f9b,001,2021-08-01_13h58.32.383,arrow_simon_norep,2021.1.2,MacIntel,60.0024001,,,,,,,,,,,,,,,,,,,,,p,1,1.5497,14,FALSE,FALSE,3,1,13,0,1,,,,,,,
,,,,,,0,2.00469135,#a3d0fb,,left_blue.png,w,,,,,,w,left_blue.png,left_orange.png,q,left,60d13c261171b69977e81f9b,001,2021-08-01_13h58.32.383,arrow_simon_norep,2021.1.2,MacIntel,60.0024001,,,,,,,,,,,,,,,,,,,,,w,1,1.6142,15,TRUE,FALSE,3,2,14,2,1,,,,,,,
,,,,,,0,2.335083114,#f3af84,,right_orange.png,p,,,,,,o,right_blue.png,right_orange.png,p,right,60d13c261171b69977e81f9b,001,2021-08-01_13h58.32.383,arrow_simon_norep,2021.1.2,MacIntel,60.0024001,,,,,,,,,,,,,,,,,,,,,p,1,1.6881,16,TRUE,FALSE,3,3,15,1,1,,,,,,,
,,,,,,0,2.068438673,#a3d0fb,,right_blue.png,o,,,,,,o,right_blue.png,right_orange.png,p,right,60d13c261171b69977e81f9b,001,2021-08-01_13h58.32.383,arrow_simon_norep,2021.1.2,MacIntel,60.0024001,,,,,,,,,,,,,,,,,,,,,o,1,1.6336,17,TRUE,FALSE,4,0,16,1,1,,,,,,,
,,,,,,0,2.319334909,#f3af84,,left_orange.png,q,,,,,,w,left_blue.png,left_orange.png,q,right,60d13c261171b69977e81f9b,001,2021-08-01_13h58.32.383,arrow_simon_norep,2021.1.2,MacIntel,60.0024001,,,,,,,,,,,,,,,,,,,,,o,0,1.7646,18,TRUE,FALSE,4,1,17,3,1,,,,,,,
,,,,,,0,1.883291937,#a3d0fb,,right_blue.png,o,,,,,,o,right_blue.png,right_orange.png,p,right,60d13c261171b69977e81f9b,001,2021-08-01_13h58.32.383,arrow_simon_norep,2021.1.2,MacIntel,60.0024001,,,,,,,,,,,,,,,,,,,,,o,1,1.5505,19,FALSE,FALSE,4,2,18,1,1,,,,,,,
,,,,,,0,2.460169518,#f3af84,,right_orange.png,p,,,,,,o,right_blue.png,right_orange.png,p,right,60d13c261171b69977e81f9b,001,2021-08-01_13h58.32.383,arrow_simon_norep,2021.1.2,MacIntel,60.0024001,,,,,,,,,,,,,,,,,,,,,p,1,1.7481,20,TRUE,FALSE,4,3,19,1,1,,,,,,,
,,,,,,0,2.189755068,#a3d0fb,,right_blue.png,o,,,,,,o,right_blue.png,right_orange.png,p,left,60d13c261171b69977e81f9b,001,2021-08-01_13h58.32.383,arrow_simon_norep,2021.1.2,MacIntel,60.0024001,,,,,,,,,,,,,,,,,,,,,o,1,1.7328,21,TRUE,FALSE,5,0,20,0,1,,,,,,,
,,,,,,0,1.843929175,#f3af84,,right_orange.png,p,,,,,,o,right_blue.png,right_orange.png,p,right,60d13c261171b69977e81f9b,001,2021-08-01_13h58.32.383,arrow_simon_norep,2021.1.2,MacIntel,60.0024001,,,,,,,,,,,,,,,,,,,,,p,1,1.5142,22,FALSE,FALSE,5,1,21,1,1,,,,,,,
,,,,,,0,2.374689698,#a3d0fb,,right_blue.png,o,,,,,,o,right_blue.png,right_orange.png,p,left,60d13c261171b69977e81f9b,001,2021-08-01_13h58.32.383,arrow_simon_norep,2021.1.2,MacIntel,60.0024001,,,,,,,,,,,,,,,,,,,,,w,0,1.751,23,TRUE,FALSE,5,2,22,0,1,,,,,,,
,,,,,,0,2.495138612,#f3af84,,left_orange.png,q,,,,,,w,left_blue.png,left_orange.png,q,left,60d13c261171b69977e81f9b,001,2021-08-01_13h58.32.383,arrow_simon_norep,2021.1.2,MacIntel,60.0024001,,,,,,,,,,,,,,,,,,,,,p,0,1.6626,24,TRUE,FALSE,5,3,23,2,1,,,,,,,
,,,,,,0,2.181873401,#a3d0fb,,left_blue.png,w,,,,,,w,left_blue.png,left_orange.png,q,right,60d13c261171b69977e81f9b,001,2021-08-01_13h58.32.383,arrow_simon_norep,2021.1.2,MacIntel,60.0024001,,,,,,,,,,,,,,,,,,,,,w,1,1.6682,25,TRUE,FALSE,6,0,24,3,1,,,,,,,
,,,,,,0,1.719531814,#f3af84,,right_orange.png,p,,,,,,o,right_blue.png,right_orange.png,p,left,60d13c261171b69977e81f9b,001,2021-08-01_13h58.32.383,arrow_simon_norep,2021.1.2,MacIntel,60.0024001,,,,,,,,,,,,,,,,,,,,,p,1,1.5826,26,FALSE,FALSE,6,1,25,0,1,,,,,,,
,,,,,,0,2.315550587,#a3d0fb,,right_blue.png,o,,,,,,o,right_blue.png,right_orange.png,p,right,60d13c261171b69977e81f9b,001,2021-08-01_13h58.32.383,arrow_simon_norep,2021.1.2,MacIntel,60.0024001,,,,,,,,,,,,,,,,,,,,,o,1,1.6797,27,TRUE,FALSE,6,2,26,1,1,,,,,,,
,,,,,,0,1.74029705,#f3af84,,left_orange.png,q,,,,,,w,left_blue.png,left_orange.png,q,left,60d13c261171b69977e81f9b,001,2021-08-01_13h58.32.383,arrow_simon_norep,2021.1.2,MacIntel,60.0024001,,,,,,,,,,,,,,,,,,,,,q,1,1.5829,28,FALSE,FALSE,6,3,27,2,1,,,,,,,
,,,,,,0,1.916878578,#a3d0fb,,left_blue.png,w,,,,,,w,left_blue.png,left_orange.png,q,left,60d13c261171b69977e81f9b,001,2021-08-01_13h58.32.383,arrow_simon_norep,2021.1.2,MacIntel,60.0024001,,,,,,,,,,,,,,,,,,,,,w,1,1.5689,29,FALSE,FALSE,7,0,28,2,1,,,,,,,
,,,,,,0,1.620098631,#f3af84,,left_orange.png,q,,,,,,w,left_blue.png,left_orange.png,q,left,60d13c261171b69977e81f9b,001,2021-08-01_13h58.32.383,arrow_simon_norep,2021.1.2,MacIntel,60.0024001,,,,,,,,,,,,,,,,,,,,,q,1,1.5829,30,FALSE,FALSE,7,1,29,2,1,,,,,,,
,,,,,,0,2.005948743,#a3d0fb,,right_blue.png,o,,,,,,o,right_blue.png,right_orange.png,p,left,60d13c261171b69977e81f9b,001,2021-08-01_13h58.32.383,arrow_simon_norep,2021.1.2,MacIntel,60.0024001,,,,,,,,,,,,,,,,,,,,,o,1,1.9479,31,TRUE,FALSE,7,2,30,0,1,,,,,,,
,,,,,,0,1.983742525,#f3af84,,left_orange.png,q,,,,,,w,left_blue.png,left_orange.png,q,right,60d13c261171b69977e81f9b,001,2021-08-01_13h58.32.383,arrow_simon_norep,2021.1.2,MacIntel,60.0024001,,,,,,,,,,,,,,,,,,,,,p,0,1.6248,32,TRUE,FALSE,7,3,31,3,1,,,,,,,
,,,,,,0,2.29799222,#a3d0fb,,left_blue.png,w,,,,,,w,left_blue.png,left_orange.png,q,right,60d13c261171b69977e81f9b,001,2021-08-01_13h58.32.383,arrow_simon_norep,2021.1.2,MacIntel,60.0024001,,,,,,,,,,,,,,,,,,,,,w,1,1.7587,33,TRUE,FALSE,8,0,32,3,1,,,,,,,
,,,,,,0,1.958018911,#f3af84,,right_orange.png,p,,,,,,o,right_blue.png,right_orange.png,p,left,60d13c261171b69977e81f9b,001,2021-08-01_13h58.32.383,arrow_simon_norep,2021.1.2,MacIntel,60.0024001,,,,,,,,,,,,,,,,,,,,,p,1,1.6317,34,TRUE,FALSE,8,1,33,0,1,,,,,,,
,,,,,,0,1.737853279,#a3d0fb,,right_blue.png,o,,,,,,o,right_blue.png,right_orange.png,p,left,60d13c261171b69977e81f9b,001,2021-08-01_13h58.32.383,arrow_simon_norep,2021.1.2,MacIntel,60.0024001,,,,,,,,,,,,,,,,,,,,,o,1,1.4085,35,FALSE,FALSE,8,2,34,0,1,,,,,,,
,,,,,,0,1.691947273,#f3af84,,right_orange.png,p,,,,,,o,right_blue.png,right_orange.png,p,right,60d13c261171b69977e81f9b,001,2021-08-01_13h58.32.383,arrow_simon_norep,2021.1.2,MacIntel,60.0024001,,,,,,,,,,,,,,,,,,,,,p,1,1.5832,36,FALSE,FALSE,8,3,35,1,1,,,,,,,
,,,,,,0,2.245833536,#a3d0fb,,right_blue.png,o,,,,,,o,right_blue.png,right_orange.png,p,right,60d13c261171b69977e81f9b,001,2021-08-01_13h58.32.383,arrow_simon_norep,2021.1.2,MacIntel,60.0024001,,,,,,,,,,,,,,,,,,,,,o,1,1.5809,37,FALSE,FALSE,9,0,36,1,1,,,,,,,
,,,,,,0,2.45386573,#f3af84,,right_orange.png,p,,,,,,o,right_blue.png,right_orange.png,p,left,60d13c261171b69977e81f9b,001,2021-08-01_13h58.32.383,arrow_simon_norep,2021.1.2,MacIntel,60.0024001,,,,,,,,,,,,,,,,,,,,,p,1,1.8705,38,TRUE,FALSE,9,1,37,0,1,,,,,,,
,,,,,,0,2.153318344,#a3d0fb,,left_blue.png,w,,,,,,w,left_blue.png,left_orange.png,q,right,60d13c261171b69977e81f9b,001,2021-08-01_13h58.32.383,arrow_simon_norep,2021.1.2,MacIntel,60.0024001,,,,,,,,,,,,,,,,,,,,,w,1,1.5823,39,FALSE,FALSE,9,2,38,3,1,,,,,,,
,,,,,,0,2.344352566,#f3af84,,left_orange.png,q,,,,,,w,left_blue.png,left_orange.png,q,left,60d13c261171b69977e81f9b,001,2021-08-01_13h58.32.383,arrow_simon_norep,2021.1.2,MacIntel,60.0024001,,,,,,,,,,,,,,,,,,,,,w,0,1.8659,40,TRUE,FALSE,9,3,39,2,1,,,,,,,
,,,,,,0,2.44162037,#a3d0fb,,left_blue.png,w,,,,,,w,left_blue.png,left_orange.png,q,left,60d13c261171b69977e81f9b,001,2021-08-01_13h58.32.383,arrow_simon_norep,2021.1.2,MacIntel,60.0024001,,,,,,,,,,,,,,,,,,,,,w,1,1.5258,41,FALSE,FALSE,10,0,40,2,1,,,,,,,
,,,,,,0,1.728657328,#f3af84,,left_orange.png,q,,,,,,w,left_blue.png,left_orange.png,q,left,60d13c261171b69977e81f9b,001,2021-08-01_13h58.32.383,arrow_simon_norep,2021.1.2,MacIntel,60.0024001,,,,,,,,,,,,,,,,,,,,,q,1,1.5458,42,FALSE,FALSE,10,1,41,2,1,,,,,,,
,,,,,,0,1.91175478,#a3d0fb,,right_blue.png,o,,,,,,o,right_blue.png,right_orange.png,p,left,60d13c261171b69977e81f9b,001,2021-08-01_13h58.32.383,arrow_simon_norep,2021.1.2,MacIntel,60.0024001,,,,,,,,,,,,,,,,,,,,,o,1,1.5796,43,FALSE,FALSE,10,2,42,0,1,,,,,,,
,,,,,,0,1.520552606,#f3af84,,right_orange.png,p,,,,,,o,right_blue.png,right_orange.png,p,right,60d13c261171b69977e81f9b,001,2021-08-01_13h58.32.383,arrow_simon_norep,2021.1.2,MacIntel,60.0024001,,,,,,,,,,,,,,,,,,,,,p,1,1.4624,44,FALSE,FALSE,10,3,43,1,1,,,,,,,
,,,,,,0,1.780419617,#a3d0fb,,right_blue.png,o,,,,,,o,right_blue.png,right_orange.png,p,right,60d13c261171b69977e81f9b,001,2021-08-01_13h58.32.383,arrow_simon_norep,2021.1.2,MacIntel,60.0024001,,,,,,,,,,,,,,,,,,,,,o,1,1.2836,45,FALSE,TRUE,11,0,44,1,1,,,,,,,
,,,,,,0,1.713054931,#f3af84,,left_orange.png,q,,,,,,w,left_blue.png,left_orange.png,q,left,60d13c261171b69977e81f9b,001,2021-08-01_13h58.32.383,arrow_simon_norep,2021.1.2,MacIntel,60.0024001,,,,,,,,,,,,,,,,,,,,,q,1,1.4828,46,FALSE,FALSE,11,1,45,2,1,,,,,,,
,,,,,,0,1.533583038,#a3d0fb,,right_blue.png,o,,,,,,o,right_blue.png,right_orange.png,p,right,60d13c261171b69977e81f9b,001,2021-08-01_13h58.32.383,arrow_simon_norep,2021.1.2,MacIntel,60.0024001,,,,,,,,,,,,,,,,,,,,,o,1,1.5833,47,FALSE,FALSE,11,2,46,1,1,,,,,,,
,,,,,,0,1.764799625,#f3af84,,right_orange.png,p,,,,,,o,right_blue.png,right_orange.png,p,left,60d13c261171b69977e81f9b,001,2021-08-01_13h58.32.383,arrow_simon_norep,2021.1.2,MacIntel,60.0024001,,,,,,,,,,,,,,,,,,,,,p,1,1.5644,48,FALSE,FALSE,11,3,47,0,1,,,,,,,
,,,,,,0,1.828684349,#a3d0fb,,left_blue.png,w,,,,,,w,left_blue.png,left_orange.png,q,right,60d13c261171b69977e81f9b,001,2021-08-01_13h58.32.383,arrow_simon_norep,2021.1.2,MacIntel,60.0024001,,,,,,,,,,,,,,,,,,,,,q,0,1.7001,49,TRUE,FALSE,12,0,48,3,1,,,,,,,
,,,,,,0,1.571179138,#f3af84,,left_orange.png,q,,,,,,w,left_blue.png,left_orange.png,q,right,60d13c261171b69977e81f9b,001,2021-08-01_13h58.32.383,arrow_simon_norep,2021.1.2,MacIntel,60.0024001,,,,,,,,,,,,,,,,,,,,,w,0,1.6999,50,TRUE,FALSE,12,1,49,3,1,,,,,,,
,,,,,,0,2.235850759,#a3d0fb,,left_blue.png,w,,,,,,w,left_blue.png,left_orange.png,q,left,60d13c261171b69977e81f9b,001,2021-08-01_13h58.32.383,arrow_simon_norep,2021.1.2,MacIntel,60.0024001,,,,,,,,,,,,,,,,,,,,,w,1,1.645,51,TRUE,FALSE,12,2,50,2,1,,,,,,,
,,,,,,0,1.807614191,#f3af84,,left_orange.png,q,,,,,,w,left_blue.png,left_orange.png,q,right,60d13c261171b69977e81f9b,001,2021-08-01_13h58.32.383,arrow_simon_norep,2021.1.2,MacIntel,60.0024001,,,,,,,,,,,,,,,,,,,,,q,1,1.6508,52,TRUE,FALSE,12,3,51,3,1,,,,,,,
,,,,,,0,2.456155923,#a3d0fb,,right_blue.png,o,,,,,,o,right_blue.png,right_orange.png,p,right,60d13c261171b69977e81f9b,001,2021-08-01_13h58.32.383,arrow_simon_norep,2021.1.2,MacIntel,60.0024001,,,,,,,,,,,,,,,,,,,,,o,1,1.7494,53,TRUE,FALSE,13,0,52,1,1,,,,,,,
,,,,,,0,2.35834913,#f3af84,,left_orange.png,q,,,,,,w,left_blue.png,left_orange.png,q,right,60d13c261171b69977e81f9b,001,2021-08-01_13h58.32.383,arrow_simon_norep,2021.1.2,MacIntel,60.0024001,,,,,,,,,,,,,,,,,,,,,w,0,1.9516,54,TRUE,FALSE,13,1,53,3,1,,,,,,,
,,,,,,0,2.283318165,#a3d0fb,,right_blue.png,o,,,,,,o,right_blue.png,right_orange.png,p,right,60d13c261171b69977e81f9b,001,2021-08-01_13h58.32.383,arrow_simon_norep,2021.1.2,MacIntel,60.0024001,,,,,,,,,,,,,,,,,,,,,o,1,1.6772,55,TRUE,FALSE,13,2,54,1,1,,,,,,,
,,,,,,0,2.343087301,#f3af84,,left_orange.png,q,,,,,,w,left_blue.png,left_orange.png,q,right,60d13c261171b69977e81f9b,001,2021-08-01_13h58.32.383,arrow_simon_norep,2021.1.2,MacIntel,60.0024001,,,,,,,,,,,,,,,,,,,,,q,1,1.9163,56,TRUE,FALSE,13,3,55,3,1,,,,,,,
,,,,,,0,2.010898876,#a3d0fb,,left_blue.png,w,,,,,,w,left_blue.png,left_orange.png,q,left,60d13c261171b69977e81f9b,001,2021-08-01_13h58.32.383,arrow_simon_norep,2021.1.2,MacIntel,60.0024001,,,,,,,,,,,,,,,,,,,,,w,1,1.4425,57,FALSE,FALSE,14,0,56,2,1,,,,,,,
,,,,,,0,2.018686247,#f3af84,,right_orange.png,p,,,,,,o,right_blue.png,right_orange.png,p,left,60d13c261171b69977e81f9b,001,2021-08-01_13h58.32.383,arrow_simon_norep,2021.1.2,MacIntel,60.0024001,,,,,,,,,,,,,,,,,,,,,p,1,1.6514,58,TRUE,FALSE,14,1,57,0,1,,,,,,,
,,,,,,0,2.048105846,#a3d0fb,,left_blue.png,w,,,,,,w,left_blue.png,left_orange.png,q,left,60d13c261171b69977e81f9b,001,2021-08-01_13h58.32.383,arrow_simon_norep,2021.1.2,MacIntel,60.0024001,,,,,,,,,,,,,,,,,,,,,q,0,1.6669,59,TRUE,FALSE,14,2,58,2,1,,,,,,,
,,,,,,0,2.304427694,#f3af84,,left_orange.png,q,,,,,,w,left_blue.png,left_orange.png,q,right,60d13c261171b69977e81f9b,001,2021-08-01_13h58.32.383,arrow_simon_norep,2021.1.2,MacIntel,60.0024001,,,,,,,,,,,,,,,,,,,,,o,0,1.9484,60,TRUE,FALSE,14,3,59,3,1,,,,,,,
,,,,,,,,,,,,,,,,,,,,,,60d13c261171b69977e81f9b,001,2021-08-01_13h58.32.383,arrow_simon_norep,2021.1.2,MacIntel,60.0024001,,,,,,,,,,,,,,,,,,,,,,,,,,,,,,,,space,5.896,1,0,1,0,1
,,,,,,0,1.748871385,#a3d0fb,,right_blue.png,o,,,,,,o,right_blue.png,right_orange.png,p,left,60d13c261171b69977e81f9b,001,2021-08-01_13h58.32.383,arrow_simon_norep,2021.1.2,MacIntel,60.0024001,,,,,,,,,,,,,,,,,,,,,o,1,1.4776,1,FALSE,FALSE,0,0,0,0,1,,,,,,,
,,,,,,0,2.26049769,#f3af84,,right_orange.png,p,,,,,,o,right_blue.png,right_orange.png,p,left,60d13c261171b69977e81f9b,001,2021-08-01_13h58.32.383,arrow_simon_norep,2021.1.2,MacIntel,60.0024001,,,,,,,,,,,,,,,,,,,,,p,1,1.6155,2,TRUE,FALSE,0,1,1,0,1,,,,,,,
,,,,,,0,2.296116818,#a3d0fb,,left_blue.png,w,,,,,,w,left_blue.png,left_orange.png,q,right,60d13c261171b69977e81f9b,001,2021-08-01_13h58.32.383,arrow_simon_norep,2021.1.2,MacIntel,60.0024001,,,,,,,,,,,,,,,,,,,,,o,0,1.6321,3,TRUE,FALSE,0,2,2,3,1,,,,,,,
,,,,,,0,1.793914623,#f3af84,,right_orange.png,p,,,,,,o,right_blue.png,right_orange.png,p,right,60d13c261171b69977e81f9b,001,2021-08-01_13h58.32.383,arrow_simon_norep,2021.1.2,MacIntel,60.0024001,,,,,,,,,,,,,,,,,,,,,p,1,1.4006,4,FALSE,FALSE,0,3,3,1,1,,,,,,,
,,,,,,0,2.376817313,#a3d0fb,,left_blue.png,w,,,,,,w,left_blue.png,left_orange.png,q,left,60d13c261171b69977e81f9b,001,2021-08-01_13h58.32.383,arrow_simon_norep,2021.1.2,MacIntel,60.0024001,,,,,,,,,,,,,,,,,,,,,w,1,1.6988,5,TRUE,FALSE,1,0,4,2,1,,,,,,,
,,,,,,1,1.595778718,#f3af84,,left_orange.png,q,,,,,,w,left_blue.png,left_orange.png,q,right,60d13c261171b69977e81f9b,001,2021-08-01_13h58.32.383,arrow_simon_norep,2021.1.2,MacIntel,60.0024001,,,,,,,,,,,,,,,,,,,,,p,0,1.5136,6,FALSE,FALSE,1,1,5,3,1,,,,,,,
,,,,,,1,2.463636103,#a3d0fb,,left_blue.png,w,,,,,,w,left_blue.png,left_orange.png,q,right,60d13c261171b69977e81f9b,001,2021-08-01_13h58.32.383,arrow_simon_norep,2021.1.2,MacIntel,60.0024001,,,,,,,,,,,,,,,,,,,,,w,1,1.9167,7,TRUE,FALSE,1,2,6,3,1,,,,,,,
,,,,,,0,1.860501377,#f3af84,,left_orange.png,q,,,,,,w,left_blue.png,left_orange.png,q,right,60d13c261171b69977e81f9b,001,2021-08-01_13h58.32.383,arrow_simon_norep,2021.1.2,MacIntel,60.0024001,,,,,,,,,,,,,,,,,,,,,q,1,1.4839,8,FALSE,FALSE,1,3,7,3,1,,,,,,,
,,,,,,0,1.995229286,#a3d0fb,,right_blue.png,o,,,,,,o,right_blue.png,right_orange.png,p,left,60d13c261171b69977e81f9b,001,2021-08-01_13h58.32.383,arrow_simon_norep,2021.1.2,MacIntel,60.0024001,,,,,,,,,,,,,,,,,,,,,p,0,1.6837,9,TRUE,FALSE,2,0,8,0,1,,,,,,,
,,,,,,0,2.470574386,#f3af84,,right_orange.png,p,,,,,,o,right_blue.png,right_orange.png,p,right,60d13c261171b69977e81f9b,001,2021-08-01_13h58.32.383,arrow_simon_norep,2021.1.2,MacIntel,60.0024001,,,,,,,,,,,,,,,,,,,,,p,1,1.6988,10,TRUE,FALSE,2,1,9,1,1,,,,,,,
,,,,,,0,2.324660375,#a3d0fb,,right_blue.png,o,,,,,,o,right_blue.png,right_orange.png,p,left,60d13c261171b69977e81f9b,001,2021-08-01_13h58.32.383,arrow_simon_norep,2021.1.2,MacIntel,60.0024001,,,,,,,,,,,,,,,,,,,,,w,0,1.6824,11,TRUE,FALSE,2,2,10,0,1,,,,,,,
,,,,,,0,2.011921904,#f3af84,,left_orange.png,q,,,,,,w,left_blue.png,left_orange.png,q,left,60d13c261171b69977e81f9b,001,2021-08-01_13h58.32.383,arrow_simon_norep,2021.1.2,MacIntel,60.0024001,,,,,,,,,,,,,,,,,,,,,q,1,1.5483,12,FALSE,FALSE,2,3,11,2,1,,,,,,,
,,,,,,0,1.875548823,#a3d0fb,,left_blue.png,w,,,,,,w,left_blue.png,left_orange.png,q,left,60d13c261171b69977e81f9b,001,2021-08-01_13h58.32.383,arrow_simon_norep,2021.1.2,MacIntel,60.0024001,,,,,,,,,,,,,,,,,,,,,w,1,1.4817,13,FALSE,FALSE,3,0,12,2,1,,,,,,,
,,,,,,0,2.21895825,#f3af84,,right_orange.png,p,,,,,,o,right_blue.png,right_orange.png,p,right,60d13c261171b69977e81f9b,001,2021-08-01_13h58.32.383,arrow_simon_norep,2021.1.2,MacIntel,60.0024001,,,,,,,,,,,,,,,,,,,,,p,1,1.5319,14,FALSE,FALSE,3,1,13,1,1,,,,,,,
,,,,,,0,1.77383503,#a3d0fb,,left_blue.png,w,,,,,,w,left_blue.png,left_orange.png,q,right,60d13c261171b69977e81f9b,001,2021-08-01_13h58.32.383,arrow_simon_norep,2021.1.2,MacIntel,60.0024001,,,,,,,,,,,,,,,,,,,,,w,1,1.5653,15,FALSE,FALSE,3,2,14,3,1,,,,,,,
,,,,,,0,1.706323487,#f3af84,,left_orange.png,q,,,,,,w,left_blue.png,left_orange.png,q,right,60d13c261171b69977e81f9b,001,2021-08-01_13h58.32.383,arrow_simon_norep,2021.1.2,MacIntel,60.0024001,,,,,,,,,,,,,,,,,,,,,q,1,1.5661,16,FALSE,FALSE,3,3,15,3,1,,,,,,,
,,,,,,0,2.477213822,#a3d0fb,,right_blue.png,o,,,,,,o,right_blue.png,right_orange.png,p,left,60d13c261171b69977e81f9b,001,2021-08-01_13h58.32.383,arrow_simon_norep,2021.1.2,MacIntel,60.0024001,,,,,,,,,,,,,,,,,,,,,o,1,1.6993,17,TRUE,FALSE,4,0,16,0,1,,,,,,,
,,,,,,0,2.089259139,#f3af84,,right_orange.png,p,,,,,,o,right_blue.png,right_orange.png,p,right,60d13c261171b69977e81f9b,001,2021-08-01_13h58.32.383,arrow_simon_norep,2021.1.2,MacIntel,60.0024001,,,,,,,,,,,,,,,,,,,,,p,1,1.5488,18,FALSE,FALSE,4,1,17,1,1,,,,,,,
,,,,,,0,2.418955034,#a3d0fb,,left_blue.png,w,,,,,,w,left_blue.png,left_orange.png,q,left,60d13c261171b69977e81f9b,001,2021-08-01_13h58.32.383,arrow_simon_norep,2021.1.2,MacIntel,60.0024001,,,,,,,,,,,,,,,,,,,,,w,1,1.9823,19,TRUE,FALSE,4,2,18,2,1,,,,,,,
,,,,,,0,2.06288809,#f3af84,,left_orange.png,q,,,,,,w,left_blue.png,left_orange.png,q,left,60d13c261171b69977e81f9b,001,2021-08-01_13h58.32.383,arrow_simon_norep,2021.1.2,MacIntel,60.0024001,,,,,,,,,,,,,,,,,,,,,q,1,1.6307,20,TRUE,FALSE,4,3,19,2,1,,,,,,,
,,,,,,0,2.167828612,#a3d0fb,,right_blue.png,o,,,,,,o,right_blue.png,right_orange.png,p,right,60d13c261171b69977e81f9b,001,2021-08-01_13h58.32.383,arrow_simon_norep,2021.1.2,MacIntel,60.0024001,,,,,,,,,,,,,,,,,,,,,o,1,1.6191,21,TRUE,FALSE,5,0,20,1,1,,,,,,,
,,,,,,0,1.510100283,#f3af84,,left_orange.png,q,,,,,,w,left_blue.png,left_orange.png,q,left,60d13c261171b69977e81f9b,001,2021-08-01_13h58.32.383,arrow_simon_norep,2021.1.2,MacIntel,60.0024001,,,,,,,,,,,,,,,,,,,,,q,1,1.6304,22,TRUE,FALSE,5,1,21,2,1,,,,,,,
,,,,,,1,2.084404019,#a3d0fb,,right_blue.png,o,,,,,,o,right_blue.png,right_orange.png,p,right,60d13c261171b69977e81f9b,001,2021-08-01_13h58.32.383,arrow_simon_norep,2021.1.2,MacIntel,60.0024001,,,,,,,,,,,,,,,,,,,,,p,0,1.516,23,FALSE,FALSE,5,2,22,1,1,,,,,,,
,,,,,,1,2.104872361,#f3af84,,right_orange.png,p,,,,,,o,right_blue.png,right_orange.png,p,right,60d13c261171b69977e81f9b,001,2021-08-01_13h58.32.383,arrow_simon_norep,2021.1.2,MacIntel,60.0024001,,,,,,,,,,,,,,,,,,,,,p,1,1.8812,24,TRUE,FALSE,5,3,23,1,1,,,,,,,
,,,,,,1,2.151323473,#a3d0fb,,right_blue.png,o,,,,,,o,right_blue.png,right_orange.png,p,right,60d13c261171b69977e81f9b,001,2021-08-01_13h58.32.383,arrow_simon_norep,2021.1.2,MacIntel,60.0024001,,,,,,,,,,,,,,,,,,,,,o,1,1.7521,25,TRUE,FALSE,6,0,24,1,1,,,,,,,
,,,,,,0,1.914432832,#f3af84,,left_orange.png,q,,,,,,w,left_blue.png,left_orange.png,q,left,60d13c261171b69977e81f9b,001,2021-08-01_13h58.32.383,arrow_simon_norep,2021.1.2,MacIntel,60.0024001,,,,,,,,,,,,,,,,,,,,,q,1,1.5836,26,FALSE,FALSE,6,1,25,2,1,,,,,,,
,,,,,,0,1.554640314,#a3d0fb,,right_blue.png,o,,,,,,o,right_blue.png,right_orange.png,p,left,60d13c261171b69977e81f9b,001,2021-08-01_13h58.32.383,arrow_simon_norep,2021.1.2,MacIntel,60.0024001,,,,,,,,,,,,,,,,,,,,,o,1,1.3812,27,FALSE,TRUE,6,2,26,0,1,,,,,,,
,,,,,,0,2.347569427,#f3af84,,right_orange.png,p,,,,,,o,right_blue.png,right_orange.png,p,right,60d13c261171b69977e81f9b,001,2021-08-01_13h58.32.383,arrow_simon_norep,2021.1.2,MacIntel,60.0024001,,,,,,,,,,,,,,,,,,,,,p,1,1.5631,28,FALSE,FALSE,6,3,27,1,1,,,,,,,
,,,,,,0,2.210294685,#a3d0fb,,right_blue.png,o,,,,,,o,right_blue.png,right_orange.png,p,left,60d13c261171b69977e81f9b,001,2021-08-01_13h58.32.383,arrow_simon_norep,2021.1.2,MacIntel,60.0024001,,,,,,,,,,,,,,,,,,,,,o,1,1.7834,29,TRUE,FALSE,7,0,28,0,1,,,,,,,
,,,,,,0,2.009117595,#f3af84,,right_orange.png,p,,,,,,o,right_blue.png,right_orange.png,p,right,60d13c261171b69977e81f9b,001,2021-08-01_13h58.32.383,arrow_simon_norep,2021.1.2,MacIntel,60.0024001,,,,,,,,,,,,,,,,,,,,,p,1,1.4307,30,FALSE,FALSE,7,1,29,1,1,,,,,,,
,,,,,,0,1.671247831,#a3d0fb,,right_blue.png,o,,,,,,o,right_blue.png,right_orange.png,p,right,60d13c261171b69977e81f9b,001,2021-08-01_13h58.32.383,arrow_simon_norep,2021.1.2,MacIntel,60.0024001,,,,,,,,,,,,,,,,,,,,,o,1,1.5477,31,FALSE,FALSE,7,2,30,1,1,,,,,,,
,,,,,,0,1.792478015,#f3af84,,left_orange.png,q,,,,,,w,left_blue.png,left_orange.png,q,left,60d13c261171b69977e81f9b,001,2021-08-01_13h58.32.383,arrow_simon_norep,2021.1.2,MacIntel,60.0024001,,,,,,,,,,,,,,,,,,,,,q,1,1.5172,32,FALSE,FALSE,7,3,31,2,1,,,,,,,
,,,,,,0,1.660042869,#a3d0fb,,left_blue.png,w,,,,,,w,left_blue.png,left_orange.png,q,left,60d13c261171b69977e81f9b,001,2021-08-01_13h58.32.383,arrow_simon_norep,2021.1.2,MacIntel,60.0024001,,,,,,,,,,,,,,,,,,,,,w,1,1.5693,33,FALSE,FALSE,8,0,32,2,1,,,,,,,
,,,,,,0,2.452550092,#f3af84,,right_orange.png,p,,,,,,o,right_blue.png,right_orange.png,p,right,60d13c261171b69977e81f9b,001,2021-08-01_13h58.32.383,arrow_simon_norep,2021.1.2,MacIntel,60.0024001,,,,,,,,,,,,,,,,,,,,,p,1,1.7177,34,TRUE,FALSE,8,1,33,1,1,,,,,,,
,,,,,,0,2.245027651,#a3d0fb,,right_blue.png,o,,,,,,o,right_blue.png,right_orange.png,p,left,60d13c261171b69977e81f9b,001,2021-08-01_13h58.32.383,arrow_simon_norep,2021.1.2,MacIntel,60.0024001,,,,,,,,,,,,,,,,,,,,,o,1,1.926,35,TRUE,FALSE,8,2,34,0,1,,,,,,,
,,,,,,0,1.626085176,#f3af84,,right_orange.png,p,,,,,,o,right_blue.png,right_orange.png,p,left,60d13c261171b69977e81f9b,001,2021-08-01_13h58.32.383,arrow_simon_norep,2021.1.2,MacIntel,60.0024001,,,,,,,,,,,,,,,,,,,,,p,1,1.4811,36,FALSE,FALSE,8,3,35,0,1,,,,,,,
,,,,,,0,1.67886914,#a3d0fb,,left_blue.png,w,,,,,,w,left_blue.png,left_orange.png,q,right,60d13c261171b69977e81f9b,001,2021-08-01_13h58.32.383,arrow_simon_norep,2021.1.2,MacIntel,60.0024001,,,,,,,,,,,,,,,,,,,,,w,1,1.5662,37,FALSE,FALSE,9,0,36,3,1,,,,,,,
,,,,,,0,1.947202317,#f3af84,,right_orange.png,p,,,,,,o,right_blue.png,right_orange.png,p,left,60d13c261171b69977e81f9b,001,2021-08-01_13h58.32.383,arrow_simon_norep,2021.1.2,MacIntel,60.0024001,,,,,,,,,,,,,,,,,,,,,p,1,1.5176,38,FALSE,FALSE,9,1,37,0,1,,,,,,,
,,,,,,0,2.116794422,#a3d0fb,,left_blue.png,w,,,,,,w,left_blue.png,left_orange.png,q,right,60d13c261171b69977e81f9b,001,2021-08-01_13h58.32.383,arrow_simon_norep,2021.1.2,MacIntel,60.0024001,,,,,,,,,,,,,,,,,,,,,q,0,1.6342,39,TRUE,FALSE,9,2,38,3,1,,,,,,,
,,,,,,0,1.549940592,#f3af84,,left_orange.png,q,,,,,,w,left_blue.png,left_orange.png,q,right,60d13c261171b69977e81f9b,001,2021-08-01_13h58.32.383,arrow_simon_norep,2021.1.2,MacIntel,60.0024001,,,,,,,,,,,,,,,,,,,,,q,1,1.2539,40,FALSE,TRUE,9,3,39,3,1,,,,,,,
,,,,,,1,1.893345011,#a3d0fb,,left_blue.png,w,,,,,,w,left_blue.png,left_orange.png,q,right,60d13c261171b69977e81f9b,001,2021-08-01_13h58.32.383,arrow_simon_norep,2021.1.2,MacIntel,60.0024001,,,,,,,,,,,,,,,,,,,,,o,0,1.5994,41,FALSE,FALSE,10,0,40,3,1,,,,,,,
,,,,,,0,2.107930112,#f3af84,,right_orange.png,p,,,,,,o,right_blue.png,right_orange.png,p,right,60d13c261171b69977e81f9b,001,2021-08-01_13h58.32.383,arrow_simon_norep,2021.1.2,MacIntel,60.0024001,,,,,,,,,,,,,,,,,,,,,p,1,1.5306,42,FALSE,FALSE,10,1,41,1,1,,,,,,,
,,,,,,0,2.084876884,#a3d0fb,,left_blue.png,w,,,,,,w,left_blue.png,left_orange.png,q,right,60d13c261171b69977e81f9b,001,2021-08-01_13h58.32.383,arrow_simon_norep,2021.1.2,MacIntel,60.0024001,,,,,,,,,,,,,,,,,,,,,w,1,1.7654,43,TRUE,FALSE,10,2,42,3,1,,,,,,,
,,,,,,0,1.998440244,#f3af84,,right_orange.png,p,,,,,,o,right_blue.png,right_orange.png,p,left,60d13c261171b69977e81f9b,001,2021-08-01_13h58.32.383,arrow_simon_norep,2021.1.2,MacIntel,60.0024001,,,,,,,,,,,,,,,,,,,,,p,1,1.6523,44,TRUE,FALSE,10,3,43,0,1,,,,,,,
,,,,,,0,1.98428346,#a3d0fb,,left_blue.png,w,,,,,,w,left_blue.png,left_orange.png,q,left,60d13c261171b69977e81f9b,001,2021-08-01_13h58.32.383,arrow_simon_norep,2021.1.2,MacIntel,60.0024001,,,,,,,,,,,,,,,,,,,,,w,1,1.6025,45,TRUE,FALSE,11,0,44,2,1,,,,,,,
,,,,,,0,1.939893354,#f3af84,,right_orange.png,p,,,,,,o,right_blue.png,right_orange.png,p,right,60d13c261171b69977e81f9b,001,2021-08-01_13h58.32.383,arrow_simon_norep,2021.1.2,MacIntel,60.0024001,,,,,,,,,,,,,,,,,,,,,p,1,1.4818,46,FALSE,FALSE,11,1,45,1,1,,,,,,,
,,,,,,0,1.646916624,#a3d0fb,,left_blue.png,w,,,,,,w,left_blue.png,left_orange.png,q,left,60d13c261171b69977e81f9b,001,2021-08-01_13h58.32.383,arrow_simon_norep,2021.1.2,MacIntel,60.0024001,,,,,,,,,,,,,,,,,,,,,w,1,1.482,47,FALSE,FALSE,11,2,46,2,1,,,,,,,
,,,,,,0,1.709494774,#f3af84,,left_orange.png,q,,,,,,w,left_blue.png,left_orange.png,q,left,60d13c261171b69977e81f9b,001,2021-08-01_13h58.32.383,arrow_simon_norep,2021.1.2,MacIntel,60.0024001,,,,,,,,,,,,,,,,,,,,,q,1,1.5818,48,FALSE,FALSE,11,3,47,2,1,,,,,,,
,,,,,,0,1.827385984,#a3d0fb,,left_blue.png,w,,,,,,w,left_blue.png,left_orange.png,q,left,60d13c261171b69977e81f9b,001,2021-08-01_13h58.32.383,arrow_simon_norep,2021.1.2,MacIntel,60.0024001,,,,,,,,,,,,,,,,,,,,,w,1,1.4849,49,FALSE,FALSE,12,0,48,2,1,,,,,,,
,,,,,,0,2.451838499,#f3af84,,left_orange.png,q,,,,,,w,left_blue.png,left_orange.png,q,right,60d13c261171b69977e81f9b,001,2021-08-01_13h58.32.383,arrow_simon_norep,2021.1.2,MacIntel,60.0024001,,,,,,,,,,,,,,,,,,,,,p,0,2.0675,50,TRUE,FALSE,12,1,49,3,1,,,,,,,
,,,,,,0,2.384067313,#a3d0fb,,right_blue.png,o,,,,,,o,right_blue.png,right_orange.png,p,left,60d13c261171b69977e81f9b,001,2021-08-01_13h58.32.383,arrow_simon_norep,2021.1.2,MacIntel,60.0024001,,,,,,,,,,,,,,,,,,,,,o,1,1.8463,51,TRUE,FALSE,12,2,50,0,1,,,,,,,
,,,,,,0,1.935621431,#f3af84,,right_orange.png,p,,,,,,o,right_blue.png,right_orange.png,p,left,60d13c261171b69977e81f9b,001,2021-08-01_13h58.32.383,arrow_simon_norep,2021.1.2,MacIntel,60.0024001,,,,,,,,,,,,,,,,,,,,,p,1,1.6139,52,TRUE,FALSE,12,3,51,0,1,,,,,,,
,,,,,,0,1.668298753,#a3d0fb,,right_blue.png,o,,,,,,o,right_blue.png,right_orange.png,p,left,60d13c261171b69977e81f9b,001,2021-08-01_13h58.32.383,arrow_simon_norep,2021.1.2,MacIntel,60.0024001,,,,,,,,,,,,,,,,,,,,,o,1,1.8327,53,TRUE,FALSE,13,0,52,0,1,,,,,,,
,,,,,,0,1.898540882,#f3af84,,left_orange.png,q,,,,,,w,left_blue.png,left_orange.png,q,left,60d13c261171b69977e81f9b,001,2021-08-01_13h58.32.383,arrow_simon_norep,2021.1.2,MacIntel,60.0024001,,,,,,,,,,,,,,,,,,,,,q,1,1.6997,54,TRUE,FALSE,13,1,53,2,1,,,,,,,
,,,,,,1,1.672769544,#a3d0fb,,left_blue.png,w,,,,,,w,left_blue.png,left_orange.png,q,right,60d13c261171b69977e81f9b,001,2021-08-01_13h58.32.383,arrow_simon_norep,2021.1.2,MacIntel,60.0024001,,,,,,,,,,,,,,,,,,,,,o,0,1.5331,55,FALSE,FALSE,13,2,54,3,1,,,,,,,
,,,,,,1,2.44999845,#f3af84,,left_orange.png,q,,,,,,w,left_blue.png,left_orange.png,q,right,60d13c261171b69977e81f9b,001,2021-08-01_13h58.32.383,arrow_simon_norep,2021.1.2,MacIntel,60.0024001,,,,,,,,,,,,,,,,,,,,,q,1,1.943,56,TRUE,FALSE,13,3,55,3,1,,,,,,,
,,,,,,0,1.692788264,#a3d0fb,,right_blue.png,o,,,,,,o,right_blue.png,right_orange.png,p,right,60d13c261171b69977e81f9b,001,2021-08-01_13h58.32.383,arrow_simon_norep,2021.1.2,MacIntel,60.0024001,,,,,,,,,,,,,,,,,,,,,o,1,1.5664,57,FALSE,FALSE,14,0,56,1,1,,,,,,,
,,,,,,0,2.419144394,#f3af84,,left_orange.png,q,,,,,,w,left_blue.png,left_orange.png,q,left,60d13c261171b69977e81f9b,001,2021-08-01_13h58.32.383,arrow_simon_norep,2021.1.2,MacIntel,60.0024001,,,,,,,,,,,,,,,,,,,,,q,1,1.9846,58,TRUE,FALSE,14,1,57,2,1,,,,,,,
,,,,,,0,2.184722669,#a3d0fb,,left_blue.png,w,,,,,,w,left_blue.png,left_orange.png,q,right,60d13c261171b69977e81f9b,001,2021-08-01_13h58.32.383,arrow_simon_norep,2021.1.2,MacIntel,60.0024001,,,,,,,,,,,,,,,,,,,,,o,0,1.6321,59,TRUE,FALSE,14,2,58,3,1,,,,,,,
,,,,,,0,2.402711125,#f3af84,,right_orange.png,p,,,,,,o,right_blue.png,right_orange.png,p,left,60d13c261171b69977e81f9b,001,2021-08-01_13h58.32.383,arrow_simon_norep,2021.1.2,MacIntel,60.0024001,,,,,,,,,,,,,,,,,,,,,p,1,1.7925,60,TRUE,FALSE,14,3,59,0,1,,,,,,,
,,,,,,,,,,,,,,,,,,,,,,60d13c261171b69977e81f9b,001,2021-08-01_13h58.32.383,arrow_simon_norep,2021.1.2,MacIntel,60.0024001,,,,,,,,,,,,,,,,,,,,,,,,,,,,,,,,space,203.0724,2,0,2,0,1
,,,,,,0,1.531179976,#a3d0fb,,left_blue.png,w,,,,,,w,left_blue.png,left_orange.png,q,right,60d13c261171b69977e81f9b,001,2021-08-01_13h58.32.383,arrow_simon_norep,2021.1.2,MacIntel,60.0024001,,,,,,,,,,,,,,,,,,,,,w,1,1.5515,1,FALSE,FALSE,0,0,0,3,1,,,,,,,
,,,,,,0,2.058213559,#f3af84,,right_orange.png,p,,,,,,o,right_blue.png,right_orange.png,p,left,60d13c261171b69977e81f9b,001,2021-08-01_13h58.32.383,arrow_simon_norep,2021.1.2,MacIntel,60.0024001,,,,,,,,,,,,,,,,,,,,,p,1,1.4825,2,FALSE,FALSE,0,1,1,0,1,,,,,,,
,,,,,,0,1.577949798,#a3d0fb,,left_blue.png,w,,,,,,w,left_blue.png,left_orange.png,q,right,60d13c261171b69977e81f9b,001,2021-08-01_13h58.32.383,arrow_simon_norep,2021.1.2,MacIntel,60.0024001,,,,,,,,,,,,,,,,,,,,,w,1,1.4196,3,FALSE,FALSE,0,2,2,3,1,,,,,,,
,,,,,,0,2.067944933,#f3af84,,left_orange.png,q,,,,,,w,left_blue.png,left_orange.png,q,left,60d13c261171b69977e81f9b,001,2021-08-01_13h58.32.383,arrow_simon_norep,2021.1.2,MacIntel,60.0024001,,,,,,,,,,,,,,,,,,,,,q,1,1.5155,4,FALSE,FALSE,0,3,3,2,1,,,,,,,
,,,,,,0,1.644149418,#a3d0fb,,right_blue.png,o,,,,,,o,right_blue.png,right_orange.png,p,right,60d13c261171b69977e81f9b,001,2021-08-01_13h58.32.383,arrow_simon_norep,2021.1.2,MacIntel,60.0024001,,,,,,,,,,,,,,,,,,,,,o,1,1.3835,5,FALSE,TRUE,1,0,4,1,1,,,,,,,
,,,,,,0,2.401742851,#f3af84,,right_orange.png,p,,,,,,o,right_blue.png,right_orange.png,p,right,60d13c261171b69977e81f9b,001,2021-08-01_13h58.32.383,arrow_simon_norep,2021.1.2,MacIntel,60.0024001,,,,,,,,,,,,,,,,,,,,,p,1,1.6853,6,TRUE,FALSE,1,1,5,1,1,,,,,,,
,,,,,,0,2.443852342,#a3d0fb,,right_blue.png,o,,,,,,o,right_blue.png,right_orange.png,p,right,60d13c261171b69977e81f9b,001,2021-08-01_13h58.32.383,arrow_simon_norep,2021.1.2,MacIntel,60.0024001,,,,,,,,,,,,,,,,,,,,,o,1,1.2467,7,FALSE,TRUE,1,2,6,1,1,,,,,,,
,,,,,,0,1.951410388,#f3af84,,left_orange.png,q,,,,,,w,left_blue.png,left_orange.png,q,right,60d13c261171b69977e81f9b,001,2021-08-01_13h58.32.383,arrow_simon_norep,2021.1.2,MacIntel,60.0024001,,,,,,,,,,,,,,,,,,,,,q,1,1.5507,8,FALSE,FALSE,1,3,7,3,1,,,,,,,
,,,,,,0,2.014917927,#a3d0fb,,left_blue.png,w,,,,,,w,left_blue.png,left_orange.png,q,left,60d13c261171b69977e81f9b,001,2021-08-01_13h58.32.383,arrow_simon_norep,2021.1.2,MacIntel,60.0024001,,,,,,,,,,,,,,,,,,,,,w,1,1.5468,9,FALSE,FALSE,2,0,8,2,1,,,,,,,
,,,,,,0,2.026733202,#f3af84,,right_orange.png,p,,,,,,o,right_blue.png,right_orange.png,p,left,60d13c261171b69977e81f9b,001,2021-08-01_13h58.32.383,arrow_simon_norep,2021.1.2,MacIntel,60.0024001,,,,,,,,,,,,,,,,,,,,,p,1,1.5327,10,FALSE,FALSE,2,1,9,0,1,,,,,,,
,,,,,,0,1.877808676,#a3d0fb,,right_blue.png,o,,,,,,o,right_blue.png,right_orange.png,p,left,60d13c261171b69977e81f9b,001,2021-08-01_13h58.32.383,arrow_simon_norep,2021.1.2,MacIntel,60.0024001,,,,,,,,,,,,,,,,,,,,,o,1,1.5319,11,FALSE,FALSE,2,2,10,0,1,,,,,,,
,,,,,,0,2.354483232,#f3af84,,right_orange.png,p,,,,,,o,right_blue.png,right_orange.png,p,left,60d13c261171b69977e81f9b,001,2021-08-01_13h58.32.383,arrow_simon_norep,2021.1.2,MacIntel,60.0024001,,,,,,,,,,,,,,,,,,,,,p,1,1.7003,12,TRUE,FALSE,2,3,11,0,1,,,,,,,
,,,,,,0,1.629415891,#a3d0fb,,left_blue.png,w,,,,,,w,left_blue.png,left_orange.png,q,right,60d13c261171b69977e81f9b,001,2021-08-01_13h58.32.383,arrow_simon_norep,2021.1.2,MacIntel,60.0024001,,,,,,,,,,,,,,,,,,,,,w,1,1.599,13,FALSE,FALSE,3,0,12,3,1,,,,,,,
,,,,,,0,1.867015363,#f3af84,,left_orange.png,q,,,,,,w,left_blue.png,left_orange.png,q,right,60d13c261171b69977e81f9b,001,2021-08-01_13h58.32.383,arrow_simon_norep,2021.1.2,MacIntel,60.0024001,,,,,,,,,,,,,,,,,,,,,q,1,1.5324,14,FALSE,FALSE,3,1,13,3,1,,,,,,,
,,,,,,0,1.803405025,#a3d0fb,,right_blue.png,o,,,,,,o,right_blue.png,right_orange.png,p,left,60d13c261171b69977e81f9b,001,2021-08-01_13h58.32.383,arrow_simon_norep,2021.1.2,MacIntel,60.0024001,,,,,,,,,,,,,,,,,,,,,o,1,1.5175,15,FALSE,FALSE,3,2,14,0,1,,,,,,,
,,,,,,0,1.858947979,#f3af84,,left_orange.png,q,,,,,,w,left_blue.png,left_orange.png,q,right,60d13c261171b69977e81f9b,001,2021-08-01_13h58.32.383,arrow_simon_norep,2021.1.2,MacIntel,60.0024001,,,,,,,,,,,,,,,,,,,,,w,0,1.6801,16,TRUE,FALSE,3,3,15,3,1,,,,,,,
,,,,,,1,1.564704264,#a3d0fb,,left_blue.png,w,,,,,,w,left_blue.png,left_orange.png,q,left,60d13c261171b69977e81f9b,001,2021-08-01_13h58.32.383,arrow_simon_norep,2021.1.2,MacIntel,60.0024001,,,,,,,,,,,,,,,,,,,,,q,0,1.5337,17,FALSE,FALSE,4,0,16,2,1,,,,,,,
,,,,,,0,2.150793654,#f3af84,,right_orange.png,p,,,,,,o,right_blue.png,right_orange.png,p,right,60d13c261171b69977e81f9b,001,2021-08-01_13h58.32.383,arrow_simon_norep,2021.1.2,MacIntel,60.0024001,,,,,,,,,,,,,,,,,,,,,p,1,1.5665,18,FALSE,FALSE,4,1,17,1,1,,,,,,,
,,,,,,1,2.336643817,#a3d0fb,,left_blue.png,w,,,,,,w,left_blue.png,left_orange.png,q,right,60d13c261171b69977e81f9b,001,2021-08-01_13h58.32.383,arrow_simon_norep,2021.1.2,MacIntel,60.0024001,,,,,,,,,,,,,,,,,,,,,o,0,1.5842,19,FALSE,FALSE,4,2,18,3,1,,,,,,,
,,,,,,1,2.24115153,#f3af84,,right_orange.png,p,,,,,,o,right_blue.png,right_orange.png,p,left,60d13c261171b69977e81f9b,001,2021-08-01_13h58.32.383,arrow_simon_norep,2021.1.2,MacIntel,60.0024001,,,,,,,,,,,,,,,,,,,,,p,1,1.7479,20,TRUE,FALSE,4,3,19,0,1,,,,,,,
,,,,,,1,2.213504651,#a3d0fb,,left_blue.png,w,,,,,,w,left_blue.png,left_orange.png,q,left,60d13c261171b69977e81f9b,001,2021-08-01_13h58.32.383,arrow_simon_norep,2021.1.2,MacIntel,60.0024001,,,,,,,,,,,,,,,,,,,,,w,1,1.6845,21,TRUE,FALSE,5,0,20,2,1,,,,,,,
,,,,,,0,1.59886291,#f3af84,,left_orange.png,q,,,,,,w,left_blue.png,left_orange.png,q,right,60d13c261171b69977e81f9b,001,2021-08-01_13h58.32.383,arrow_simon_norep,2021.1.2,MacIntel,60.0024001,,,,,,,,,,,,,,,,,,,,,q,1,1.4955,22,FALSE,FALSE,5,1,21,3,1,,,,,,,
,,,,,,0,2.466413167,#a3d0fb,,left_blue.png,w,,,,,,w,left_blue.png,left_orange.png,q,left,60d13c261171b69977e81f9b,001,2021-08-01_13h58.32.383,arrow_simon_norep,2021.1.2,MacIntel,60.0024001,,,,,,,,,,,,,,,,,,,,,q,0,1.9327,23,TRUE,FALSE,5,2,22,2,1,,,,,,,
,,,,,,1,1.704261349,#f3af84,,right_orange.png,p,,,,,,o,right_blue.png,right_orange.png,p,right,60d13c261171b69977e81f9b,001,2021-08-01_13h58.32.383,arrow_simon_norep,2021.1.2,MacIntel,60.0024001,,,,,,,,,,,,,,,,,,,,,o,0,1.4817,24,FALSE,FALSE,5,3,23,1,1,,,,,,,
,,,,,,1,2.488995587,#a3d0fb,,left_blue.png,w,,,,,,w,left_blue.png,left_orange.png,q,right,60d13c261171b69977e81f9b,001,2021-08-01_13h58.32.383,arrow_simon_norep,2021.1.2,MacIntel,60.0024001,,,,,,,,,,,,,,,,,,,,,o,0,1.8872,25,TRUE,FALSE,6,0,24,3,1,,,,,,,
,,,,,,0,1.560388297,#f3af84,,right_orange.png,p,,,,,,o,right_blue.png,right_orange.png,p,left,60d13c261171b69977e81f9b,001,2021-08-01_13h58.32.383,arrow_simon_norep,2021.1.2,MacIntel,60.0024001,,,,,,,,,,,,,,,,,,,,,p,1,1.4993,26,FALSE,FALSE,6,1,25,0,1,,,,,,,
,,,,,,0,2.474481988,#a3d0fb,,left_blue.png,w,,,,,,w,left_blue.png,left_orange.png,q,right,60d13c261171b69977e81f9b,001,2021-08-01_13h58.32.383,arrow_simon_norep,2021.1.2,MacIntel,60.0024001,,,,,,,,,,,,,,,,,,,,,w,1,1.868,27,TRUE,FALSE,6,2,26,3,1,,,,,,,
,,,,,,0,2.015650572,#f3af84,,right_orange.png,p,,,,,,o,right_blue.png,right_orange.png,p,right,60d13c261171b69977e81f9b,001,2021-08-01_13h58.32.383,arrow_simon_norep,2021.1.2,MacIntel,60.0024001,,,,,,,,,,,,,,,,,,,,,p,1,1.4664,28,FALSE,FALSE,6,3,27,1,1,,,,,,,
,,,,,,0,1.762740494,#a3d0fb,,right_blue.png,o,,,,,,o,right_blue.png,right_orange.png,p,left,60d13c261171b69977e81f9b,001,2021-08-01_13h58.32.383,arrow_simon_norep,2021.1.2,MacIntel,60.0024001,,,,,,,,,,,,,,,,,,,,,o,1,1.5468,29,FALSE,FALSE,7,0,28,0,1,,,,,,,
,,,,,,0,1.777768549,#f3af84,,left_orange.png,q,,,,,,w,left_blue.png,left_orange.png,q,left,60d13c261171b69977e81f9b,001,2021-08-01_13h58.32.383,arrow_simon_norep,2021.1.2,MacIntel,60.0024001,,,,,,,,,,,,,,,,,,,,,q,1,1.565,30,FALSE,FALSE,7,1,29,2,1,,,,,,,
,,,,,,0,2.444990926,#a3d0fb,,right_blue.png,o,,,,,,o,right_blue.png,right_orange.png,p,right,60d13c261171b69977e81f9b,001,2021-08-01_13h58.32.383,arrow_simon_norep,2021.1.2,MacIntel,60.0024001,,,,,,,,,,,,,,,,,,,,,p,0,1.7854,31,TRUE,FALSE,7,2,30,1,1,,,,,,,
,,,,,,0,2.153198565,#f3af84,,left_orange.png,q,,,,,,w,left_blue.png,left_orange.png,q,left,60d13c261171b69977e81f9b,001,2021-08-01_13h58.32.383,arrow_simon_norep,2021.1.2,MacIntel,60.0024001,,,,,,,,,,,,,,,,,,,,,w,0,1.6657,32,TRUE,FALSE,7,3,31,2,1,,,,,,,
,,,,,,0,2.23984289,#a3d0fb,,right_blue.png,o,,,,,,o,right_blue.png,right_orange.png,p,right,60d13c261171b69977e81f9b,001,2021-08-01_13h58.32.383,arrow_simon_norep,2021.1.2,MacIntel,60.0024001,,,,,,,,,,,,,,,,,,,,,o,1,1.6152,33,TRUE,FALSE,8,0,32,1,1,,,,,,,
,,,,,,0,1.733356916,#f3af84,,left_orange.png,q,,,,,,w,left_blue.png,left_orange.png,q,left,60d13c261171b69977e81f9b,001,2021-08-01_13h58.32.383,arrow_simon_norep,2021.1.2,MacIntel,60.0024001,,,,,,,,,,,,,,,,,,,,,w,0,1.3436,34,FALSE,TRUE,8,1,33,2,1,,,,,,,
,,,,,,0,1.590421065,#a3d0fb,,left_blue.png,w,,,,,,w,left_blue.png,left_orange.png,q,right,60d13c261171b69977e81f9b,001,2021-08-01_13h58.32.383,arrow_simon_norep,2021.1.2,MacIntel,60.0024001,,,,,,,,,,,,,,,,,,,,,w,1,1.5339,35,FALSE,FALSE,8,2,34,3,1,,,,,,,
,,,,,,0,2.06107352,#f3af84,,left_orange.png,q,,,,,,w,left_blue.png,left_orange.png,q,left,60d13c261171b69977e81f9b,001,2021-08-01_13h58.32.383,arrow_simon_norep,2021.1.2,MacIntel,60.0024001,,,,,,,,,,,,,,,,,,,,,q,1,1.6301,36,TRUE,FALSE,8,3,35,2,1,,,,,,,
,,,,,,0,2.044485559,#a3d0fb,,left_blue.png,w,,,,,,w,left_blue.png,left_orange.png,q,right,60d13c261171b69977e81f9b,001,2021-08-01_13h58.32.383,arrow_simon_norep,2021.1.2,MacIntel,60.0024001,,,,,,,,,,,,,,,,,,,,,w,1,1.6983,37,TRUE,FALSE,9,0,36,3,1,,,,,,,
,,,,,,0,2.360047972,#f3af84,,left_orange.png,q,,,,,,w,left_blue.png,left_orange.png,q,left,60d13c261171b69977e81f9b,001,2021-08-01_13h58.32.383,arrow_simon_norep,2021.1.2,MacIntel,60.0024001,,,,,,,,,,,,,,,,,,,,,q,1,1.6969,38,TRUE,FALSE,9,1,37,2,1,,,,,,,
,,,,,,0,2.16261438,#a3d0fb,,right_blue.png,o,,,,,,o,right_blue.png,right_orange.png,p,left,60d13c261171b69977e81f9b,001,2021-08-01_13h58.32.383,arrow_simon_norep,2021.1.2,MacIntel,60.0024001,,,,,,,,,,,,,,,,,,,,,w,0,1.747,39,TRUE,FALSE,9,2,38,0,1,,,,,,,
,,,,,,0,2.42637466,#f3af84,,right_orange.png,p,,,,,,o,right_blue.png,right_orange.png,p,left,60d13c261171b69977e81f9b,001,2021-08-01_13h58.32.383,arrow_simon_norep,2021.1.2,MacIntel,60.0024001,,,,,,,,,,,,,,,,,,,,,o,0,1.9005,40,TRUE,FALSE,9,3,39,0,1,,,,,,,
,,,,,,0,2.192175674,#a3d0fb,,left_blue.png,w,,,,,,w,left_blue.png,left_orange.png,q,right,60d13c261171b69977e81f9b,001,2021-08-01_13h58.32.383,arrow_simon_norep,2021.1.2,MacIntel,60.0024001,,,,,,,,,,,,,,,,,,,,,w,1,1.8802,41,TRUE,FALSE,10,0,40,3,1,,,,,,,
,,,,,,0,2.495632145,#f3af84,,right_orange.png,p,,,,,,o,right_blue.png,right_orange.png,p,right,60d13c261171b69977e81f9b,001,2021-08-01_13h58.32.383,arrow_simon_norep,2021.1.2,MacIntel,60.0024001,,,,,,,,,,,,,,,,,,,,,o,0,1.8509,42,TRUE,FALSE,10,1,41,1,1,,,,,,,
,,,,,,0,2.233579108,#a3d0fb,,left_blue.png,w,,,,,,w,left_blue.png,left_orange.png,q,left,60d13c261171b69977e81f9b,001,2021-08-01_13h58.32.383,arrow_simon_norep,2021.1.2,MacIntel,60.0024001,,,,,,,,,,,,,,,,,,,,,w,1,1.7402,43,TRUE,FALSE,10,2,42,2,1,,,,,,,
,,,,,,0,1.95083769,#f3af84,,left_orange.png,q,,,,,,w,left_blue.png,left_orange.png,q,left,60d13c261171b69977e81f9b,001,2021-08-01_13h58.32.383,arrow_simon_norep,2021.1.2,MacIntel,60.0024001,,,,,,,,,,,,,,,,,,,,,q,1,1.4659,44,FALSE,FALSE,10,3,43,2,1,,,,,,,
,,,,,,0,2.345335944,#a3d0fb,,right_blue.png,o,,,,,,o,right_blue.png,right_orange.png,p,right,60d13c261171b69977e81f9b,001,2021-08-01_13h58.32.383,arrow_simon_norep,2021.1.2,MacIntel,60.0024001,,,,,,,,,,,,,,,,,,,,,o,1,2.1937,45,TRUE,FALSE,11,0,44,1,1,,,,,,,
,,,,,,0,2.15024353,#f3af84,,left_orange.png,q,,,,,,w,left_blue.png,left_orange.png,q,right,60d13c261171b69977e81f9b,001,2021-08-01_13h58.32.383,arrow_simon_norep,2021.1.2,MacIntel,60.0024001,,,,,,,,,,,,,,,,,,,,,q,1,1.7318,46,TRUE,FALSE,11,1,45,3,1,,,,,,,
,,,,,,0,1.631761033,#a3d0fb,,left_blue.png,w,,,,,,w,left_blue.png,left_orange.png,q,left,60d13c261171b69977e81f9b,001,2021-08-01_13h58.32.383,arrow_simon_norep,2021.1.2,MacIntel,60.0024001,,,,,,,,,,,,,,,,,,,,,w,1,1.5345,47,FALSE,FALSE,11,2,46,2,1,,,,,,,
