instruct_resp_simon.keys,instruct_resp_simon.corr,instruct_resp_simon.rt,trial_resp_simon.keys,trial_resp_simon.corr,trial_resp_simon.rt,kerr,target_onset,target_color,target_pos,target_file,target_resp,trials_train_simon.thisRepN,trials_train_simon.thisTrialN,trials_train_simon.thisN,trials_train_simon.thisIndex,trials_train_simon.ran,odd_target_resp,odd_target_file,even_target_file,even_target_resp,target_side,participant,session,date,expName,psychopyVersion,OS,frameRate,train_block_note_resp.keys,train_block_note_resp.rt,blocks_train.thisRepN,blocks_train.thisTrialN,blocks_train.thisN,blocks_train.thisIndex,blocks_train.ran,instruct_resp_timing.keys,instruct_resp_timing.corr,instruct_resp_timing.rt,trial_resp_timing.keys,trial_resp_timing.rt,trials_train_timing.thisRepN,trials_train_timing.thisTrialN,trials_train_timing.thisN,trials_train_timing.thisIndex,trials_train_timing.ran,instruct_resp.keys,instruct_resp.corr,instruct_resp.rt,trial_resp.keys,trial_resp.corr,trial_resp.rt,trial_num,too_slow,too_soon,trials.thisRepN,trials.thisTrialN,trials.thisN,trials.thisIndex,trials.ran,block_note_resp.keys,block_note_resp.rt,blocks.thisRepN,blocks.thisTrialN,blocks.thisN,blocks.thisIndex,blocks.ran
space,0,51.9876,q,0,1.576,1,0.919798647,#a3d0fb,,left_blue.png,w,0,0,0,2,1,w,left_blue.png,left_orange.png,q,left,60e5f4ebca9d0e7a4305231f,001,2021-08-09_07h17.44.390,arrow_simon_norep,2021.1.2,Win32,143.5750179,,,,,,,,,,,,,,,,,,,,,,,,,,,,,,,,,,,,,,
,,,w,0,0.9518,1,0.060144411,#f3af84,,left_orange.png,q,0,1,1,2,1,w,left_blue.png,left_orange.png,q,left,60e5f4ebca9d0e7a4305231f,001,2021-08-09_07h17.44.390,arrow_simon_norep,2021.1.2,Win32,143.5750179,,,,,,,,,,,,,,,,,,,,,,,,,,,,,,,,,,,,,,
,,,p,0,1.2928,1,0.562771328,#a3d0fb,,right_blue.png,o,0,2,2,1,1,o,right_blue.png,right_orange.png,p,right,60e5f4ebca9d0e7a4305231f,001,2021-08-09_07h17.44.390,arrow_simon_norep,2021.1.2,Win32,143.5750179,,,,,,,,,,,,,,,,,,,,,,,,,,,,,,,,,,,,,,
,,,o,0,1.3008,1,0.771416134,#f3af84,,left_orange.png,q,0,3,3,3,1,w,left_blue.png,left_orange.png,q,right,60e5f4ebca9d0e7a4305231f,001,2021-08-09_07h17.44.390,arrow_simon_norep,2021.1.2,Win32,143.5750179,,,,,,,,,,,,,,,,,,,,,,,,,,,,,,,,,,,,,,
,,,q,0,1.4877,1,0.984078393,#a3d0fb,,left_blue.png,w,1,0,4,2,1,w,left_blue.png,left_orange.png,q,left,60e5f4ebca9d0e7a4305231f,001,2021-08-09_07h17.44.390,arrow_simon_norep,2021.1.2,Win32,143.5750179,,,,,,,,,,,,,,,,,,,,,,,,,,,,,,,,,,,,,,
,,,w,0,0.5132,1,0.039813785,#f3af84,,left_orange.png,q,1,1,5,2,1,w,left_blue.png,left_orange.png,q,left,60e5f4ebca9d0e7a4305231f,001,2021-08-09_07h17.44.390,arrow_simon_norep,2021.1.2,Win32,143.5750179,,,,,,,,,,,,,,,,,,,,,,,,,,,,,,,,,,,,,,
,,,p,0,0.9266,1,0.119092962,#a3d0fb,,right_blue.png,o,1,2,6,1,1,o,right_blue.png,right_orange.png,p,right,60e5f4ebca9d0e7a4305231f,001,2021-08-09_07h17.44.390,arrow_simon_norep,2021.1.2,Win32,143.5750179,,,,,,,,,,,,,,,,,,,,,,,,,,,,,,,,,,,,,,
,,,p,1,1.4026,0,0.918067787,#f3af84,,right_orange.png,p,1,3,7,1,1,o,right_blue.png,right_orange.png,p,right,60e5f4ebca9d0e7a4305231f,001,2021-08-09_07h17.44.390,arrow_simon_norep,2021.1.2,Win32,143.5750179,,,,,,,,,,,,,,,,,,,,,,,,,,,,,,,,,,,,,,
,,,p,0,1.2423,1,0.856775915,#a3d0fb,,right_blue.png,o,2,0,8,1,1,o,right_blue.png,right_orange.png,p,right,60e5f4ebca9d0e7a4305231f,001,2021-08-09_07h17.44.390,arrow_simon_norep,2021.1.2,Win32,143.5750179,,,,,,,,,,,,,,,,,,,,,,,,,,,,,,,,,,,,,,
,,,q,1,1.889,0,0.863807995,#f3af84,,left_orange.png,q,2,1,9,3,1,w,left_blue.png,left_orange.png,q,right,60e5f4ebca9d0e7a4305231f,001,2021-08-09_07h17.44.390,arrow_simon_norep,2021.1.2,Win32,143.5750179,,,,,,,,,,,,,,,,,,,,,,,,,,,,,,,,,,,,,,
,,,w,0,1.021,1,0.240551656,#a3d0fb,,right_blue.png,o,2,2,10,0,1,o,right_blue.png,right_orange.png,p,left,60e5f4ebca9d0e7a4305231f,001,2021-08-09_07h17.44.390,arrow_simon_norep,2021.1.2,Win32,143.5750179,,,,,,,,,,,,,,,,,,,,,,,,,,,,,,,,,,,,,,
,,,p,1,1.0771,0,0.528083076,#f3af84,,right_orange.png,p,2,3,11,1,1,o,right_blue.png,right_orange.png,p,right,60e5f4ebca9d0e7a4305231f,001,2021-08-09_07h17.44.390,arrow_simon_norep,2021.1.2,Win32,143.5750179,,,,,,,,,,,,,,,,,,,,,,,,,,,,,,,,,,,,,,
,,,w,0,1.8869,1,0.947330488,#a3d0fb,,right_blue.png,o,3,0,12,0,1,o,right_blue.png,right_orange.png,p,left,60e5f4ebca9d0e7a4305231f,001,2021-08-09_07h17.44.390,arrow_simon_norep,2021.1.2,Win32,143.5750179,,,,,,,,,,,,,,,,,,,,,,,,,,,,,,,,,,,,,,
,,,p,1,1.3821,0,0.688063918,#f3af84,,right_orange.png,p,3,1,13,1,1,o,right_blue.png,right_orange.png,p,right,60e5f4ebca9d0e7a4305231f,001,2021-08-09_07h17.44.390,arrow_simon_norep,2021.1.2,Win32,143.5750179,,,,,,,,,,,,,,,,,,,,,,,,,,,,,,,,,,,,,,
,,,w,1,1.9398,0,0.105272555,#a3d0fb,,left_blue.png,w,3,2,14,3,1,w,left_blue.png,left_orange.png,q,right,60e5f4ebca9d0e7a4305231f,001,2021-08-09_07h17.44.390,arrow_simon_norep,2021.1.2,Win32,143.5750179,,,,,,,,,,,,,,,,,,,,,,,,,,,,,,,,,,,,,,
,,,w,0,1.1308,1,0.265973704,#f3af84,,left_orange.png,q,3,3,15,3,1,w,left_blue.png,left_orange.png,q,right,60e5f4ebca9d0e7a4305231f,001,2021-08-09_07h17.44.390,arrow_simon_norep,2021.1.2,Win32,143.5750179,,,,,,,,,,,,,,,,,,,,,,,,,,,,,,,,,,,,,,
,,,q,0,1.8325,1,0.897192696,#a3d0fb,,left_blue.png,w,4,0,16,3,1,w,left_blue.png,left_orange.png,q,right,60e5f4ebca9d0e7a4305231f,001,2021-08-09_07h17.44.390,arrow_simon_norep,2021.1.2,Win32,143.5750179,,,,,,,,,,,,,,,,,,,,,,,,,,,,,,,,,,,,,,
,,,p,1,1.1024,0,0.610959227,#f3af84,,right_orange.png,p,4,1,17,1,1,o,right_blue.png,right_orange.png,p,right,60e5f4ebca9d0e7a4305231f,001,2021-08-09_07h17.44.390,arrow_simon_norep,2021.1.2,Win32,143.5750179,,,,,,,,,,,,,,,,,,,,,,,,,,,,,,,,,,,,,,
,,,p,0,0.988,1,0.158651801,#a3d0fb,,left_blue.png,w,4,2,18,3,1,w,left_blue.png,left_orange.png,q,right,60e5f4ebca9d0e7a4305231f,001,2021-08-09_07h17.44.390,arrow_simon_norep,2021.1.2,Win32,143.5750179,,,,,,,,,,,,,,,,,,,,,,,,,,,,,,,,,,,,,,
,,,q,1,1.4574,0,0.929902959,#f3af84,,left_orange.png,q,4,3,19,2,1,w,left_blue.png,left_orange.png,q,left,60e5f4ebca9d0e7a4305231f,001,2021-08-09_07h17.44.390,arrow_simon_norep,2021.1.2,Win32,143.5750179,,,,,,,,,,,,,,,,,,,,,,,,,,,,,,,,,,,,,,
,,,p,0,1.2701,1,0.424157284,#a3d0fb,,right_blue.png,o,5,0,20,0,1,o,right_blue.png,right_orange.png,p,left,60e5f4ebca9d0e7a4305231f,001,2021-08-09_07h17.44.390,arrow_simon_norep,2021.1.2,Win32,143.5750179,,,,,,,,,,,,,,,,,,,,,,,,,,,,,,,,,,,,,,
,,,p,1,0.9031,0,0.118554091,#f3af84,,right_orange.png,p,5,1,21,1,1,o,right_blue.png,right_orange.png,p,right,60e5f4ebca9d0e7a4305231f,001,2021-08-09_07h17.44.390,arrow_simon_norep,2021.1.2,Win32,143.5750179,,,,,,,,,,,,,,,,,,,,,,,,,,,,,,,,,,,,,,
,,,q,0,0.9298,1,0.17025603,#a3d0fb,,left_blue.png,w,5,2,22,3,1,w,left_blue.png,left_orange.png,q,right,60e5f4ebca9d0e7a4305231f,001,2021-08-09_07h17.44.390,arrow_simon_norep,2021.1.2,Win32,143.5750179,,,,,,,,,,,,,,,,,,,,,,,,,,,,,,,,,,,,,,
,,,q,1,1.1876,0,0.2357444,#f3af84,,left_orange.png,q,5,3,23,2,1,w,left_blue.png,left_orange.png,q,left,60e5f4ebca9d0e7a4305231f,001,2021-08-09_07h17.44.390,arrow_simon_norep,2021.1.2,Win32,143.5750179,,,,,,,,,,,,,,,,,,,,,,,,,,,,,,,,,,,,,,
,,,q,0,1.4324,1,0.789389378,#a3d0fb,,left_blue.png,w,6,0,24,2,1,w,left_blue.png,left_orange.png,q,left,60e5f4ebca9d0e7a4305231f,001,2021-08-09_07h17.44.390,arrow_simon_norep,2021.1.2,Win32,143.5750179,,,,,,,,,,,,,,,,,,,,,,,,,,,,,,,,,,,,,,
,,,p,1,1.6107,0,0.682349105,#f3af84,,right_orange.png,p,6,1,25,0,1,o,right_blue.png,right_orange.png,p,left,60e5f4ebca9d0e7a4305231f,001,2021-08-09_07h17.44.390,arrow_simon_norep,2021.1.2,Win32,143.5750179,,,,,,,,,,,,,,,,,,,,,,,,,,,,,,,,,,,,,,
,,,p,0,2.536,1,0.364739815,#a3d0fb,,right_blue.png,o,6,2,26,1,1,o,right_blue.png,right_orange.png,p,right,60e5f4ebca9d0e7a4305231f,001,2021-08-09_07h17.44.390,arrow_simon_norep,2021.1.2,Win32,143.5750179,,,,,,,,,,,,,,,,,,,,,,,,,,,,,,,,,,,,,,
,,,q,1,1.066,0,0.401342134,#f3af84,,left_orange.png,q,6,3,27,3,1,w,left_blue.png,left_orange.png,q,right,60e5f4ebca9d0e7a4305231f,001,2021-08-09_07h17.44.390,arrow_simon_norep,2021.1.2,Win32,143.5750179,,,,,,,,,,,,,,,,,,,,,,,,,,,,,,,,,,,,,,
,,,p,0,1.2735,1,0.485095805,#a3d0fb,,right_blue.png,o,7,0,28,0,1,o,right_blue.png,right_orange.png,p,left,60e5f4ebca9d0e7a4305231f,001,2021-08-09_07h17.44.390,arrow_simon_norep,2021.1.2,Win32,143.5750179,,,,,,,,,,,,,,,,,,,,,,,,,,,,,,,,,,,,,,
,,,p,1,0.8471,0,0.385611818,#f3af84,,right_orange.png,p,7,1,29,0,1,o,right_blue.png,right_orange.png,p,left,60e5f4ebca9d0e7a4305231f,001,2021-08-09_07h17.44.390,arrow_simon_norep,2021.1.2,Win32,143.5750179,,,,,,,,,,,,,,,,,,,,,,,,,,,,,,,,,,,,,,
,,,q,0,0.8252,1,0.337913675,#a3d0fb,,left_blue.png,w,7,2,30,2,1,w,left_blue.png,left_orange.png,q,left,60e5f4ebca9d0e7a4305231f,001,2021-08-09_07h17.44.390,arrow_simon_norep,2021.1.2,Win32,143.5750179,,,,,,,,,,,,,,,,,,,,,,,,,,,,,,,,,,,,,,
,,,p,1,1.5778,0,0.969005429,#f3af84,,right_orange.png,p,7,3,31,0,1,o,right_blue.png,right_orange.png,p,left,60e5f4ebca9d0e7a4305231f,001,2021-08-09_07h17.44.390,arrow_simon_norep,2021.1.2,Win32,143.5750179,,,,,,,,,,,,,,,,,,,,,,,,,,,,,,,,,,,,,,
,,,p,0,0.9251,1,0.045181088,#a3d0fb,,right_blue.png,o,8,0,32,1,1,o,right_blue.png,right_orange.png,p,right,60e5f4ebca9d0e7a4305231f,001,2021-08-09_07h17.44.390,arrow_simon_norep,2021.1.2,Win32,143.5750179,,,,,,,,,,,,,,,,,,,,,,,,,,,,,,,,,,,,,,
,,,w,0,1.0747,1,0.227197502,#f3af84,,right_orange.png,p,8,1,33,0,1,o,right_blue.png,right_orange.png,p,left,60e5f4ebca9d0e7a4305231f,001,2021-08-09_07h17.44.390,arrow_simon_norep,2021.1.2,Win32,143.5750179,,,,,,,,,,,,,,,,,,,,,,,,,,,,,,,,,,,,,,
,,,p,0,1.0551,1,0.163468179,#a3d0fb,,right_blue.png,o,8,2,34,0,1,o,right_blue.png,right_orange.png,p,left,60e5f4ebca9d0e7a4305231f,001,2021-08-09_07h17.44.390,arrow_simon_norep,2021.1.2,Win32,143.5750179,,,,,,,,,,,,,,,,,,,,,,,,,,,,,,,,,,,,,,
,,,p,1,1.0138,0,0.371411905,#f3af84,,right_orange.png,p,8,3,35,1,1,o,right_blue.png,right_orange.png,p,right,60e5f4ebca9d0e7a4305231f,001,2021-08-09_07h17.44.390,arrow_simon_norep,2021.1.2,Win32,143.5750179,,,,,,,,,,,,,,,,,,,,,,,,,,,,,,,,,,,,,,
,,,p,0,1.5202,1,0.927507428,#a3d0fb,,right_blue.png,o,9,0,36,0,1,o,right_blue.png,right_orange.png,p,left,60e5f4ebca9d0e7a4305231f,001,2021-08-09_07h17.44.390,arrow_simon_norep,2021.1.2,Win32,143.5750179,,,,,,,,,,,,,,,,,,,,,,,,,,,,,,,,,,,,,,
,,,q,1,1.3943,0,0.672016345,#f3af84,,left_orange.png,q,9,1,37,2,1,w,left_blue.png,left_orange.png,q,left,60e5f4ebca9d0e7a4305231f,001,2021-08-09_07h17.44.390,arrow_simon_norep,2021.1.2,Win32,143.5750179,,,,,,,,,,,,,,,,,,,,,,,,,,,,,,,,,,,,,,
,,,q,0,1.5045,1,0.651901279,#a3d0fb,,left_blue.png,w,9,2,38,3,1,w,left_blue.png,left_orange.png,q,right,60e5f4ebca9d0e7a4305231f,001,2021-08-09_07h17.44.390,arrow_simon_norep,2021.1.2,Win32,143.5750179,,,,,,,,,,,,,,,,,,,,,,,,,,,,,,,,,,,,,,
,,,p,1,0.9512,0,0.140379468,#f3af84,,right_orange.png,p,9,3,39,0,1,o,right_blue.png,right_orange.png,p,left,60e5f4ebca9d0e7a4305231f,001,2021-08-09_07h17.44.390,arrow_simon_norep,2021.1.2,Win32,143.5750179,,,,,,,,,,,,,,,,,,,,,,,,,,,,,,,,,,,,,,
,,,q,0,1.8291,1,0.949486869,#a3d0fb,,left_blue.png,w,10,0,40,3,1,w,left_blue.png,left_orange.png,q,right,60e5f4ebca9d0e7a4305231f,001,2021-08-09_07h17.44.390,arrow_simon_norep,2021.1.2,Win32,143.5750179,,,,,,,,,,,,,,,,,,,,,,,,,,,,,,,,,,,,,,
,,,w,0,1.3413,1,0.507072005,#f3af84,,left_orange.png,q,10,1,41,2,1,w,left_blue.png,left_orange.png,q,left,60e5f4ebca9d0e7a4305231f,001,2021-08-09_07h17.44.390,arrow_simon_norep,2021.1.2,Win32,143.5750179,,,,,,,,,,,,,,,,,,,,,,,,,,,,,,,,,,,,,,
,,,w,1,1.9522,0,0.760034375,#a3d0fb,,left_blue.png,w,10,2,42,3,1,w,left_blue.png,left_orange.png,q,right,60e5f4ebca9d0e7a4305231f,001,2021-08-09_07h17.44.390,arrow_simon_norep,2021.1.2,Win32,143.5750179,,,,,,,,,,,,,,,,,,,,,,,,,,,,,,,,,,,,,,
,,,p,1,1.1163,0,0.125215028,#f3af84,,right_orange.png,p,10,3,43,1,1,o,right_blue.png,right_orange.png,p,right,60e5f4ebca9d0e7a4305231f,001,2021-08-09_07h17.44.390,arrow_simon_norep,2021.1.2,Win32,143.5750179,,,,,,,,,,,,,,,,,,,,,,,,,,,,,,,,,,,,,,
,,,o,1,2.9013,0,0.649667497,#a3d0fb,,right_blue.png,o,11,0,44,0,1,o,right_blue.png,right_orange.png,p,left,60e5f4ebca9d0e7a4305231f,001,2021-08-09_07h17.44.390,arrow_simon_norep,2021.1.2,Win32,143.5750179,,,,,,,,,,,,,,,,,,,,,,,,,,,,,,,,,,,,,,
,,,p,1,1.4195,0,0.743984325,#f3af84,,right_orange.png,p,11,1,45,1,1,o,right_blue.png,right_orange.png,p,right,60e5f4ebca9d0e7a4305231f,001,2021-08-09_07h17.44.390,arrow_simon_norep,2021.1.2,Win32,143.5750179,,,,,,,,,,,,,,,,,,,,,,,,,,,,,,,,,,,,,,
,,,w,1,3.3274,0,0.712610295,#a3d0fb,,left_blue.png,w,11,2,46,3,1,w,left_blue.png,left_orange.png,q,right,60e5f4ebca9d0e7a4305231f,001,2021-08-09_07h17.44.390,arrow_simon_norep,2021.1.2,Win32,143.5750179,,,,,,,,,,,,,,,,,,,,,,,,,,,,,,,,,,,,,,
,,,o,0,2.4154,1,0.177206108,#f3af84,,right_orange.png,p,11,3,47,0,1,o,right_blue.png,right_orange.png,p,left,60e5f4ebca9d0e7a4305231f,001,2021-08-09_07h17.44.390,arrow_simon_norep,2021.1.2,Win32,143.5750179,,,,,,,,,,,,,,,,,,,,,,,,,,,,,,,,,,,,,,
,,,q,0,1.5988,1,0.012820222,#a3d0fb,,left_blue.png,w,12,0,48,2,1,w,left_blue.png,left_orange.png,q,left,60e5f4ebca9d0e7a4305231f,001,2021-08-09_07h17.44.390,arrow_simon_norep,2021.1.2,Win32,143.5750179,,,,,,,,,,,,,,,,,,,,,,,,,,,,,,,,,,,,,,
,,,o,0,2.2688,1,0.105175753,#f3af84,,right_orange.png,p,12,1,49,0,1,o,right_blue.png,right_orange.png,p,left,60e5f4ebca9d0e7a4305231f,001,2021-08-09_07h17.44.390,arrow_simon_norep,2021.1.2,Win32,143.5750179,,,,,,,,,,,,,,,,,,,,,,,,,,,,,,,,,,,,,,
,,,p,0,1.4412,1,0.988961731,#a3d0fb,,right_blue.png,o,12,2,50,1,1,o,right_blue.png,right_orange.png,p,right,60e5f4ebca9d0e7a4305231f,001,2021-08-09_07h17.44.390,arrow_simon_norep,2021.1.2,Win32,143.5750179,,,,,,,,,,,,,,,,,,,,,,,,,,,,,,,,,,,,,,
,,,q,1,1.7552,0,0.885019257,#f3af84,,left_orange.png,q,12,3,51,2,1,w,left_blue.png,left_orange.png,q,left,60e5f4ebca9d0e7a4305231f,001,2021-08-09_07h17.44.390,arrow_simon_norep,2021.1.2,Win32,143.5750179,,,,,,,,,,,,,,,,,,,,,,,,,,,,,,,,,,,,,,
,,,p,0,2.5667,1,0.753720327,#a3d0fb,,right_blue.png,o,13,0,52,0,1,o,right_blue.png,right_orange.png,p,left,60e5f4ebca9d0e7a4305231f,001,2021-08-09_07h17.44.390,arrow_simon_norep,2021.1.2,Win32,143.5750179,,,,,,,,,,,,,,,,,,,,,,,,,,,,,,,,,,,,,,
,,,q,1,3.5261,0,0.500473884,#f3af84,,left_orange.png,q,13,1,53,3,1,w,left_blue.png,left_orange.png,q,right,60e5f4ebca9d0e7a4305231f,001,2021-08-09_07h17.44.390,arrow_simon_norep,2021.1.2,Win32,143.5750179,,,,,,,,,,,,,,,,,,,,,,,,,,,,,,,,,,,,,,
,,,q,0,1.4083,1,0.936980399,#a3d0fb,,left_blue.png,w,13,2,54,2,1,w,left_blue.png,left_orange.png,q,left,60e5f4ebca9d0e7a4305231f,001,2021-08-09_07h17.44.390,arrow_simon_norep,2021.1.2,Win32,143.5750179,,,,,,,,,,,,,,,,,,,,,,,,,,,,,,,,,,,,,,
,,,o,0,1.2969,1,0.43487262,#f3af84,,left_orange.png,q,13,3,55,3,1,w,left_blue.png,left_orange.png,q,right,60e5f4ebca9d0e7a4305231f,001,2021-08-09_07h17.44.390,arrow_simon_norep,2021.1.2,Win32,143.5750179,,,,,,,,,,,,,,,,,,,,,,,,,,,,,,,,,,,,,,
,,,q,0,1.4796,1,0.939076648,#a3d0fb,,left_blue.png,w,14,0,56,2,1,w,left_blue.png,left_orange.png,q,left,60e5f4ebca9d0e7a4305231f,001,2021-08-09_07h17.44.390,arrow_simon_norep,2021.1.2,Win32,143.5750179,,,,,,,,,,,,,,,,,,,,,,,,,,,,,,,,,,,,,,
,,,w,0,1.5089,1,0.831943285,#f3af84,,left_orange.png,q,14,1,57,2,1,w,left_blue.png,left_orange.png,q,left,60e5f4ebca9d0e7a4305231f,001,2021-08-09_07h17.44.390,arrow_simon_norep,2021.1.2,Win32,143.5750179,,,,,,,,,,,,,,,,,,,,,,,,,,,,,,,,,,,,,,
,,,p,0,0.5349,1,0.892156478,#a3d0fb,,left_blue.png,w,14,2,58,3,1,w,left_blue.png,left_orange.png,q,right,60e5f4ebca9d0e7a4305231f,001,2021-08-09_07h17.44.390,arrow_simon_norep,2021.1.2,Win32,143.5750179,,,,,,,,,,,,,,,,,,,,,,,,,,,,,,,,,,,,,,
,,,p,1,1.3117,0,0.668031522,#f3af84,,right_orange.png,p,14,3,59,1,1,o,right_blue.png,right_orange.png,p,right,60e5f4ebca9d0e7a4305231f,001,2021-08-09_07h17.44.390,arrow_simon_norep,2021.1.2,Win32,143.5750179,,,,,,,,,,,,,,,,,,,,,,,,,,,,,,,,,,,,,,
,,,,,,,,,,,,,,,,,,,,,,60e5f4ebca9d0e7a4305231f,001,2021-08-09_07h17.44.390,arrow_simon_norep,2021.1.2,Win32,143.5750179,space,33.5723,0,0,0,0,1,,,,,,,,,,,,,,,,,,,,,,,,,,,,,,,
,,,p,0,1.2796,1,0.843585631,#a3d0fb,,right_blue.png,o,0,0,0,0,1,o,right_blue.png,right_orange.png,p,left,60e5f4ebca9d0e7a4305231f,001,2021-08-09_07h17.44.390,arrow_simon_norep,2021.1.2,Win32,143.5750179,,,,,,,,,,,,,,,,,,,,,,,,,,,,,,,,,,,,,,
,,,q,1,3.8943,0,0.484444591,#f3af84,,left_orange.png,q,0,1,1,3,1,w,left_blue.png,left_orange.png,q,right,60e5f4ebca9d0e7a4305231f,001,2021-08-09_07h17.44.390,arrow_simon_norep,2021.1.2,Win32,143.5750179,,,,,,,,,,,,,,,,,,,,,,,,,,,,,,,,,,,,,,
,,,w,0,1.3762,1,0.62331364,#a3d0fb,,right_blue.png,o,0,2,2,0,1,o,right_blue.png,right_orange.png,p,left,60e5f4ebca9d0e7a4305231f,001,2021-08-09_07h17.44.390,arrow_simon_norep,2021.1.2,Win32,143.5750179,,,,,,,,,,,,,,,,,,,,,,,,,,,,,,,,,,,,,,
,,,p,0,0.5489,1,0.402749604,#f3af84,,left_orange.png,q,0,3,3,2,1,w,left_blue.png,left_orange.png,q,left,60e5f4ebca9d0e7a4305231f,001,2021-08-09_07h17.44.390,arrow_simon_norep,2021.1.2,Win32,143.5750179,,,,,,,,,,,,,,,,,,,,,,,,,,,,,,,,,,,,,,
,,,q,0,0.472,1,0.800781787,#a3d0fb,,left_blue.png,w,1,0,4,3,1,w,left_blue.png,left_orange.png,q,right,60e5f4ebca9d0e7a4305231f,001,2021-08-09_07h17.44.390,arrow_simon_norep,2021.1.2,Win32,143.5750179,,,,,,,,,,,,,,,,,,,,,,,,,,,,,,,,,,,,,,
,,,q,1,1.6723,0,0.883310383,#f3af84,,left_orange.png,q,1,1,5,2,1,w,left_blue.png,left_orange.png,q,left,60e5f4ebca9d0e7a4305231f,001,2021-08-09_07h17.44.390,arrow_simon_norep,2021.1.2,Win32,143.5750179,,,,,,,,,,,,,,,,,,,,,,,,,,,,,,,,,,,,,,
,,,q,0,1.5754,1,0.099320435,#a3d0fb,,left_blue.png,w,1,2,6,3,1,w,left_blue.png,left_orange.png,q,right,60e5f4ebca9d0e7a4305231f,001,2021-08-09_07h17.44.390,arrow_simon_norep,2021.1.2,Win32,143.5750179,,,,,,,,,,,,,,,,,,,,,,,,,,,,,,,,,,,,,,
,,,p,1,1.4385,0,0.677497573,#f3af84,,right_orange.png,p,1,3,7,0,1,o,right_blue.png,right_orange.png,p,left,60e5f4ebca9d0e7a4305231f,001,2021-08-09_07h17.44.390,arrow_simon_norep,2021.1.2,Win32,143.5750179,,,,,,,,,,,,,,,,,,,,,,,,,,,,,,,,,,,,,,
,,,w,0,2.4692,1,0.599526075,#a3d0fb,,right_blue.png,o,2,0,8,1,1,o,right_blue.png,right_orange.png,p,right,60e5f4ebca9d0e7a4305231f,001,2021-08-09_07h17.44.390,arrow_simon_norep,2021.1.2,Win32,143.5750179,,,,,,,,,,,,,,,,,,,,,,,,,,,,,,,,,,,,,,
,,,o,0,1.5401,1,0.540185444,#f3af84,,left_orange.png,q,2,1,9,3,1,w,left_blue.png,left_orange.png,q,right,60e5f4ebca9d0e7a4305231f,001,2021-08-09_07h17.44.390,arrow_simon_norep,2021.1.2,Win32,143.5750179,,,,,,,,,,,,,,,,,,,,,,,,,,,,,,,,,,,,,,
,,,q,0,1.3726,1,0.678113517,#a3d0fb,,right_blue.png,o,2,2,10,0,1,o,right_blue.png,right_orange.png,p,left,60e5f4ebca9d0e7a4305231f,001,2021-08-09_07h17.44.390,arrow_simon_norep,2021.1.2,Win32,143.5750179,,,,,,,,,,,,,,,,,,,,,,,,,,,,,,,,,,,,,,
,,,o,0,1.2328,1,0.419772875,#f3af84,,left_orange.png,q,2,3,11,3,1,w,left_blue.png,left_orange.png,q,right,60e5f4ebca9d0e7a4305231f,001,2021-08-09_07h17.44.390,arrow_simon_norep,2021.1.2,Win32,143.5750179,,,,,,,,,,,,,,,,,,,,,,,,,,,,,,,,,,,,,,
,,,w,1,3.679,0,0.966987386,#a3d0fb,,left_blue.png,w,3,0,12,3,1,w,left_blue.png,left_orange.png,q,right,60e5f4ebca9d0e7a4305231f,001,2021-08-09_07h17.44.390,arrow_simon_norep,2021.1.2,Win32,143.5750179,,,,,,,,,,,,,,,,,,,,,,,,,,,,,,,,,,,,,,
,,,p,1,1.5415,0,0.502139305,#f3af84,,right_orange.png,p,3,1,13,1,1,o,right_blue.png,right_orange.png,p,right,60e5f4ebca9d0e7a4305231f,001,2021-08-09_07h17.44.390,arrow_simon_norep,2021.1.2,Win32,143.5750179,,,,,,,,,,,,,,,,,,,,,,,,,,,,,,,,,,,,,,
,,,p,0,1.095,1,0.27962032,#a3d0fb,,right_blue.png,o,3,2,14,1,1,o,right_blue.png,right_orange.png,p,right,60e5f4ebca9d0e7a4305231f,001,2021-08-09_07h17.44.390,arrow_simon_norep,2021.1.2,Win32,143.5750179,,,,,,,,,,,,,,,,,,,,,,,,,,,,,,,,,,,,,,
,,,p,1,1.5449,0,0.988991014,#f3af84,,right_orange.png,p,3,3,15,1,1,o,right_blue.png,right_orange.png,p,right,60e5f4ebca9d0e7a4305231f,001,2021-08-09_07h17.44.390,arrow_simon_norep,2021.1.2,Win32,143.5750179,,,,,,,,,,,,,,,,,,,,,,,,,,,,,,,,,,,,,,
,,,q,0,0.437,1,0.424438159,#a3d0fb,,left_blue.png,w,4,0,16,3,1,w,left_blue.png,left_orange.png,q,right,60e5f4ebca9d0e7a4305231f,001,2021-08-09_07h17.44.390,arrow_simon_norep,2021.1.2,Win32,143.5750179,,,,,,,,,,,,,,,,,,,,,,,,,,,,,,,,,,,,,,
,,,o,0,1.1955,1,0.439014727,#f3af84,,right_orange.png,p,4,1,17,1,1,o,right_blue.png,right_orange.png,p,right,60e5f4ebca9d0e7a4305231f,001,2021-08-09_07h17.44.390,arrow_simon_norep,2021.1.2,Win32,143.5750179,,,,,,,,,,,,,,,,,,,,,,,,,,,,,,,,,,,,,,
,,,p,0,0.8498,1,0.085802084,#a3d0fb,,right_blue.png,o,4,2,18,1,1,o,right_blue.png,right_orange.png,p,right,60e5f4ebca9d0e7a4305231f,001,2021-08-09_07h17.44.390,arrow_simon_norep,2021.1.2,Win32,143.5750179,,,,,,,,,,,,,,,,,,,,,,,,,,,,,,,,,,,,,,
,,,q,1,1.5281,0,0.826210725,#f3af84,,left_orange.png,q,4,3,19,3,1,w,left_blue.png,left_orange.png,q,right,60e5f4ebca9d0e7a4305231f,001,2021-08-09_07h17.44.390,arrow_simon_norep,2021.1.2,Win32,143.5750179,,,,,,,,,,,,,,,,,,,,,,,,,,,,,,,,,,,,,,
,,,o,1,1.5557,0,0.800397395,#a3d0fb,,right_blue.png,o,5,0,20,1,1,o,right_blue.png,right_orange.png,p,right,60e5f4ebca9d0e7a4305231f,001,2021-08-09_07h17.44.390,arrow_simon_norep,2021.1.2,Win32,143.5750179,,,,,,,,,,,,,,,,,,,,,,,,,,,,,,,,,,,,,,
,,,p,0,1.4873,1,0.814077419,#f3af84,,left_orange.png,q,5,1,21,3,1,w,left_blue.png,left_orange.png,q,right,60e5f4ebca9d0e7a4305231f,001,2021-08-09_07h17.44.390,arrow_simon_norep,2021.1.2,Win32,143.5750179,,,,,,,,,,,,,,,,,,,,,,,,,,,,,,,,,,,,,,
,,,w,1,1.926,0,0.576719515,#a3d0fb,,left_blue.png,w,5,2,22,3,1,w,left_blue.png,left_orange.png,q,right,60e5f4ebca9d0e7a4305231f,001,2021-08-09_07h17.44.390,arrow_simon_norep,2021.1.2,Win32,143.5750179,,,,,,,,,,,,,,,,,,,,,,,,,,,,,,,,,,,,,,
,,,p,1,1.2296,0,0.224342256,#f3af84,,right_orange.png,p,5,3,23,1,1,o,right_blue.png,right_orange.png,p,right,60e5f4ebca9d0e7a4305231f,001,2021-08-09_07h17.44.390,arrow_simon_norep,2021.1.2,Win32,143.5750179,,,,,,,,,,,,,,,,,,,,,,,,,,,,,,,,,,,,,,
,,,w,0,2.5169,1,0.333675581,#a3d0fb,,right_blue.png,o,6,0,24,0,1,o,right_blue.png,right_orange.png,p,left,60e5f4ebca9d0e7a4305231f,001,2021-08-09_07h17.44.390,arrow_simon_norep,2021.1.2,Win32,143.5750179,,,,,,,,,,,,,,,,,,,,,,,,,,,,,,,,,,,,,,
,,,o,0,3.3318,1,0.729226049,#f3af84,,left_orange.png,q,6,1,25,3,1,w,left_blue.png,left_orange.png,q,right,60e5f4ebca9d0e7a4305231f,001,2021-08-09_07h17.44.390,arrow_simon_norep,2021.1.2,Win32,143.5750179,,,,,,,,,,,,,,,,,,,,,,,,,,,,,,,,,,,,,,
,,,q,0,1.3814,1,0.358917722,#a3d0fb,,left_blue.png,w,6,2,26,2,1,w,left_blue.png,left_orange.png,q,left,60e5f4ebca9d0e7a4305231f,001,2021-08-09_07h17.44.390,arrow_simon_norep,2021.1.2,Win32,143.5750179,,,,,,,,,,,,,,,,,,,,,,,,,,,,,,,,,,,,,,
,,,w,0,1.01,1,0.375223884,#f3af84,,left_orange.png,q,6,3,27,2,1,w,left_blue.png,left_orange.png,q,left,60e5f4ebca9d0e7a4305231f,001,2021-08-09_07h17.44.390,arrow_simon_norep,2021.1.2,Win32,143.5750179,,,,,,,,,,,,,,,,,,,,,,,,,,,,,,,,,,,,,,
,,,q,0,0.7308,1,0.043776594,#a3d0fb,,left_blue.png,w,7,0,28,2,1,w,left_blue.png,left_orange.png,q,left,60e5f4ebca9d0e7a4305231f,001,2021-08-09_07h17.44.390,arrow_simon_norep,2021.1.2,Win32,143.5750179,,,,,,,,,,,,,,,,,,,,,,,,,,,,,,,,,,,,,,
,,,w,0,1.9238,1,0.109133377,#f3af84,,left_orange.png,q,7,1,29,2,1,w,left_blue.png,left_orange.png,q,left,60e5f4ebca9d0e7a4305231f,001,2021-08-09_07h17.44.390,arrow_simon_norep,2021.1.2,Win32,143.5750179,,,,,,,,,,,,,,,,,,,,,,,,,,,,,,,,,,,,,,
,,,p,0,0.9729,1,0.192405135,#a3d0fb,,right_blue.png,o,7,2,30,0,1,o,right_blue.png,right_orange.png,p,left,60e5f4ebca9d0e7a4305231f,001,2021-08-09_07h17.44.390,arrow_simon_norep,2021.1.2,Win32,143.5750179,,,,,,,,,,,,,,,,,,,,,,,,,,,,,,,,,,,,,,
,,,o,0,1.2616,1,0.706016895,#f3af84,,right_orange.png,p,7,3,31,1,1,o,right_blue.png,right_orange.png,p,right,60e5f4ebca9d0e7a4305231f,001,2021-08-09_07h17.44.390,arrow_simon_norep,2021.1.2,Win32,143.5750179,,,,,,,,,,,,,,,,,,,,,,,,,,,,,,,,,,,,,,
,,,w,0,1.3615,1,0.567948485,#a3d0fb,,right_blue.png,o,8,0,32,0,1,o,right_blue.png,right_orange.png,p,left,60e5f4ebca9d0e7a4305231f,001,2021-08-09_07h17.44.390,arrow_simon_norep,2021.1.2,Win32,143.5750179,,,,,,,,,,,,,,,,,,,,,,,,,,,,,,,,,,,,,,
,,,p,1,1.3704,0,0.450975222,#f3af84,,right_orange.png,p,8,1,33,0,1,o,right_blue.png,right_orange.png,p,left,60e5f4ebca9d0e7a4305231f,001,2021-08-09_07h17.44.390,arrow_simon_norep,2021.1.2,Win32,143.5750179,,,,,,,,,,,,,,,,,,,,,,,,,,,,,,,,,,,,,,
,,,o,0,0.9889,1,0.151651204,#a3d0fb,,left_blue.png,w,8,2,34,3,1,w,left_blue.png,left_orange.png,q,right,60e5f4ebca9d0e7a4305231f,001,2021-08-09_07h17.44.390,arrow_simon_norep,2021.1.2,Win32,143.5750179,,,,,,,,,,,,,,,,,,,,,,,,,,,,,,,,,,,,,,
,,,w,0,1.6329,1,0.644068039,#f3af84,,right_orange.png,p,8,3,35,0,1,o,right_blue.png,right_orange.png,p,left,60e5f4ebca9d0e7a4305231f,001,2021-08-09_07h17.44.390,arrow_simon_norep,2021.1.2,Win32,143.5750179,,,,,,,,,,,,,,,,,,,,,,,,,,,,,,,,,,,,,,
,,,q,0,1.2614,1,0.565432908,#a3d0fb,,right_blue.png,o,9,0,36,0,1,o,right_blue.png,right_orange.png,p,left,60e5f4ebca9d0e7a4305231f,001,2021-08-09_07h17.44.390,arrow_simon_norep,2021.1.2,Win32,143.5750179,,,,,,,,,,,,,,,,,,,,,,,,,,,,,,,,,,,,,,
,,,p,1,1.1255,0,0.299220203,#f3af84,,right_orange.png,p,9,1,37,1,1,o,right_blue.png,right_orange.png,p,right,60e5f4ebca9d0e7a4305231f,001,2021-08-09_07h17.44.390,arrow_simon_norep,2021.1.2,Win32,143.5750179,,,,,,,,,,,,,,,,,,,,,,,,,,,,,,,,,,,,,,
,,,p,0,1.5015,1,0.597417842,#a3d0fb,,right_blue.png,o,9,2,38,0,1,o,right_blue.png,right_orange.png,p,left,60e5f4ebca9d0e7a4305231f,001,2021-08-09_07h17.44.390,arrow_simon_norep,2021.1.2,Win32,143.5750179,,,,,,,,,,,,,,,,,,,,,,,,,,,,,,,,,,,,,,
,,,o,0,1.2251,1,0.285116075,#f3af84,,right_orange.png,p,9,3,39,1,1,o,right_blue.png,right_orange.png,p,right,60e5f4ebca9d0e7a4305231f,001,2021-08-09_07h17.44.390,arrow_simon_norep,2021.1.2,Win32,143.5750179,,,,,,,,,,,,,,,,,,,,,,,,,,,,,,,,,,,,,,
,,,w,1,1.7639,0,0.086178365,#a3d0fb,,left_blue.png,w,10,0,40,2,1,w,left_blue.png,left_orange.png,q,left,60e5f4ebca9d0e7a4305231f,001,2021-08-09_07h17.44.390,arrow_simon_norep,2021.1.2,Win32,143.5750179,,,,,,,,,,,,,,,,,,,,,,,,,,,,,,,,,,,,,,
,,,p,1,1.9039,0,0.225715668,#f3af84,,right_orange.png,p,10,1,41,1,1,o,right_blue.png,right_orange.png,p,right,60e5f4ebca9d0e7a4305231f,001,2021-08-09_07h17.44.390,arrow_simon_norep,2021.1.2,Win32,143.5750179,,,,,,,,,,,,,,,,,,,,,,,,,,,,,,,,,,,,,,
,,,q,0,0.7991,1,0.109891922,#a3d0fb,,left_blue.png,w,10,2,42,2,1,w,left_blue.png,left_orange.png,q,left,60e5f4ebca9d0e7a4305231f,001,2021-08-09_07h17.44.390,arrow_simon_norep,2021.1.2,Win32,143.5750179,,,,,,,,,,,,,,,,,,,,,,,,,,,,,,,,,,,,,,
,,,q,1,1.5422,0,0.692385413,#f3af84,,left_orange.png,q,10,3,43,2,1,w,left_blue.png,left_orange.png,q,left,60e5f4ebca9d0e7a4305231f,001,2021-08-09_07h17.44.390,arrow_simon_norep,2021.1.2,Win32,143.5750179,,,,,,,,,,,,,,,,,,,,,,,,,,,,,,,,,,,,,,
,,,p,0,1.1805,1,0.480795614,#a3d0fb,,right_blue.png,o,11,0,44,1,1,o,right_blue.png,right_orange.png,p,right,60e5f4ebca9d0e7a4305231f,001,2021-08-09_07h17.44.390,arrow_simon_norep,2021.1.2,Win32,143.5750179,,,,,,,,,,,,,,,,,,,,,,,,,,,,,,,,,,,,,,
,,,q,1,1.2935,0,0.754550611,#f3af84,,left_orange.png,q,11,1,45,2,1,w,left_blue.png,left_orange.png,q,left,60e5f4ebca9d0e7a4305231f,001,2021-08-09_07h17.44.390,arrow_simon_norep,2021.1.2,Win32,143.5750179,,,,,,,,,,,,,,,,,,,,,,,,,,,,,,,,,,,,,,
,,,q,0,1.1994,1,0.647583767,#a3d0fb,,left_blue.png,w,11,2,46,2,1,w,left_blue.png,left_orange.png,q,left,60e5f4ebca9d0e7a4305231f,001,2021-08-09_07h17.44.390,arrow_simon_norep,2021.1.2,Win32,143.5750179,,,,,,,,,,,,,,,,,,,,,,,,,,,,,,,,,,,,,,
,,,p,1,1.064,0,0.048980177,#f3af84,,right_orange.png,p,11,3,47,0,1,o,right_blue.png,right_orange.png,p,left,60e5f4ebca9d0e7a4305231f,001,2021-08-09_07h17.44.390,arrow_simon_norep,2021.1.2,Win32,143.5750179,,,,,,,,,,,,,,,,,,,,,,,,,,,,,,,,,,,,,,
,,,o,0,1.4313,1,0.559518669,#a3d0fb,,left_blue.png,w,12,0,48,3,1,w,left_blue.png,left_orange.png,q,right,60e5f4ebca9d0e7a4305231f,001,2021-08-09_07h17.44.390,arrow_simon_norep,2021.1.2,Win32,143.5750179,,,,,,,,,,,,,,,,,,,,,,,,,,,,,,,,,,,,,,
,,,p,1,0.8982,0,0.32012721,#f3af84,,right_orange.png,p,12,1,49,1,1,o,right_blue.png,right_orange.png,p,right,60e5f4ebca9d0e7a4305231f,001,2021-08-09_07h17.44.390,arrow_simon_norep,2021.1.2,Win32,143.5750179,,,,,,,,,,,,,,,,,,,,,,,,,,,,,,,,,,,,,,
,,,q,0,0.5269,1,0.057881875,#a3d0fb,,left_blue.png,w,12,2,50,2,1,w,left_blue.png,left_orange.png,q,left,60e5f4ebca9d0e7a4305231f,001,2021-08-09_07h17.44.390,arrow_simon_norep,2021.1.2,Win32,143.5750179,,,,,,,,,,,,,,,,,,,,,,,,,,,,,,,,,,,,,,
,,,w,0,1.4189,1,0.686292932,#f3af84,,right_orange.png,p,12,3,51,0,1,o,right_blue.png,right_orange.png,p,left,60e5f4ebca9d0e7a4305231f,001,2021-08-09_07h17.44.390,arrow_simon_norep,2021.1.2,Win32,143.5750179,,,,,,,,,,,,,,,,,,,,,,,,,,,,,,,,,,,,,,
,,,o,0,1.5464,1,0.824134276,#a3d0fb,,left_blue.png,w,13,0,52,3,1,w,left_blue.png,left_orange.png,q,right,60e5f4ebca9d0e7a4305231f,001,2021-08-09_07h17.44.390,arrow_simon_norep,2021.1.2,Win32,143.5750179,,,,,,,,,,,,,,,,,,,,,,,,,,,,,,,,,,,,,,
,,,q,0,1.1884,1,0.550157838,#f3af84,,right_orange.png,p,13,1,53,0,1,o,right_blue.png,right_orange.png,p,left,60e5f4ebca9d0e7a4305231f,001,2021-08-09_07h17.44.390,arrow_simon_norep,2021.1.2,Win32,143.5750179,,,,,,,,,,,,,,,,,,,,,,,,,,,,,,,,,,,,,,
,,,q,0,1.7524,1,0.956591873,#a3d0fb,,left_blue.png,w,13,2,54,2,1,w,left_blue.png,left_orange.png,q,left,60e5f4ebca9d0e7a4305231f,001,2021-08-09_07h17.44.390,arrow_simon_norep,2021.1.2,Win32,143.5750179,,,,,,,,,,,,,,,,,,,,,,,,,,,,,,,,,,,,,,
,,,o,0,2.82,1,0.659955312,#f3af84,,left_orange.png,q,13,3,55,3,1,w,left_blue.png,left_orange.png,q,right,60e5f4ebca9d0e7a4305231f,001,2021-08-09_07h17.44.390,arrow_simon_norep,2021.1.2,Win32,143.5750179,,,,,,,,,,,,,,,,,,,,,,,,,,,,,,,,,,,,,,
,,,o,1,1.6038,0,0.388056325,#a3d0fb,,right_blue.png,o,14,0,56,1,1,o,right_blue.png,right_orange.png,p,right,60e5f4ebca9d0e7a4305231f,001,2021-08-09_07h17.44.390,arrow_simon_norep,2021.1.2,Win32,143.5750179,,,,,,,,,,,,,,,,,,,,,,,,,,,,,,,,,,,,,,
,,,q,1,1.0854,0,0.284267735,#f3af84,,left_orange.png,q,14,1,57,2,1,w,left_blue.png,left_orange.png,q,left,60e5f4ebca9d0e7a4305231f,001,2021-08-09_07h17.44.390,arrow_simon_norep,2021.1.2,Win32,143.5750179,,,,,,,,,,,,,,,,,,,,,,,,,,,,,,,,,,,,,,
,,,p,0,1.7986,1,0.669333313,#a3d0fb,,right_blue.png,o,14,2,58,0,1,o,right_blue.png,right_orange.png,p,left,60e5f4ebca9d0e7a4305231f,001,2021-08-09_07h17.44.390,arrow_simon_norep,2021.1.2,Win32,143.5750179,,,,,,,,,,,,,,,,,,,,,,,,,,,,,,,,,,,,,,
,,,q,1,1.4223,0,0.418390225,#f3af84,,left_orange.png,q,14,3,59,2,1,w,left_blue.png,left_orange.png,q,left,60e5f4ebca9d0e7a4305231f,001,2021-08-09_07h17.44.390,arrow_simon_norep,2021.1.2,Win32,143.5750179,,,,,,,,,,,,,,,,,,,,,,,,,,,,,,,,,,,,,,
,,,,,,,,,,,,,,,,,,,,,,60e5f4ebca9d0e7a4305231f,001,2021-08-09_07h17.44.390,arrow_simon_norep,2021.1.2,Win32,143.5750179,space,13.9591,1,0,1,0,1,,,,,,,,,,,,,,,,,,,,,,,,,,,,,,,
,,,,,,,,,,,,,,,,,,,,,,60e5f4ebca9d0e7a4305231f,001,2021-08-09_07h17.44.390,arrow_simon_norep,2021.1.2,Win32,143.5750179,,,,,,,,space,0,87.2597,q,3.3889,0,0,0,0,1,,,,,,,,,,,,,,,,,,,,,
,,,,,,,,,,,,,,,,,,,,,,60e5f4ebca9d0e7a4305231f,001,2021-08-09_07h17.44.390,arrow_simon_norep,2021.1.2,Win32,143.5750179,,,,,,,,,,,w,2.5631,1,0,1,0,1,,,,,,,,,,,,,,,,,,,,,
,,,,,,,,,,,,,,,,,,,,,,60e5f4ebca9d0e7a4305231f,001,2021-08-09_07h17.44.390,arrow_simon_norep,2021.1.2,Win32,143.5750179,,,,,,,,,,,p,2.8214,2,0,2,0,1,,,,,,,,,,,,,,,,,,,,,
,,,,,,,,,,,,,,,,,,,,,,60e5f4ebca9d0e7a4305231f,001,2021-08-09_07h17.44.390,arrow_simon_norep,2021.1.2,Win32,143.5750179,,,,,,,,,,,w,2.6579,3,0,3,0,1,,,,,,,,,,,,,,,,,,,,,
,,,,,,,,,,,,,,,,,,,,,,60e5f4ebca9d0e7a4305231f,001,2021-08-09_07h17.44.390,arrow_simon_norep,2021.1.2,Win32,143.5750179,,,,,,,,,,,o,2.6276,4,0,4,0,1,,,,,,,,,,,,,,,,,,,,,
,,,,,,,,,,,,,,,,,,,,,,60e5f4ebca9d0e7a4305231f,001,2021-08-09_07h17.44.390,arrow_simon_norep,2021.1.2,Win32,143.5750179,,,,,,,,,,,q,2.6053,5,0,5,0,1,,,,,,,,,,,,,,,,,,,,,
,,,,,,,,,,,,,,,,,,,,,,60e5f4ebca9d0e7a4305231f,001,2021-08-09_07h17.44.390,arrow_simon_norep,2021.1.2,Win32,143.5750179,,,,,,,,,,,o,2.2503,6,0,6,0,1,,,,,,,,,,,,,,,,,,,,,
,,,,,,,,,,,,,,,,,,,,,,60e5f4ebca9d0e7a4305231f,001,2021-08-09_07h17.44.390,arrow_simon_norep,2021.1.2,Win32,143.5750179,,,,,,,,,,,p,2.8157,7,0,7,0,1,,,,,,,,,,,,,,,,,,,,,
,,,,,,,,,,,,,,,,,,,,,,60e5f4ebca9d0e7a4305231f,001,2021-08-09_07h17.44.390,arrow_simon_norep,2021.1.2,Win32,143.5750179,,,,,,,,,,,q,2.7933,8,0,8,0,1,,,,,,,,,,,,,,,,,,,,,
,,,,,,,,,,,,,,,,,,,,,,60e5f4ebca9d0e7a4305231f,001,2021-08-09_07h17.44.390,arrow_simon_norep,2021.1.2,Win32,143.5750179,,,,,,,,,,,w,2.8266,9,0,9,0,1,,,,,,,,,,,,,,,,,,,,,
,,,,,,,,,,,,,,,,,,,,,,60e5f4ebca9d0e7a4305231f,001,2021-08-09_07h17.44.390,arrow_simon_norep,2021.1.2,Win32,143.5750179,,,,,,,,,,,o,2.754,10,0,10,0,1,,,,,,,,,,,,,,,,,,,,,
,,,,,,,,,,,,,,,,,,,,,,60e5f4ebca9d0e7a4305231f,001,2021-08-09_07h17.44.390,arrow_simon_norep,2021.1.2,Win32,143.5750179,,,,,,,,,,,o,0.1607,11,0,11,0,1,,,,,,,,,,,,,,,,,,,,,
,,,,,,,,,,,,,,,,,,,,,,60e5f4ebca9d0e7a4305231f,001,2021-08-09_07h17.44.390,arrow_simon_norep,2021.1.2,Win32,143.5750179,,,,,,,,,,,q,2.9943,12,0,12,0,1,,,,,,,,,,,,,,,,,,,,,
,,,,,,,,,,,,,,,,,,,,,,60e5f4ebca9d0e7a4305231f,001,2021-08-09_07h17.44.390,arrow_simon_norep,2021.1.2,Win32,143.5750179,,,,,,,,,,,w,2.1129,13,0,13,0,1,,,,,,,,,,,,,,,,,,,,,
,,,,,,,,,,,,,,,,,,,,,,60e5f4ebca9d0e7a4305231f,001,2021-08-09_07h17.44.390,arrow_simon_norep,2021.1.2,Win32,143.5750179,,,,,,,,,,,p,2.487,14,0,14,0,1,,,,,,,,,,,,,,,,,,,,,
,,,,,,,,,,,,,,,,,,,,,,60e5f4ebca9d0e7a4305231f,001,2021-08-09_07h17.44.390,arrow_simon_norep,2021.1.2,Win32,143.5750179,,,,,,,,,,,q,2.8719,15,0,15,0,1,,,,,,,,,,,,,,,,,,,,,
,,,,,,,,,,,,,,,,,,,,,,60e5f4ebca9d0e7a4305231f,001,2021-08-09_07h17.44.390,arrow_simon_norep,2021.1.2,Win32,143.5750179,,,,,,,,,,,o,2.865,16,0,16,0,1,,,,,,,,,,,,,,,,,,,,,
,,,,,,,,,,,,,,,,,,,,,,60e5f4ebca9d0e7a4305231f,001,2021-08-09_07h17.44.390,arrow_simon_norep,2021.1.2,Win32,143.5750179,,,,,,,,,,,o,2.8682,17,0,17,0,1,,,,,,,,,,,,,,,,,,,,,
,,,,,,,,,,,,,,,,,,,,,,60e5f4ebca9d0e7a4305231f,001,2021-08-09_07h17.44.390,arrow_simon_norep,2021.1.2,Win32,143.5750179,,,,,,,,,,,p,3.2849,18,0,18,0,1,,,,,,,,,,,,,,,,,,,,,
,,,,,,,,,,,,,,,,,,,,,,60e5f4ebca9d0e7a4305231f,001,2021-08-09_07h17.44.390,arrow_simon_norep,2021.1.2,Win32,143.5750179,,,,,,,,,,,q,2.9483,19,0,19,0,1,,,,,,,,,,,,,,,,,,,,,
,,,,,,,,,,,,,,,,,,,,,,60e5f4ebca9d0e7a4305231f,001,2021-08-09_07h17.44.390,arrow_simon_norep,2021.1.2,Win32,143.5750179,,,,,,,,,,,w,2.5768,20,0,20,0,1,,,,,,,,,,,,,,,,,,,,,
,,,,,,,,,,,,,,,,,,,,,,60e5f4ebca9d0e7a4305231f,001,2021-08-09_07h17.44.390,arrow_simon_norep,2021.1.2,Win32,143.5750179,,,,,,,,,,,o,2.2292,21,0,21,0,1,,,,,,,,,,,,,,,,,,,,,
,,,,,,,,,,,,,,,,,,,,,,60e5f4ebca9d0e7a4305231f,001,2021-08-09_07h17.44.390,arrow_simon_norep,2021.1.2,Win32,143.5750179,,,,,,,,,,,o,2.3704,22,0,22,0,1,,,,,,,,,,,,,,,,,,,,,
,,,,,,,,,,,,,,,,,,,,,,60e5f4ebca9d0e7a4305231f,001,2021-08-09_07h17.44.390,arrow_simon_norep,2021.1.2,Win32,143.5750179,,,,,,,,,,,w,2.8133,23,0,23,0,1,,,,,,,,,,,,,,,,,,,,,
,,,,,,,,,,,,,,,,,,,,,,60e5f4ebca9d0e7a4305231f,001,2021-08-09_07h17.44.390,arrow_simon_norep,2021.1.2,Win32,143.5750179,,,,,,,,,,,q,2.8454,24,0,24,0,1,,,,,,,,,,,,,,,,,,,,,
,,,,,,,,,,,,,,,,,,,,,,60e5f4ebca9d0e7a4305231f,001,2021-08-09_07h17.44.390,arrow_simon_norep,2021.1.2,Win32,143.5750179,,,,,,,,,,,o,2.876,25,0,25,0,1,,,,,,,,,,,,,,,,,,,,,
,,,,,,,,,,,,,,,,,,,,,,60e5f4ebca9d0e7a4305231f,001,2021-08-09_07h17.44.390,arrow_simon_norep,2021.1.2,Win32,143.5750179,,,,,,,,,,,q,2.8202,26,0,26,0,1,,,,,,,,,,,,,,,,,,,,,
,,,,,,,,,,,,,,,,,,,,,,60e5f4ebca9d0e7a4305231f,001,2021-08-09_07h17.44.390,arrow_simon_norep,2021.1.2,Win32,143.5750179,,,,,,,,,,,p,2.0848,27,0,27,0,1,,,,,,,,,,,,,,,,,,,,,
,,,,,,,,,,,,,,,,,,,,,,60e5f4ebca9d0e7a4305231f,001,2021-08-09_07h17.44.390,arrow_simon_norep,2021.1.2,Win32,143.5750179,,,,,,,,,,,q,3.0796,28,0,28,0,1,,,,,,,,,,,,,,,,,,,,,
,,,,,,,,,,,,,,,,,,,,,,60e5f4ebca9d0e7a4305231f,001,2021-08-09_07h17.44.390,arrow_simon_norep,2021.1.2,Win32,143.5750179,,,,,,,,,,,w,3.0645,29,0,29,0,1,,,,,,,,,,,,,,,,,,,,,
,,,,,,,,,,,,,,,,,,,,,,60e5f4ebca9d0e7a4305231f,001,2021-08-09_07h17.44.390,arrow_simon_norep,2021.1.2,Win32,143.5750179,,,,,,,,,,,o,2.7357,30,0,30,0,1,,,,,,,,,,,,,,,,,,,,,
,,,,,,,,,,,,,,,,,,,,,,60e5f4ebca9d0e7a4305231f,001,2021-08-09_07h17.44.390,arrow_simon_norep,2021.1.2,Win32,143.5750179,,,,,,,,,,,w,1.474,31,0,31,0,1,,,,,,,,,,,,,,,,,,,,,
,,,,,,,,,,,,,,,,,,,,,,60e5f4ebca9d0e7a4305231f,001,2021-08-09_07h17.44.390,arrow_simon_norep,2021.1.2,Win32,143.5750179,,,,,,,,,,,o,2.8171,32,0,32,0,1,,,,,,,,,,,,,,,,,,,,,
,,,,,,,,,,,,,,,,,,,,,,60e5f4ebca9d0e7a4305231f,001,2021-08-09_07h17.44.390,arrow_simon_norep,2021.1.2,Win32,143.5750179,,,,,,,,,,,q,2.906,33,0,33,0,1,,,,,,,,,,,,,,,,,,,,,
,,,,,,,,,,,,,,,,,,,,,,60e5f4ebca9d0e7a4305231f,001,2021-08-09_07h17.44.390,arrow_simon_norep,2021.1.2,Win32,143.5750179,,,,,,,,,,,o,2.308,34,0,34,0,1,,,,,,,,,,,,,,,,,,,,,
,,,,,,,,,,,,,,,,,,,,,,60e5f4ebca9d0e7a4305231f,001,2021-08-09_07h17.44.390,arrow_simon_norep,2021.1.2,Win32,143.5750179,,,,,,,,,,,w,2.9119,35,0,35,0,1,,,,,,,,,,,,,,,,,,,,,
,,,,,,,,,,,,,,,,,,,,,,60e5f4ebca9d0e7a4305231f,001,2021-08-09_07h17.44.390,arrow_simon_norep,2021.1.2,Win32,143.5750179,,,,,,,,,,,p,2.9383,36,0,36,0,1,,,,,,,,,,,,,,,,,,,,,
,,,,,,,,,,,,,,,,,,,,,,60e5f4ebca9d0e7a4305231f,001,2021-08-09_07h17.44.390,arrow_simon_norep,2021.1.2,Win32,143.5750179,,,,,,,,,,,w,2.8614,37,0,37,0,1,,,,,,,,,,,,,,,,,,,,,
,,,,,,,,,,,,,,,,,,,,,,60e5f4ebca9d0e7a4305231f,001,2021-08-09_07h17.44.390,arrow_simon_norep,2021.1.2,Win32,143.5750179,,,,,,,,,,,q,2.905,38,0,38,0,1,,,,,,,,,,,,,,,,,,,,,
,,,,,,,,,,,,,,,,,,,,,,60e5f4ebca9d0e7a4305231f,001,2021-08-09_07h17.44.390,arrow_simon_norep,2021.1.2,Win32,143.5750179,,,,,,,,,,,o,2.8686,39,0,39,0,1,,,,,,,,,,,,,,,,,,,,,
,,,,,,,,,,,,,,,,,,,,,,60e5f4ebca9d0e7a4305231f,001,2021-08-09_07h17.44.390,arrow_simon_norep,2021.1.2,Win32,143.5750179,,,,,,,,,,,q,3.0645,40,0,40,0,1,,,,,,,,,,,,,,,,,,,,,
,,,,,,,,,,,,,,,,,,,,,,60e5f4ebca9d0e7a4305231f,001,2021-08-09_07h17.44.390,arrow_simon_norep,2021.1.2,Win32,143.5750179,,,,,,,,,,,o,1.5607,41,0,41,0,1,,,,,,,,,,,,,,,,,,,,,
,,,,,,,,,,,,,,,,,,,,,,60e5f4ebca9d0e7a4305231f,001,2021-08-09_07h17.44.390,arrow_simon_norep,2021.1.2,Win32,143.5750179,,,,,,,,,,,q,3.0446,42,0,42,0,1,,,,,,,,,,,,,,,,,,,,,
,,,,,,,,,,,,,,,,,,,,,,60e5f4ebca9d0e7a4305231f,001,2021-08-09_07h17.44.390,arrow_simon_norep,2021.1.2,Win32,143.5750179,,,,,,,,,,,o,2.1985,43,0,43,0,1,,,,,,,,,,,,,,,,,,,,,
,,,,,,,,,,,,,,,,,,,,,,60e5f4ebca9d0e7a4305231f,001,2021-08-09_07h17.44.390,arrow_simon_norep,2021.1.2,Win32,143.5750179,,,,,,,,,,,w,2.8898,44,0,44,0,1,,,,,,,,,,,,,,,,,,,,,
,,,,,,,,,,,,,,,,,,,,,,60e5f4ebca9d0e7a4305231f,001,2021-08-09_07h17.44.390,arrow_simon_norep,2021.1.2,Win32,143.5750179,,,,,,,,,,,p,2.8611,45,0,45,0,1,,,,,,,,,,,,,,,,,,,,,
,,,,,,,,,,,,,,,,,,,,,,60e5f4ebca9d0e7a4305231f,001,2021-08-09_07h17.44.390,arrow_simon_norep,2021.1.2,Win32,143.5750179,,,,,,,,,,,w,3.113,46,0,46,0,1,,,,,,,,,,,,,,,,,,,,,
,,,,,,,,,,,,,,,,,,,,,,60e5f4ebca9d0e7a4305231f,001,2021-08-09_07h17.44.390,arrow_simon_norep,2021.1.2,Win32,143.5750179,,,,,,,,,,,o,2.9415,47,0,47,0,1,,,,,,,,,,,,,,,,,,,,,
,,,,,,,,,,,,,,,,,,,,,,60e5f4ebca9d0e7a4305231f,001,2021-08-09_07h17.44.390,arrow_simon_norep,2021.1.2,Win32,143.5750179,,,,,,,,,,,w,1.563,48,0,48,0,1,,,,,,,,,,,,,,,,,,,,,
,,,,,,,,,,,,,,,,,,,,,,60e5f4ebca9d0e7a4305231f,001,2021-08-09_07h17.44.390,arrow_simon_norep,2021.1.2,Win32,143.5750179,,,,,,,,,,,o,3.0146,49,0,49,0,1,,,,,,,,,,,,,,,,,,,,,
,,,,,,,,,,,,,,,,,,,,,,60e5f4ebca9d0e7a4305231f,001,2021-08-09_07h17.44.390,arrow_simon_norep,2021.1.2,Win32,143.5750179,,,,,,,,,,,w,2.1327,50,0,50,0,1,,,,,,,,,,,,,,,,,,,,,
,,,,,,,,,,,,,,,,,,,,,,60e5f4ebca9d0e7a4305231f,001,2021-08-09_07h17.44.390,arrow_simon_norep,2021.1.2,Win32,143.5750179,,,,,,,,,,,w,2.9722,51,0,51,0,1,,,,,,,,,,,,,,,,,,,,,
,,,,,,,,,,,,,,,,,,,,,,60e5f4ebca9d0e7a4305231f,001,2021-08-09_07h17.44.390,arrow_simon_norep,2021.1.2,Win32,143.5750179,,,,,,,,,,,o,2.9591,52,0,52,0,1,,,,,,,,,,,,,,,,,,,,,
,,,,,,,,,,,,,,,,,,,,,,60e5f4ebca9d0e7a4305231f,001,2021-08-09_07h17.44.390,arrow_simon_norep,2021.1.2,Win32,143.5750179,,,,,,,,,,,q,2.9252,53,0,53,0,1,,,,,,,,,,,,,,,,,,,,,
,,,,,,,,,,,,,,,,,,,,,,60e5f4ebca9d0e7a4305231f,001,2021-08-09_07h17.44.390,arrow_simon_norep,2021.1.2,Win32,143.5750179,,,,,,,,,,,p,2.8482,54,0,54,0,1,,,,,,,,,,,,,,,,,,,,,
,,,,,,,,,,,,,,,,,,,,,,60e5f4ebca9d0e7a4305231f,001,2021-08-09_07h17.44.390,arrow_simon_norep,2021.1.2,Win32,143.5750179,,,,,,,,,,,o,2.9443,55,0,55,0,1,,,,,,,,,,,,,,,,,,,,,
,,,,,,,,,,,,,,,,,,,,,,60e5f4ebca9d0e7a4305231f,001,2021-08-09_07h17.44.390,arrow_simon_norep,2021.1.2,Win32,143.5750179,,,,,,,,,,,w,2.9824,56,0,56,0,1,,,,,,,,,,,,,,,,,,,,,
,,,,,,,,,,,,,,,,,,,,,,60e5f4ebca9d0e7a4305231f,001,2021-08-09_07h17.44.390,arrow_simon_norep,2021.1.2,Win32,143.5750179,,,,,,,,,,,w,2.1198,57,0,57,0,1,,,,,,,,,,,,,,,,,,,,,
,,,,,,,,,,,,,,,,,,,,,,60e5f4ebca9d0e7a4305231f,001,2021-08-09_07h17.44.390,arrow_simon_norep,2021.1.2,Win32,143.5750179,,,,,,,,,,,w,2.808,58,0,58,0,1,,,,,,,,,,,,,,,,,,,,,
,,,,,,,,,,,,,,,,,,,,,,60e5f4ebca9d0e7a4305231f,001,2021-08-09_07h17.44.390,arrow_simon_norep,2021.1.2,Win32,143.5750179,,,,,,,,,,,p,2.5912,59,0,59,0,1,,,,,,,,,,,,,,,,,,,,,
,,,,,,0,1.62964588,#a3d0fb,,right_blue.png,o,,,,,,o,right_blue.png,right_orange.png,p,left,60e5f4ebca9d0e7a4305231f,001,2021-08-09_07h17.44.390,arrow_simon_norep,2021.1.2,Win32,143.5750179,,,,,,,,,,,,,,,,,,space,0,35.4656,o,1,1.0135,1,FALSE,TRUE,0,0,0,0,1,,,,,,,
,,,,,,0,1.598068904,#f3af84,,left_orange.png,q,,,,,,w,left_blue.png,left_orange.png,q,left,60e5f4ebca9d0e7a4305231f,001,2021-08-09_07h17.44.390,arrow_simon_norep,2021.1.2,Win32,143.5750179,,,,,,,,,,,,,,,,,,,,,w,0,0.9802,2,FALSE,TRUE,0,1,1,2,1,,,,,,,
,,,,,,0,1.688566702,#a3d0fb,,left_blue.png,w,,,,,,w,left_blue.png,left_orange.png,q,right,60e5f4ebca9d0e7a4305231f,001,2021-08-09_07h17.44.390,arrow_simon_norep,2021.1.2,Win32,143.5750179,,,,,,,,,,,,,,,,,,,,,o,0,2.1948,3,TRUE,FALSE,0,2,2,3,1,,,,,,,
,,,,,,0,1.762767683,#f3af84,,left_orange.png,q,,,,,,w,left_blue.png,left_orange.png,q,right,60e5f4ebca9d0e7a4305231f,001,2021-08-09_07h17.44.390,arrow_simon_norep,2021.1.2,Win32,143.5750179,,,,,,,,,,,,,,,,,,,,,o,0,1.3616,4,FALSE,TRUE,0,3,3,3,1,,,,,,,
,,,,,,0,2.163501564,#a3d0fb,,left_blue.png,w,,,,,,w,left_blue.png,left_orange.png,q,right,60e5f4ebca9d0e7a4305231f,001,2021-08-09_07h17.44.390,arrow_simon_norep,2021.1.2,Win32,143.5750179,,,,,,,,,,,,,,,,,,,,,w,1,1.4802,5,FALSE,FALSE,1,0,4,3,1,,,,,,,
,,,,,,0,1.894176584,#f3af84,,left_orange.png,q,,,,,,w,left_blue.png,left_orange.png,q,right,60e5f4ebca9d0e7a4305231f,001,2021-08-09_07h17.44.390,arrow_simon_norep,2021.1.2,Win32,143.5750179,,,,,,,,,,,,,,,,,,,,,w,0,2.0937,6,TRUE,FALSE,1,1,5,3,1,,,,,,,
,,,,,,0,1.778631392,#a3d0fb,,left_blue.png,w,,,,,,w,left_blue.png,left_orange.png,q,left,60e5f4ebca9d0e7a4305231f,001,2021-08-09_07h17.44.390,arrow_simon_norep,2021.1.2,Win32,143.5750179,,,,,,,,,,,,,,,,,,,,,w,1,1.3916,7,FALSE,TRUE,1,2,6,2,1,,,,,,,
,,,,,,0,1.551445941,#f3af84,,right_orange.png,p,,,,,,o,right_blue.png,right_orange.png,p,left,60e5f4ebca9d0e7a4305231f,001,2021-08-09_07h17.44.390,arrow_simon_norep,2021.1.2,Win32,143.5750179,,,,,,,,,,,,,,,,,,,,,p,1,1.1603,8,FALSE,TRUE,1,3,7,0,1,,,,,,,
,,,,,,0,1.53592463,#a3d0fb,,left_blue.png,w,,,,,,w,left_blue.png,left_orange.png,q,left,60e5f4ebca9d0e7a4305231f,001,2021-08-09_07h17.44.390,arrow_simon_norep,2021.1.2,Win32,143.5750179,,,,,,,,,,,,,,,,,,,,,o,0,2.1049,9,TRUE,FALSE,2,0,8,2,1,,,,,,,
,,,,,,0,2.24654167,#f3af84,,right_orange.png,p,,,,,,o,right_blue.png,right_orange.png,p,left,60e5f4ebca9d0e7a4305231f,001,2021-08-09_07h17.44.390,arrow_simon_norep,2021.1.2,Win32,143.5750179,,,,,,,,,,,,,,,,,,,,,p,1,1.9794,10,TRUE,FALSE,2,1,9,0,1,,,,,,,
,,,,,,0,1.684746672,#a3d0fb,,left_blue.png,w,,,,,,w,left_blue.png,left_orange.png,q,right,60e5f4ebca9d0e7a4305231f,001,2021-08-09_07h17.44.390,arrow_simon_norep,2021.1.2,Win32,143.5750179,,,,,,,,,,,,,,,,,,,,,p,0,1.1066,11,FALSE,TRUE,2,2,10,3,1,,,,,,,
,,,,,,1,2.09349823,#f3af84,,left_orange.png,q,,,,,,w,left_blue.png,left_orange.png,q,left,60e5f4ebca9d0e7a4305231f,001,2021-08-09_07h17.44.390,arrow_simon_norep,2021.1.2,Win32,143.5750179,,,,,,,,,,,,,,,,,,,,,w,0,1.5841,12,FALSE,FALSE,2,3,11,2,1,,,,,,,
,,,,,,1,2.278122326,#a3d0fb,,left_blue.png,w,,,,,,w,left_blue.png,left_orange.png,q,left,60e5f4ebca9d0e7a4305231f,001,2021-08-09_07h17.44.390,arrow_simon_norep,2021.1.2,Win32,143.5750179,,,,,,,,,,,,,,,,,,,,,w,1,2.1882,13,TRUE,FALSE,3,0,12,2,1,,,,,,,
,,,,,,1,2.027858824,#f3af84,,left_orange.png,q,,,,,,w,left_blue.png,left_orange.png,q,right,60e5f4ebca9d0e7a4305231f,001,2021-08-09_07h17.44.390,arrow_simon_norep,2021.1.2,Win32,143.5750179,,,,,,,,,,,,,,,,,,,,,w,0,4.861,14,TRUE,FALSE,3,1,13,3,1,,,,,,,
,,,,,,1,1.689609036,#a3d0fb,,left_blue.png,w,,,,,,w,left_blue.png,left_orange.png,q,right,60e5f4ebca9d0e7a4305231f,001,2021-08-09_07h17.44.390,arrow_simon_norep,2021.1.2,Win32,143.5750179,,,,,,,,,,,,,,,,,,,,,o,0,2.3687,15,TRUE,FALSE,3,2,14,3,1,,,,,,,
,,,,,,1,2.290467553,#f3af84,,left_orange.png,q,,,,,,w,left_blue.png,left_orange.png,q,right,60e5f4ebca9d0e7a4305231f,001,2021-08-09_07h17.44.390,arrow_simon_norep,2021.1.2,Win32,143.5750179,,,,,,,,,,,,,,,,,,,,,q,1,2.1054,16,TRUE,FALSE,3,3,15,3,1,,,,,,,
,,,,,,0,2.054102199,#a3d0fb,,left_blue.png,w,,,,,,w,left_blue.png,left_orange.png,q,right,60e5f4ebca9d0e7a4305231f,001,2021-08-09_07h17.44.390,arrow_simon_norep,2021.1.2,Win32,143.5750179,,,,,,,,,,,,,,,,,,,,,w,1,1.5623,17,FALSE,FALSE,4,0,16,3,1,,,,,,,
,,,,,,0,2.062583764,#f3af84,,left_orange.png,q,,,,,,w,left_blue.png,left_orange.png,q,left,60e5f4ebca9d0e7a4305231f,001,2021-08-09_07h17.44.390,arrow_simon_norep,2021.1.2,Win32,143.5750179,,,,,,,,,,,,,,,,,,,,,w,0,2.0013,18,TRUE,FALSE,4,1,17,2,1,,,,,,,
,,,,,,0,2.311922441,#a3d0fb,,right_blue.png,o,,,,,,o,right_blue.png,right_orange.png,p,right,60e5f4ebca9d0e7a4305231f,001,2021-08-09_07h17.44.390,arrow_simon_norep,2021.1.2,Win32,143.5750179,,,,,,,,,,,,,,,,,,,,,p,0,1.9685,19,TRUE,FALSE,4,2,18,1,1,,,,,,,
,,,,,,0,1.868497109,#f3af84,,right_orange.png,p,,,,,,o,right_blue.png,right_orange.png,p,left,60e5f4ebca9d0e7a4305231f,001,2021-08-09_07h17.44.390,arrow_simon_norep,2021.1.2,Win32,143.5750179,,,,,,,,,,,,,,,,,,,,,o,0,1.3496,20,FALSE,TRUE,4,3,19,0,1,,,,,,,
,,,,,,0,1.52236727,#a3d0fb,,right_blue.png,o,,,,,,o,right_blue.png,right_orange.png,p,right,60e5f4ebca9d0e7a4305231f,001,2021-08-09_07h17.44.390,arrow_simon_norep,2021.1.2,Win32,143.5750179,,,,,,,,,,,,,,,,,,,,,o,1,1.7716,21,TRUE,FALSE,5,0,20,1,1,,,,,,,
,,,,,,0,2.240872015,#f3af84,,right_orange.png,p,,,,,,o,right_blue.png,right_orange.png,p,right,60e5f4ebca9d0e7a4305231f,001,2021-08-09_07h17.44.390,arrow_simon_norep,2021.1.2,Win32,143.5750179,,,,,,,,,,,,,,,,,,,,,p,1,1.651,22,TRUE,FALSE,5,1,21,1,1,,,,,,,
,,,,,,0,2.272352997,#a3d0fb,,left_blue.png,w,,,,,,w,left_blue.png,left_orange.png,q,left,60e5f4ebca9d0e7a4305231f,001,2021-08-09_07h17.44.390,arrow_simon_norep,2021.1.2,Win32,143.5750179,,,,,,,,,,,,,,,,,,,,,w,1,1.7168,23,TRUE,FALSE,5,2,22,2,1,,,,,,,
,,,,,,0,2.366056136,#f3af84,,right_orange.png,p,,,,,,o,right_blue.png,right_orange.png,p,right,60e5f4ebca9d0e7a4305231f,001,2021-08-09_07h17.44.390,arrow_simon_norep,2021.1.2,Win32,143.5750179,,,,,,,,,,,,,,,,,,,,,o,0,1.7291,24,TRUE,FALSE,5,3,23,1,1,,,,,,,
,,,,,,0,2.417552673,#a3d0fb,,right_blue.png,o,,,,,,o,right_blue.png,right_orange.png,p,left,60e5f4ebca9d0e7a4305231f,001,2021-08-09_07h17.44.390,arrow_simon_norep,2021.1.2,Win32,143.5750179,,,,,,,,,,,,,,,,,,,,,p,0,2.1184,25,TRUE,FALSE,6,0,24,0,1,,,,,,,
,,,,,,0,1.991846215,#f3af84,,right_orange.png,p,,,,,,o,right_blue.png,right_orange.png,p,left,60e5f4ebca9d0e7a4305231f,001,2021-08-09_07h17.44.390,arrow_simon_norep,2021.1.2,Win32,143.5750179,,,,,,,,,,,,,,,,,,,,,p,1,1.8729,26,TRUE,FALSE,6,1,25,0,1,,,,,,,
,,,,,,0,1.776769497,#a3d0fb,,left_blue.png,w,,,,,,w,left_blue.png,left_orange.png,q,left,60e5f4ebca9d0e7a4305231f,001,2021-08-09_07h17.44.390,arrow_simon_norep,2021.1.2,Win32,143.5750179,,,,,,,,,,,,,,,,,,,,,w,1,1.1634,27,FALSE,TRUE,6,2,26,2,1,,,,,,,
,,,,,,0,1.655074562,#f3af84,,right_orange.png,p,,,,,,o,right_blue.png,right_orange.png,p,right,60e5f4ebca9d0e7a4305231f,001,2021-08-09_07h17.44.390,arrow_simon_norep,2021.1.2,Win32,143.5750179,,,,,,,,,,,,,,,,,,,,,o,0,1.8401,28,TRUE,FALSE,6,3,27,1,1,,,,,,,
,,,,,,0,1.533074155,#a3d0fb,,right_blue.png,o,,,,,,o,right_blue.png,right_orange.png,p,left,60e5f4ebca9d0e7a4305231f,001,2021-08-09_07h17.44.390,arrow_simon_norep,2021.1.2,Win32,143.5750179,,,,,,,,,,,,,,,,,,,,,o,1,1.3123,29,FALSE,TRUE,7,0,28,0,1,,,,,,,
,,,,,,0,1.864823207,#f3af84,,right_orange.png,p,,,,,,o,right_blue.png,right_orange.png,p,right,60e5f4ebca9d0e7a4305231f,001,2021-08-09_07h17.44.390,arrow_simon_norep,2021.1.2,Win32,143.5750179,,,,,,,,,,,,,,,,,,,,,q,0,2.0633,30,TRUE,FALSE,7,1,29,1,1,,,,,,,
,,,,,,0,2.40686527,#a3d0fb,,right_blue.png,o,,,,,,o,right_blue.png,right_orange.png,p,left,60e5f4ebca9d0e7a4305231f,001,2021-08-09_07h17.44.390,arrow_simon_norep,2021.1.2,Win32,143.5750179,,,,,,,,,,,,,,,,,,,,,p,0,1.9868,31,TRUE,FALSE,7,2,30,0,1,,,,,,,
,,,,,,0,2.004252022,#f3af84,,right_orange.png,p,,,,,,o,right_blue.png,right_orange.png,p,right,60e5f4ebca9d0e7a4305231f,001,2021-08-09_07h17.44.390,arrow_simon_norep,2021.1.2,Win32,143.5750179,,,,,,,,,,,,,,,,,,,,,p,1,2.033,32,TRUE,FALSE,7,3,31,1,1,,,,,,,
,,,,,,0,2.248572016,#a3d0fb,,right_blue.png,o,,,,,,o,right_blue.png,right_orange.png,p,right,60e5f4ebca9d0e7a4305231f,001,2021-08-09_07h17.44.390,arrow_simon_norep,2021.1.2,Win32,143.5750179,,,,,,,,,,,,,,,,,,,,,o,1,1.6144,33,TRUE,FALSE,8,0,32,1,1,,,,,,,
,,,,,,0,1.771343603,#f3af84,,right_orange.png,p,,,,,,o,right_blue.png,right_orange.png,p,left,60e5f4ebca9d0e7a4305231f,001,2021-08-09_07h17.44.390,arrow_simon_norep,2021.1.2,Win32,143.5750179,,,,,,,,,,,,,,,,,,,,,p,1,2.1618,34,TRUE,FALSE,8,1,33,0,1,,,,,,,
,,,,,,0,2.388886284,#a3d0fb,,right_blue.png,o,,,,,,o,right_blue.png,right_orange.png,p,right,60e5f4ebca9d0e7a4305231f,001,2021-08-09_07h17.44.390,arrow_simon_norep,2021.1.2,Win32,143.5750179,,,,,,,,,,,,,,,,,,,,,w,0,2.0159,35,TRUE,FALSE,8,2,34,1,1,,,,,,,
,,,,,,0,2.059142755,#f3af84,,left_orange.png,q,,,,,,w,left_blue.png,left_orange.png,q,left,60e5f4ebca9d0e7a4305231f,001,2021-08-09_07h17.44.390,arrow_simon_norep,2021.1.2,Win32,143.5750179,,,,,,,,,,,,,,,,,,,,,w,0,2.0696,36,TRUE,FALSE,8,3,35,2,1,,,,,,,
,,,,,,0,1.826919161,#a3d0fb,,left_blue.png,w,,,,,,w,left_blue.png,left_orange.png,q,right,60e5f4ebca9d0e7a4305231f,001,2021-08-09_07h17.44.390,arrow_simon_norep,2021.1.2,Win32,143.5750179,,,,,,,,,,,,,,,,,,,,,p,0,1.2434,37,FALSE,TRUE,9,0,36,3,1,,,,,,,
,,,,,,0,2.499627307,#f3af84,,left_orange.png,q,,,,,,w,left_blue.png,left_orange.png,q,right,60e5f4ebca9d0e7a4305231f,001,2021-08-09_07h17.44.390,arrow_simon_norep,2021.1.2,Win32,143.5750179,,,,,,,,,,,,,,,,,,,,,w,0,1.7526,38,TRUE,FALSE,9,1,37,3,1,,,,,,,
,,,,,,0,1.899977386,#a3d0fb,,right_blue.png,o,,,,,,o,right_blue.png,right_orange.png,p,left,60e5f4ebca9d0e7a4305231f,001,2021-08-09_07h17.44.390,arrow_simon_norep,2021.1.2,Win32,143.5750179,,,,,,,,,,,,,,,,,,,,,o,1,1.8895,39,TRUE,FALSE,9,2,38,0,1,,,,,,,
,,,,,,0,1.749222486,#f3af84,,right_orange.png,p,,,,,,o,right_blue.png,right_orange.png,p,left,60e5f4ebca9d0e7a4305231f,001,2021-08-09_07h17.44.390,arrow_simon_norep,2021.1.2,Win32,143.5750179,,,,,,,,,,,,,,,,,,,,,p,1,1.6179,40,TRUE,FALSE,9,3,39,0,1,,,,,,,
,,,,,,0,1.857880892,#a3d0fb,,left_blue.png,w,,,,,,w,left_blue.png,left_orange.png,q,right,60e5f4ebca9d0e7a4305231f,001,2021-08-09_07h17.44.390,arrow_simon_norep,2021.1.2,Win32,143.5750179,,,,,,,,,,,,,,,,,,,,,q,0,2.0426,41,TRUE,FALSE,10,0,40,3,1,,,,,,,
,,,,,,0,1.770783478,#f3af84,,right_orange.png,p,,,,,,o,right_blue.png,right_orange.png,p,left,60e5f4ebca9d0e7a4305231f,001,2021-08-09_07h17.44.390,arrow_simon_norep,2021.1.2,Win32,143.5750179,,,,,,,,,,,,,,,,,,,,,o,0,1.1863,42,FALSE,TRUE,10,1,41,0,1,,,,,,,
,,,,,,1,2.196325594,#a3d0fb,,right_blue.png,o,,,,,,o,right_blue.png,right_orange.png,p,right,60e5f4ebca9d0e7a4305231f,001,2021-08-09_07h17.44.390,arrow_simon_norep,2021.1.2,Win32,143.5750179,,,,,,,,,,,,,,,,,,,,,p,0,1.5611,43,FALSE,FALSE,10,2,42,1,1,,,,,,,
,,,,,,1,2.458341015,#f3af84,,right_orange.png,p,,,,,,o,right_blue.png,right_orange.png,p,right,60e5f4ebca9d0e7a4305231f,001,2021-08-09_07h17.44.390,arrow_simon_norep,2021.1.2,Win32,143.5750179,,,,,,,,,,,,,,,,,,,,,p,1,2.1529,44,TRUE,FALSE,10,3,43,1,1,,,,,,,
,,,,,,1,1.678790741,#a3d0fb,,left_blue.png,w,,,,,,w,left_blue.png,left_orange.png,q,left,60e5f4ebca9d0e7a4305231f,001,2021-08-09_07h17.44.390,arrow_simon_norep,2021.1.2,Win32,143.5750179,,,,,,,,,,,,,,,,,,,,,w,1,1.0146,45,FALSE,TRUE,11,0,44,2,1,,,,,,,
,,,,,,1,2.042981617,#f3af84,,right_orange.png,p,,,,,,o,right_blue.png,right_orange.png,p,right,60e5f4ebca9d0e7a4305231f,001,2021-08-09_07h17.44.390,arrow_simon_norep,2021.1.2,Win32,143.5750179,,,,,,,,,,,,,,,,,,,,,o,0,1.8838,46,TRUE,FALSE,11,1,45,1,1,,,,,,,
,,,,,,1,2.384344271,#a3d0fb,,left_blue.png,w,,,,,,w,left_blue.png,left_orange.png,q,left,60e5f4ebca9d0e7a4305231f,001,2021-08-09_07h17.44.390,arrow_simon_norep,2021.1.2,Win32,143.5750179,,,,,,,,,,,,,,,,,,,,,q,0,1.9679,47,TRUE,FALSE,11,2,46,2,1,,,,,,,
,,,,,,1,2.486418685,#f3af84,,right_orange.png,p,,,,,,o,right_blue.png,right_orange.png,p,right,60e5f4ebca9d0e7a4305231f,001,2021-08-09_07h17.44.390,arrow_simon_norep,2021.1.2,Win32,143.5750179,,,,,,,,,,,,,,,,,,,,,p,1,1.9825,48,TRUE,FALSE,11,3,47,1,1,,,,,,,
,,,,,,1,2.218277282,#a3d0fb,,right_blue.png,o,,,,,,o,right_blue.png,right_orange.png,p,left,60e5f4ebca9d0e7a4305231f,001,2021-08-09_07h17.44.390,arrow_simon_norep,2021.1.2,Win32,143.5750179,,,,,,,,,,,,,,,,,,,,,p,0,1.9529,49,TRUE,FALSE,12,0,48,0,1,,,,,,,
,,,,,,1,2.307773251,#f3af84,,right_orange.png,p,,,,,,o,right_blue.png,right_orange.png,p,right,60e5f4ebca9d0e7a4305231f,001,2021-08-09_07h17.44.390,arrow_simon_norep,2021.1.2,Win32,143.5750179,,,,,,,,,,,,,,,,,,,,,p,1,2.0426,50,TRUE,FALSE,12,1,49,1,1,,,,,,,
,,,,,,1,2.476490242,#a3d0fb,,left_blue.png,w,,,,,,w,left_blue.png,left_orange.png,q,left,60e5f4ebca9d0e7a4305231f,001,2021-08-09_07h17.44.390,arrow_simon_norep,2021.1.2,Win32,143.5750179,,,,,,,,,,,,,,,,,,,,,w,1,2.1263,51,TRUE,FALSE,12,2,50,2,1,,,,,,,
,,,,,,1,2.035465306,#f3af84,,left_orange.png,q,,,,,,w,left_blue.png,left_orange.png,q,right,60e5f4ebca9d0e7a4305231f,001,2021-08-09_07h17.44.390,arrow_simon_norep,2021.1.2,Win32,143.5750179,,,,,,,,,,,,,,,,,,,,,o,0,2.4606,52,TRUE,FALSE,12,3,51,3,1,,,,,,,
,,,,,,1,2.477667204,#a3d0fb,,left_blue.png,w,,,,,,w,left_blue.png,left_orange.png,q,left,60e5f4ebca9d0e7a4305231f,001,2021-08-09_07h17.44.390,arrow_simon_norep,2021.1.2,Win32,143.5750179,,,,,,,,,,,,,,,,,,,,,q,0,2.0857,53,TRUE,FALSE,13,0,52,2,1,,,,,,,
,,,,,,1,1.580265577,#f3af84,,left_orange.png,q,,,,,,w,left_blue.png,left_orange.png,q,right,60e5f4ebca9d0e7a4305231f,001,2021-08-09_07h17.44.390,arrow_simon_norep,2021.1.2,Win32,143.5750179,,,,,,,,,,,,,,,,,,,,,q,1,1.625,54,TRUE,FALSE,13,1,53,3,1,,,,,,,
,,,,,,1,2.375461506,#a3d0fb,,right_blue.png,o,,,,,,o,right_blue.png,right_orange.png,p,right,60e5f4ebca9d0e7a4305231f,001,2021-08-09_07h17.44.390,arrow_simon_norep,2021.1.2,Win32,143.5750179,,,,,,,,,,,,,,,,,,,,,o,1,1.6601,55,TRUE,FALSE,13,2,54,1,1,,,,,,,
,,,,,,1,1.551470693,#f3af84,,left_orange.png,q,,,,,,w,left_blue.png,left_orange.png,q,left,60e5f4ebca9d0e7a4305231f,001,2021-08-09_07h17.44.390,arrow_simon_norep,2021.1.2,Win32,143.5750179,,,,,,,,,,,,,,,,,,,,,q,1,1.1383,56,FALSE,TRUE,13,3,55,2,1,,,,,,,
,,,,,,1,2.159408128,#a3d0fb,,right_blue.png,o,,,,,,o,right_blue.png,right_orange.png,p,left,60e5f4ebca9d0e7a4305231f,001,2021-08-09_07h17.44.390,arrow_simon_norep,2021.1.2,Win32,143.5750179,,,,,,,,,,,,,,,,,,,,,p,0,1.9096,57,TRUE,FALSE,14,0,56,0,1,,,,,,,
,,,,,,1,1.934987558,#f3af84,,left_orange.png,q,,,,,,w,left_blue.png,left_orange.png,q,left,60e5f4ebca9d0e7a4305231f,001,2021-08-09_07h17.44.390,arrow_simon_norep,2021.1.2,Win32,143.5750179,,,,,,,,,,,,,,,,,,,,,w,0,1.9584,58,TRUE,FALSE,14,1,57,2,1,,,,,,,
,,,,,,1,1.587856057,#a3d0fb,,right_blue.png,o,,,,,,o,right_blue.png,right_orange.png,p,left,60e5f4ebca9d0e7a4305231f,001,2021-08-09_07h17.44.390,arrow_simon_norep,2021.1.2,Win32,143.5750179,,,,,,,,,,,,,,,,,,,,,p,0,1.8752,59,TRUE,FALSE,14,2,58,0,1,,,,,,,
,,,,,,1,1.918207903,#f3af84,,left_orange.png,q,,,,,,w,left_blue.png,left_orange.png,q,right,60e5f4ebca9d0e7a4305231f,001,2021-08-09_07h17.44.390,arrow_simon_norep,2021.1.2,Win32,143.5750179,,,,,,,,,,,,,,,,,,,,,w,0,1.6537,60,TRUE,FALSE,14,3,59,3,1,,,,,,,
,,,,,,,,,,,,,,,,,,,,,,60e5f4ebca9d0e7a4305231f,001,2021-08-09_07h17.44.390,arrow_simon_norep,2021.1.2,Win32,143.5750179,,,,,,,,,,,,,,,,,,,,,,,,,,,,,,,,space,80.3193,0,0,0,0,1
,,,,,,1,2.316504883,#a3d0fb,,left_blue.png,w,,,,,,w,left_blue.png,left_orange.png,q,right,60e5f4ebca9d0e7a4305231f,001,2021-08-09_07h17.44.390,arrow_simon_norep,2021.1.2,Win32,143.5750179,,,,,,,,,,,,,,,,,,,,,p,0,1.606,1,TRUE,FALSE,0,0,0,3,1,,,,,,,
,,,,,,1,1.637691102,#f3af84,,right_orange.png,p,,,,,,o,right_blue.png,right_orange.png,p,right,60e5f4ebca9d0e7a4305231f,001,2021-08-09_07h17.44.390,arrow_simon_norep,2021.1.2,Win32,143.5750179,,,,,,,,,,,,,,,,,,,,,p,1,1.0355,2,FALSE,TRUE,0,1,1,1,1,,,,,,,
,,,,,,1,2.09177233,#a3d0fb,,left_blue.png,w,,,,,,w,left_blue.png,left_orange.png,q,left,60e5f4ebca9d0e7a4305231f,001,2021-08-09_07h17.44.390,arrow_simon_norep,2021.1.2,Win32,143.5750179,,,,,,,,,,,,,,,,,,,,,q,0,1.3898,3,FALSE,TRUE,0,2,2,2,1,,,,,,,
,,,,,,1,1.643096893,#f3af84,,right_orange.png,p,,,,,,o,right_blue.png,right_orange.png,p,right,60e5f4ebca9d0e7a4305231f,001,2021-08-09_07h17.44.390,arrow_simon_norep,2021.1.2,Win32,143.5750179,,,,,,,,,,,,,,,,,,,,,o,0,1.0093,4,FALSE,TRUE,0,3,3,1,1,,,,,,,
,,,,,,1,2.357524826,#a3d0fb,,left_blue.png,w,,,,,,w,left_blue.png,left_orange.png,q,right,60e5f4ebca9d0e7a4305231f,001,2021-08-09_07h17.44.390,arrow_simon_norep,2021.1.2,Win32,143.5750179,,,,,,,,,,,,,,,,,,,,,q,0,1.959,5,TRUE,FALSE,1,0,4,3,1,,,,,,,
,,,,,,1,1.609452323,#f3af84,,right_orange.png,p,,,,,,o,right_blue.png,right_orange.png,p,right,60e5f4ebca9d0e7a4305231f,001,2021-08-09_07h17.44.390,arrow_simon_norep,2021.1.2,Win32,143.5750179,,,,,,,,,,,,,,,,,,,,,p,1,1.0691,6,FALSE,TRUE,1,1,5,1,1,,,,,,,
,,,,,,1,2.442076545,#a3d0fb,,left_blue.png,w,,,,,,w,left_blue.png,left_orange.png,q,left,60e5f4ebca9d0e7a4305231f,001,2021-08-09_07h17.44.390,arrow_simon_norep,2021.1.2,Win32,143.5750179,,,,,,,,,,,,,,,,,,,,,q,0,1.9818,7,TRUE,FALSE,1,2,6,2,1,,,,,,,
,,,,,,1,1.91168904,#f3af84,,right_orange.png,p,,,,,,o,right_blue.png,right_orange.png,p,left,60e5f4ebca9d0e7a4305231f,001,2021-08-09_07h17.44.390,arrow_simon_norep,2021.1.2,Win32,143.5750179,,,,,,,,,,,,,,,,,,,,,p,1,1.9378,8,TRUE,FALSE,1,3,7,0,1,,,,,,,
,,,,,,1,2.020216128,#a3d0fb,,left_blue.png,w,,,,,,w,left_blue.png,left_orange.png,q,right,60e5f4ebca9d0e7a4305231f,001,2021-08-09_07h17.44.390,arrow_simon_norep,2021.1.2,Win32,143.5750179,,,,,,,,,,,,,,,,,,,,,q,0,1.6694,9,TRUE,FALSE,2,0,8,3,1,,,,,,,
,,,,,,1,2.396091233,#f3af84,,left_orange.png,q,,,,,,w,left_blue.png,left_orange.png,q,right,60e5f4ebca9d0e7a4305231f,001,2021-08-09_07h17.44.390,arrow_simon_norep,2021.1.2,Win32,143.5750179,,,,,,,,,,,,,,,,,,,,,w,0,1.9813,10,TRUE,FALSE,2,1,9,3,1,,,,,,,
,,,,,,1,1.654554665,#a3d0fb,,right_blue.png,o,,,,,,o,right_blue.png,right_orange.png,p,left,60e5f4ebca9d0e7a4305231f,001,2021-08-09_07h17.44.390,arrow_simon_norep,2021.1.2,Win32,143.5750179,,,,,,,,,,,,,,,,,,,,,p,0,1.8893,11,TRUE,FALSE,2,2,10,0,1,,,,,,,
,,,,,,1,2.264749597,#f3af84,,left_orange.png,q,,,,,,w,left_blue.png,left_orange.png,q,right,60e5f4ebca9d0e7a4305231f,001,2021-08-09_07h17.44.390,arrow_simon_norep,2021.1.2,Win32,143.5750179,,,,,,,,,,,,,,,,,,,,,q,1,1.9857,12,TRUE,FALSE,2,3,11,3,1,,,,,,,
,,,,,,1,2.461206964,#a3d0fb,,right_blue.png,o,,,,,,o,right_blue.png,right_orange.png,p,left,60e5f4ebca9d0e7a4305231f,001,2021-08-09_07h17.44.390,arrow_simon_norep,2021.1.2,Win32,143.5750179,,,,,,,,,,,,,,,,,,,,,p,0,2.0292,13,TRUE,FALSE,3,0,12,0,1,,,,,,,
,,,,,,1,2.376199382,#f3af84,,right_orange.png,p,,,,,,o,right_blue.png,right_orange.png,p,right,60e5f4ebca9d0e7a4305231f,001,2021-08-09_07h17.44.390,arrow_simon_norep,2021.1.2,Win32,143.5750179,,,,,,,,,,,,,,,,,,,,,w,0,1.6952,14,TRUE,FALSE,3,1,13,1,1,,,,,,,
,,,,,,1,2.268393431,#a3d0fb,,right_blue.png,o,,,,,,o,right_blue.png,right_orange.png,p,right,60e5f4ebca9d0e7a4305231f,001,2021-08-09_07h17.44.390,arrow_simon_norep,2021.1.2,Win32,143.5750179,,,,,,,,,,,,,,,,,,,,,p,0,1.6994,15,TRUE,FALSE,3,2,14,1,1,,,,,,,
,,,,,,1,1.649476879,#f3af84,,right_orange.png,p,,,,,,o,right_blue.png,right_orange.png,p,right,60e5f4ebca9d0e7a4305231f,001,2021-08-09_07h17.44.390,arrow_simon_norep,2021.1.2,Win32,143.5750179,,,,,,,,,,,,,,,,,,,,,q,0,1.8647,16,TRUE,FALSE,3,3,15,1,1,,,,,,,
,,,,,,1,2.2572435,#a3d0fb,,right_blue.png,o,,,,,,o,right_blue.png,right_orange.png,p,right,60e5f4ebca9d0e7a4305231f,001,2021-08-09_07h17.44.390,arrow_simon_norep,2021.1.2,Win32,143.5750179,,,,,,,,,,,,,,,,,,,,,p,0,2.0239,17,TRUE,FALSE,4,0,16,1,1,,,,,,,
,,,,,,1,2.221430116,#f3af84,,right_orange.png,p,,,,,,o,right_blue.png,right_orange.png,p,left,60e5f4ebca9d0e7a4305231f,001,2021-08-09_07h17.44.390,arrow_simon_norep,2021.1.2,Win32,143.5750179,,,,,,,,,,,,,,,,,,,,,q,0,1.5297,18,FALSE,FALSE,4,1,17,0,1,,,,,,,
,,,,,,1,2.453877198,#a3d0fb,,left_blue.png,w,,,,,,w,left_blue.png,left_orange.png,q,right,60e5f4ebca9d0e7a4305231f,001,2021-08-09_07h17.44.390,arrow_simon_norep,2021.1.2,Win32,143.5750179,,,,,,,,,,,,,,,,,,,,,q,0,2.157,19,TRUE,FALSE,4,2,18,3,1,,,,,,,
,,,,,,1,1.548723751,#f3af84,,right_orange.png,p,,,,,,o,right_blue.png,right_orange.png,p,right,60e5f4ebca9d0e7a4305231f,001,2021-08-09_07h17.44.390,arrow_simon_norep,2021.1.2,Win32,143.5750179,,,,,,,,,,,,,,,,,,,,,p,1,2.1807,20,TRUE,FALSE,4,3,19,1,1,,,,,,,
,,,,,,1,2.095354155,#a3d0fb,,right_blue.png,o,,,,,,o,right_blue.png,right_orange.png,p,right,60e5f4ebca9d0e7a4305231f,001,2021-08-09_07h17.44.390,arrow_simon_norep,2021.1.2,Win32,143.5750179,,,,,,,,,,,,,,,,,,,,,p,0,2.2645,21,TRUE,FALSE,5,0,20,1,1,,,,,,,
,,,,,,1,2.175753177,#f3af84,,right_orange.png,p,,,,,,o,right_blue.png,right_orange.png,p,right,60e5f4ebca9d0e7a4305231f,001,2021-08-09_07h17.44.390,arrow_simon_norep,2021.1.2,Win32,143.5750179,,,,,,,,,,,,,,,,,,,,,q,0,2.3405,22,TRUE,FALSE,5,1,21,1,1,,,,,,,
,,,,,,1,1.586533215,#a3d0fb,,right_blue.png,o,,,,,,o,right_blue.png,right_orange.png,p,left,60e5f4ebca9d0e7a4305231f,001,2021-08-09_07h17.44.390,arrow_simon_norep,2021.1.2,Win32,143.5750179,,,,,,,,,,,,,,,,,,,,,w,0,1.9464,23,TRUE,FALSE,5,2,22,0,1,,,,,,,
,,,,,,1,1.525701903,#f3af84,,left_orange.png,q,,,,,,w,left_blue.png,left_orange.png,q,left,60e5f4ebca9d0e7a4305231f,001,2021-08-09_07h17.44.390,arrow_simon_norep,2021.1.2,Win32,143.5750179,,,,,,,,,,,,,,,,,,,,,q,1,2.036,24,TRUE,FALSE,5,3,23,2,1,,,,,,,
,,,,,,1,2.313747002,#a3d0fb,,right_blue.png,o,,,,,,o,right_blue.png,right_orange.png,p,left,60e5f4ebca9d0e7a4305231f,001,2021-08-09_07h17.44.390,arrow_simon_norep,2021.1.2,Win32,143.5750179,,,,,,,,,,,,,,,,,,,,,p,0,2.1149,25,TRUE,FALSE,6,0,24,0,1,,,,,,,
,,,,,,1,2.223359923,#f3af84,,left_orange.png,q,,,,,,w,left_blue.png,left_orange.png,q,left,60e5f4ebca9d0e7a4305231f,001,2021-08-09_07h17.44.390,arrow_simon_norep,2021.1.2,Win32,143.5750179,,,,,,,,,,,,,,,,,,,,,q,1,2.3063,26,TRUE,FALSE,6,1,25,2,1,,,,,,,
,,,,,,1,1.581415011,#a3d0fb,,right_blue.png,o,,,,,,o,right_blue.png,right_orange.png,p,left,60e5f4ebca9d0e7a4305231f,001,2021-08-09_07h17.44.390,arrow_simon_norep,2021.1.2,Win32,143.5750179,,,,,,,,,,,,,,,,,,,,,w,0,2.2896,27,TRUE,FALSE,6,2,26,0,1,,,,,,,
,,,,,,1,2.413674146,#f3af84,,right_orange.png,p,,,,,,o,right_blue.png,right_orange.png,p,left,60e5f4ebca9d0e7a4305231f,001,2021-08-09_07h17.44.390,arrow_simon_norep,2021.1.2,Win32,143.5750179,,,,,,,,,,,,,,,,,,,,,o,0,2.4242,28,TRUE,FALSE,6,3,27,0,1,,,,,,,
,,,,,,1,1.968642453,#a3d0fb,,right_blue.png,o,,,,,,o,right_blue.png,right_orange.png,p,left,60e5f4ebca9d0e7a4305231f,001,2021-08-09_07h17.44.390,arrow_simon_norep,2021.1.2,Win32,143.5750179,,,,,,,,,,,,,,,,,,,,,p,0,2.0361,29,TRUE,FALSE,7,0,28,0,1,,,,,,,
,,,,,,1,1.872869697,#f3af84,,left_orange.png,q,,,,,,w,left_blue.png,left_orange.png,q,left,60e5f4ebca9d0e7a4305231f,001,2021-08-09_07h17.44.390,arrow_simon_norep,2021.1.2,Win32,143.5750179,,,,,,,,,,,,,,,,,,,,,q,1,2.0111,30,TRUE,FALSE,7,1,29,2,1,,,,,,,
,,,,,,1,1.543837386,#a3d0fb,,left_blue.png,w,,,,,,w,left_blue.png,left_orange.png,q,left,60e5f4ebca9d0e7a4305231f,001,2021-08-09_07h17.44.390,arrow_simon_norep,2021.1.2,Win32,143.5750179,,,,,,,,,,,,,,,,,,,,,w,1,2.0875,31,TRUE,FALSE,7,2,30,2,1,,,,,,,
,,,,,,1,2.106383792,#f3af84,,right_orange.png,p,,,,,,o,right_blue.png,right_orange.png,p,left,60e5f4ebca9d0e7a4305231f,001,2021-08-09_07h17.44.390,arrow_simon_norep,2021.1.2,Win32,143.5750179,,,,,,,,,,,,,,,,,,,,,o,0,1.9102,32,TRUE,FALSE,7,3,31,0,1,,,,,,,
,,,,,,1,1.808883286,#a3d0fb,,left_blue.png,w,,,,,,w,left_blue.png,left_orange.png,q,right,60e5f4ebca9d0e7a4305231f,001,2021-08-09_07h17.44.390,arrow_simon_norep,2021.1.2,Win32,143.5750179,,,,,,,,,,,,,,,,,,,,,w,1,2.0716,33,TRUE,FALSE,8,0,32,3,1,,,,,,,
,,,,,,1,2.013805448,#f3af84,,left_orange.png,q,,,,,,w,left_blue.png,left_orange.png,q,right,60e5f4ebca9d0e7a4305231f,001,2021-08-09_07h17.44.390,arrow_simon_norep,2021.1.2,Win32,143.5750179,,,,,,,,,,,,,,,,,,,,,w,0,1.8284,34,TRUE,FALSE,8,1,33,3,1,,,,,,,
,,,,,,1,1.615588742,#a3d0fb,,left_blue.png,w,,,,,,w,left_blue.png,left_orange.png,q,right,60e5f4ebca9d0e7a4305231f,001,2021-08-09_07h17.44.390,arrow_simon_norep,2021.1.2,Win32,143.5750179,,,,,,,,,,,,,,,,,,,,,w,1,1.996,35,TRUE,FALSE,8,2,34,3,1,,,,,,,
,,,,,,1,1.717471006,#f3af84,,right_orange.png,p,,,,,,o,right_blue.png,right_orange.png,p,right,60e5f4ebca9d0e7a4305231f,001,2021-08-09_07h17.44.390,arrow_simon_norep,2021.1.2,Win32,143.5750179,,,,,,,,,,,,,,,,,,,,,o,0,2.2154,36,TRUE,FALSE,8,3,35,1,1,,,,,,,
,,,,,,1,2.00349406,#a3d0fb,,left_blue.png,w,,,,,,w,left_blue.png,left_orange.png,q,right,60e5f4ebca9d0e7a4305231f,001,2021-08-09_07h17.44.390,arrow_simon_norep,2021.1.2,Win32,143.5750179,,,,,,,,,,,,,,,,,,,,,o,0,1.243,37,FALSE,TRUE,9,0,36,3,1,,,,,,,
,,,,,,1,1.593336734,#f3af84,,right_orange.png,p,,,,,,o,right_blue.png,right_orange.png,p,right,60e5f4ebca9d0e7a4305231f,001,2021-08-09_07h17.44.390,arrow_simon_norep,2021.1.2,Win32,143.5750179,,,,,,,,,,,,,,,,,,,,,o,0,1.0004,38,FALSE,TRUE,9,1,37,1,1,,,,,,,
,,,,,,1,1.859485521,#a3d0fb,,left_blue.png,w,,,,,,w,left_blue.png,left_orange.png,q,right,60e5f4ebca9d0e7a4305231f,001,2021-08-09_07h17.44.390,arrow_simon_norep,2021.1.2,Win32,143.5750179,,,,,,,,,,,,,,,,,,,,,w,1,2.0425,39,TRUE,FALSE,9,2,38,3,1,,,,,,,
,,,,,,1,1.517768497,#f3af84,,left_orange.png,q,,,,,,w,left_blue.png,left_orange.png,q,right,60e5f4ebca9d0e7a4305231f,001,2021-08-09_07h17.44.390,arrow_simon_norep,2021.1.2,Win32,143.5750179,,,,,,,,,,,,,,,,,,,,,w,0,1.6439,40,TRUE,FALSE,9,3,39,3,1,,,,,,,
,,,,,,1,2.241959306,#a3d0fb,,left_blue.png,w,,,,,,w,left_blue.png,left_orange.png,q,right,60e5f4ebca9d0e7a4305231f,001,2021-08-09_07h17.44.390,arrow_simon_norep,2021.1.2,Win32,143.5750179,,,,,,,,,,,,,,,,,,,,,w,1,1.9618,41,TRUE,FALSE,10,0,40,3,1,,,,,,,
,,,,,,1,2.25421645,#f3af84,,left_orange.png,q,,,,,,w,left_blue.png,left_orange.png,q,left,60e5f4ebca9d0e7a4305231f,001,2021-08-09_07h17.44.390,arrow_simon_norep,2021.1.2,Win32,143.5750179,,,,,,,,,,,,,,,,,,,,,q,1,2.1601,42,TRUE,FALSE,10,1,41,2,1,,,,,,,
,,,,,,1,2.449664151,#a3d0fb,,left_blue.png,w,,,,,,w,left_blue.png,left_orange.png,q,left,60e5f4ebca9d0e7a4305231f,001,2021-08-09_07h17.44.390,arrow_simon_norep,2021.1.2,Win32,143.5750179,,,,,,,,,,,,,,,,,,,,,q,0,2.1323,43,TRUE,FALSE,10,2,42,2,1,,,,,,,
,,,,,,1,1.721720869,#f3af84,,left_orange.png,q,,,,,,w,left_blue.png,left_orange.png,q,left,60e5f4ebca9d0e7a4305231f,001,2021-08-09_07h17.44.390,arrow_simon_norep,2021.1.2,Win32,143.5750179,,,,,,,,,,,,,,,,,,,,,w,0,1.2396,44,FALSE,TRUE,10,3,43,2,1,,,,,,,
,,,,,,1,1.737130529,#a3d0fb,,right_blue.png,o,,,,,,o,right_blue.png,right_orange.png,p,right,60e5f4ebca9d0e7a4305231f,001,2021-08-09_07h17.44.390,arrow_simon_norep,2021.1.2,Win32,143.5750179,,,,,,,,,,,,,,,,,,,,,o,1,1.625,45,TRUE,FALSE,11,0,44,1,1,,,,,,,
,,,,,,1,2.269384619,#f3af84,,right_orange.png,p,,,,,,o,right_blue.png,right_orange.png,p,right,60e5f4ebca9d0e7a4305231f,001,2021-08-09_07h17.44.390,arrow_simon_norep,2021.1.2,Win32,143.5750179,,,,,,,,,,,,,,,,,,,,,o,0,1.9934,46,TRUE,FALSE,11,1,45,1,1,,,,,,,
,,,,,,1,1.787005741,#a3d0fb,,left_blue.png,w,,,,,,w,left_blue.png,left_orange.png,q,left,60e5f4ebca9d0e7a4305231f,001,2021-08-09_07h17.44.390,arrow_simon_norep,2021.1.2,Win32,143.5750179,,,,,,,,,,,,,,,,,,,,,q,0,2.3617,47,TRUE,FALSE,11,2,46,2,1,,,,,,,
,,,,,,1,1.883388481,#f3af84,,right_orange.png,p,,,,,,o,right_blue.png,right_orange.png,p,left,60e5f4ebca9d0e7a4305231f,001,2021-08-09_07h17.44.390,arrow_simon_norep,2021.1.2,Win32,143.5750179,,,,,,,,,,,,,,,,,,,,,w,0,2.5762,48,TRUE,FALSE,11,3,47,0,1,,,,,,,
,,,,,,1,2.200372171,#a3d0fb,,left_blue.png,w,,,,,,w,left_blue.png,left_orange.png,q,left,60e5f4ebca9d0e7a4305231f,001,2021-08-09_07h17.44.390,arrow_simon_norep,2021.1.2,Win32,143.5750179,,,,,,,,,,,,,,,,,,,,,w,1,2.1894,49,TRUE,FALSE,12,0,48,2,1,,,,,,,
,,,,,,1,2.16594692,#f3af84,,left_orange.png,q,,,,,,w,left_blue.png,left_orange.png,q,left,60e5f4ebca9d0e7a4305231f,001,2021-08-09_07h17.44.390,arrow_simon_norep,2021.1.2,Win32,143.5750179,,,,,,,,,,,,,,,,,,,,,q,1,2.2292,50,TRUE,FALSE,12,1,49,2,1,,,,,,,
,,,,,,1,2.482824676,#a3d0fb,,left_blue.png,w,,,,,,w,left_blue.png,left_orange.png,q,right,60e5f4ebca9d0e7a4305231f,001,2021-08-09_07h17.44.390,arrow_simon_norep,2021.1.2,Win32,143.5750179,,,,,,,,,,,,,,,,,,,,,w,1,2.2919,51,TRUE,FALSE,12,2,50,3,1,,,,,,,
,,,,,,1,2.15338358,#f3af84,,left_orange.png,q,,,,,,w,left_blue.png,left_orange.png,q,left,60e5f4ebca9d0e7a4305231f,001,2021-08-09_07h17.44.390,arrow_simon_norep,2021.1.2,Win32,143.5750179,,,,,,,,,,,,,,,,,,,,,w,0,2.3593,52,TRUE,FALSE,12,3,51,2,1,,,,,,,
,,,,,,1,2.23423126,#a3d0fb,,left_blue.png,w,,,,,,w,left_blue.png,left_orange.png,q,left,60e5f4ebca9d0e7a4305231f,001,2021-08-09_07h17.44.390,arrow_simon_norep,2021.1.2,Win32,143.5750179,,,,,,,,,,,,,,,,,,,,,w,1,1.7477,53,TRUE,FALSE,13,0,52,2,1,,,,,,,
,,,,,,1,2.030888458,#f3af84,,right_orange.png,p,,,,,,o,right_blue.png,right_orange.png,p,right,60e5f4ebca9d0e7a4305231f,001,2021-08-09_07h17.44.390,arrow_simon_norep,2021.1.2,Win32,143.5750179,,,,,,,,,,,,,,,,,,,,,o,0,1.9045,54,TRUE,FALSE,13,1,53,1,1,,,,,,,
,,,,,,1,2.229810278,#a3d0fb,,right_blue.png,o,,,,,,o,right_blue.png,right_orange.png,p,left,60e5f4ebca9d0e7a4305231f,001,2021-08-09_07h17.44.390,arrow_simon_norep,2021.1.2,Win32,143.5750179,,,,,,,,,,,,,,,,,,,,,o,1,1.9518,55,TRUE,FALSE,13,2,54,0,1,,,,,,,
,,,,,,1,1.618162526,#f3af84,,right_orange.png,p,,,,,,o,right_blue.png,right_orange.png,p,left,60e5f4ebca9d0e7a4305231f,001,2021-08-09_07h17.44.390,arrow_simon_norep,2021.1.2,Win32,143.5750179,,,,,,,,,,,,,,,,,,,,,o,0,2.0261,56,TRUE,FALSE,13,3,55,0,1,,,,,,,
,,,,,,1,1.664266304,#a3d0fb,,right_blue.png,o,,,,,,o,right_blue.png,right_orange.png,p,left,60e5f4ebca9d0e7a4305231f,001,2021-08-09_07h17.44.390,arrow_simon_norep,2021.1.2,Win32,143.5750179,,,,,,,,,,,,,,,,,,,,,p,0,2.3752,57,TRUE,FALSE,14,0,56,0,1,,,,,,,
,,,,,,1,2.035627091,#f3af84,,left_orange.png,q,,,,,,w,left_blue.png,left_orange.png,q,right,60e5f4ebca9d0e7a4305231f,001,2021-08-09_07h17.44.390,arrow_simon_norep,2021.1.2,Win32,143.5750179,,,,,,,,,,,,,,,,,,,,,q,1,1.6406,58,TRUE,FALSE,14,1,57,3,1,,,,,,,
,,,,,,1,2.066199896,#a3d0fb,,right_blue.png,o,,,,,,o,right_blue.png,right_orange.png,p,left,60e5f4ebca9d0e7a4305231f,001,2021-08-09_07h17.44.390,arrow_simon_norep,2021.1.2,Win32,143.5750179,,,,,,,,,,,,,,,,,,,,,p,0,2.2263,59,TRUE,FALSE,14,2,58,0,1,,,,,,,
,,,,,,1,2.160003148,#f3af84,,left_orange.png,q,,,,,,w,left_blue.png,left_orange.png,q,left,60e5f4ebca9d0e7a4305231f,001,2021-08-09_07h17.44.390,arrow_simon_norep,2021.1.2,Win32,143.5750179,,,,,,,,,,,,,,,,,,,,,w,0,1.9999,60,TRUE,FALSE,14,3,59,2,1,,,,,,,
,,,,,,,,,,,,,,,,,,,,,,60e5f4ebca9d0e7a4305231f,001,2021-08-09_07h17.44.390,arrow_simon_norep,2021.1.2,Win32,143.5750179,,,,,,,,,,,,,,,,,,,,,,,,,,,,,,,,space,36.2708,1,0,1,0,1
,,,,,,1,2.207562821,#a3d0fb,,right_blue.png,o,,,,,,o,right_blue.png,right_orange.png,p,left,60e5f4ebca9d0e7a4305231f,001,2021-08-09_07h17.44.390,arrow_simon_norep,2021.1.2,Win32,143.5750179,,,,,,,,,,,,,,,,,,,,,q,0,1.7152,1,TRUE,FALSE,0,0,0,0,1,,,,,,,
,,,,,,1,1.875790055,#f3af84,,left_orange.png,q,,,,,,w,left_blue.png,left_orange.png,q,right,60e5f4ebca9d0e7a4305231f,001,2021-08-09_07h17.44.390,arrow_simon_norep,2021.1.2,Win32,143.5750179,,,,,,,,,,,,,,,,,,,,,o,0,1.3752,2,FALSE,TRUE,0,1,1,3,1,,,,,,,
,,,,,,1,1.619009668,#a3d0fb,,left_blue.png,w,,,,,,w,left_blue.png,left_orange.png,q,left,60e5f4ebca9d0e7a4305231f,001,2021-08-09_07h17.44.390,arrow_simon_norep,2021.1.2,Win32,143.5750179,,,,,,,,,,,,,,,,,,,,,w,1,1.0216,3,FALSE,TRUE,0,2,2,2,1,,,,,,,
,,,,,,1,1.883590783,#f3af84,,right_orange.png,p,,,,,,o,right_blue.png,right_orange.png,p,right,60e5f4ebca9d0e7a4305231f,001,2021-08-09_07h17.44.390,arrow_simon_norep,2021.1.2,Win32,143.5750179,,,,,,,,,,,,,,,,,,,,,p,1,1.396,4,FALSE,TRUE,0,3,3,1,1,,,,,,,
,,,,,,1,2.497108278,#a3d0fb,,left_blue.png,w,,,,,,w,left_blue.png,left_orange.png,q,left,60e5f4ebca9d0e7a4305231f,001,2021-08-09_07h17.44.390,arrow_simon_norep,2021.1.2,Win32,143.5750179,,,,,,,,,,,,,,,,,,,,,q,0,1.8069,5,TRUE,FALSE,1,0,4,2,1,,,,,,,
,,,,,,0,2.137163715,#f3af84,,right_orange.png,p,,,,,,o,right_blue.png,right_orange.png,p,right,60e5f4ebca9d0e7a4305231f,001,2021-08-09_07h17.44.390,arrow_simon_norep,2021.1.2,Win32,143.5750179,,,,,,,,,,,,,,,,,,,,,p,1,1.4245,6,FALSE,FALSE,1,1,5,1,1,,,,,,,
,,,,,,0,2.381326624,#a3d0fb,,right_blue.png,o,,,,,,o,right_blue.png,right_orange.png,p,right,60e5f4ebca9d0e7a4305231f,001,2021-08-09_07h17.44.390,arrow_simon_norep,2021.1.2,Win32,143.5750179,,,,,,,,,,,,,,,,,,,,,p,0,1.7954,7,TRUE,FALSE,1,2,6,1,1,,,,,,,
,,,,,,0,2.372824052,#f3af84,,left_orange.png,q,,,,,,w,left_blue.png,left_orange.png,q,left,60e5f4ebca9d0e7a4305231f,001,2021-08-09_07h17.44.390,arrow_simon_norep,2021.1.2,Win32,143.5750179,,,,,,,,,,,,,,,,,,,,,q,1,1.7156,8,TRUE,FALSE,1,3,7,2,1,,,,,,,
,,,,,,0,1.921017724,#a3d0fb,,left_blue.png,w,,,,,,w,left_blue.png,left_orange.png,q,right,60e5f4ebca9d0e7a4305231f,001,2021-08-09_07h17.44.390,arrow_simon_norep,2021.1.2,Win32,143.5750179,,,,,,,,,,,,,,,,,,,,,w,1,1.7223,9,TRUE,FALSE,2,0,8,3,1,,,,,,,
,,,,,,0,1.514282686,#f3af84,,right_orange.png,p,,,,,,o,right_blue.png,right_orange.png,p,right,60e5f4ebca9d0e7a4305231f,001,2021-08-09_07h17.44.390,arrow_simon_norep,2021.1.2,Win32,143.5750179,,,,,,,,,,,,,,,,,,,,,p,1,1.9051,10,TRUE,FALSE,2,1,9,1,1,,,,,,,
,,,,,,0,2.430908068,#a3d0fb,,left_blue.png,w,,,,,,w,left_blue.png,left_orange.png,q,right,60e5f4ebca9d0e7a4305231f,001,2021-08-09_07h17.44.390,arrow_simon_norep,2021.1.2,Win32,143.5750179,,,,,,,,,,,,,,,,,,,,,w,1,1.9853,11,TRUE,FALSE,2,2,10,3,1,,,,,,,
,,,,,,0,2.140425611,#f3af84,,left_orange.png,q,,,,,,w,left_blue.png,left_orange.png,q,left,60e5f4ebca9d0e7a4305231f,001,2021-08-09_07h17.44.390,arrow_simon_norep,2021.1.2,Win32,143.5750179,,,,,,,,,,,,,,,,,,,,,w,0,2.5215,12,TRUE,FALSE,2,3,11,2,1,,,,,,,
,,,,,,0,1.539176802,#a3d0fb,,right_blue.png,o,,,,,,o,right_blue.png,right_orange.png,p,left,60e5f4ebca9d0e7a4305231f,001,2021-08-09_07h17.44.390,arrow_simon_norep,2021.1.2,Win32,143.5750179,,,,,,,,,,,,,,,,,,,,,o,1,1.8209,13,TRUE,FALSE,3,0,12,0,1,,,,,,,
,,,,,,0,1.570885775,#f3af84,,right_orange.png,p,,,,,,o,right_blue.png,right_orange.png,p,left,60e5f4ebca9d0e7a4305231f,001,2021-08-09_07h17.44.390,arrow_simon_norep,2021.1.2,Win32,143.5750179,,,,,,,,,,,,,,,,,,,,,q,0,1.9649,14,TRUE,FALSE,3,1,13,0,1,,,,,,,
,,,,,,0,1.849487476,#a3d0fb,,right_blue.png,o,,,,,,o,right_blue.png,right_orange.png,p,left,60e5f4ebca9d0e7a4305231f,001,2021-08-09_07h17.44.390,arrow_simon_norep,2021.1.2,Win32,143.5750179,,,,,,,,,,,,,,,,,,,,,o,1,1.6813,15,TRUE,FALSE,3,2,14,0,1,,,,,,,
,,,,,,0,2.176498955,#f3af84,,right_orange.png,p,,,,,,o,right_blue.png,right_orange.png,p,right,60e5f4ebca9d0e7a4305231f,001,2021-08-09_07h17.44.390,arrow_simon_norep,2021.1.2,Win32,143.5750179,,,,,,,,,,,,,,,,,,,,,p,1,1.7401,16,TRUE,FALSE,3,3,15,1,1,,,,,,,
,,,,,,0,2.268247678,#a3d0fb,,right_blue.png,o,,,,,,o,right_blue.png,right_orange.png,p,left,60e5f4ebca9d0e7a4305231f,001,2021-08-09_07h17.44.390,arrow_simon_norep,2021.1.2,Win32,143.5750179,,,,,,,,,,,,,,,,,,,,,w,0,1.6442,17,TRUE,FALSE,4,0,16,0,1,,,,,,,
,,,,,,0,2.015057078,#f3af84,,right_orange.png,p,,,,,,o,right_blue.png,right_orange.png,p,left,60e5f4ebca9d0e7a4305231f,001,2021-08-09_07h17.44.390,arrow_simon_norep,2021.1.2,Win32,143.5750179,,,,,,,,,,,,,,,,,,,,,p,1,1.6768,18,TRUE,FALSE,4,1,17,0,1,,,,,,,
,,,,,,0,1.920457202,#a3d0fb,,right_blue.png,o,,,,,,o,right_blue.png,right_orange.png,p,left,60e5f4ebca9d0e7a4305231f,001,2021-08-09_07h17.44.390,arrow_simon_norep,2021.1.2,Win32,143.5750179,,,,,,,,,,,,,,,,,,,,,o,1,2.4864,19,TRUE,FALSE,4,2,18,0,1,,,,,,,
,,,,,,0,2.408080112,#f3af84,,right_orange.png,p,,,,,,o,right_blue.png,right_orange.png,p,right,60e5f4ebca9d0e7a4305231f,001,2021-08-09_07h17.44.390,arrow_simon_norep,2021.1.2,Win32,143.5750179,,,,,,,,,,,,,,,,,,,,,o,0,2.229,20,TRUE,FALSE,4,3,19,1,1,,,,,,,
,,,,,,0,1.61626021,#a3d0fb,,left_blue.png,w,,,,,,w,left_blue.png,left_orange.png,q,left,60e5f4ebca9d0e7a4305231f,001,2021-08-09_07h17.44.390,arrow_simon_norep,2021.1.2,Win32,143.5750179,,,,,,,,,,,,,,,,,,,,,q,0,1.8275,21,TRUE,FALSE,5,0,20,2,1,,,,,,,
,,,,,,0,2.368730198,#f3af84,,left_orange.png,q,,,,,,w,left_blue.png,left_orange.png,q,right,60e5f4ebca9d0e7a4305231f,001,2021-08-09_07h17.44.390,arrow_simon_norep,2021.1.2,Win32,143.5750179,,,,,,,,,,,,,,,,,,,,,q,1,1.9241,22,TRUE,FALSE,5,1,21,3,1,,,,,,,
,,,,,,0,1.692913422,#a3d0fb,,left_blue.png,w,,,,,,w,left_blue.png,left_orange.png,q,right,60e5f4ebca9d0e7a4305231f,001,2021-08-09_07h17.44.390,arrow_simon_norep,2021.1.2,Win32,143.5750179,,,,,,,,,,,,,,,,,,,,,p,0,1.118,23,FALSE,TRUE,5,2,22,3,1,,,,,,,
,,,,,,0,2.138769355,#f3af84,,right_orange.png,p,,,,,,o,right_blue.png,right_orange.png,p,left,60e5f4ebca9d0e7a4305231f,001,2021-08-09_07h17.44.390,arrow_simon_norep,2021.1.2,Win32,143.5750179,,,,,,,,,,,,,,,,,,,,,o,0,1.8271,24,TRUE,FALSE,5,3,23,0,1,,,,,,,
,,,,,,0,2.495741997,#a3d0fb,,right_blue.png,o,,,,,,o,right_blue.png,right_orange.png,p,right,60e5f4ebca9d0e7a4305231f,001,2021-08-09_07h17.44.390,arrow_simon_norep,2021.1.2,Win32,143.5750179,,,,,,,,,,,,,,,,,,,,,p,0,2.016,25,TRUE,FALSE,6,0,24,1,1,,,,,,,
,,,,,,0,1.910185543,#f3af84,,right_orange.png,p,,,,,,o,right_blue.png,right_orange.png,p,left,60e5f4ebca9d0e7a4305231f,001,2021-08-09_07h17.44.390,arrow_simon_norep,2021.1.2,Win32,143.5750179,,,,,,,,,,,,,,,,,,,,,o,0,1.8509,26,TRUE,FALSE,6,1,25,0,1,,,,,,,
,,,,,,0,1.776270361,#a3d0fb,,right_blue.png,o,,,,,,o,right_blue.png,right_orange.png,p,right,60e5f4ebca9d0e7a4305231f,001,2021-08-09_07h17.44.390,arrow_simon_norep,2021.1.2,Win32,143.5750179,,,,,,,,,,,,,,,,,,,,,p,0,1.1811,27,FALSE,TRUE,6,2,26,1,1,,,,,,,
,,,,,,0,1.963678207,#f3af84,,right_orange.png,p,,,,,,o,right_blue.png,right_orange.png,p,left,60e5f4ebca9d0e7a4305231f,001,2021-08-09_07h17.44.390,arrow_simon_norep,2021.1.2,Win32,143.5750179,,,,,,,,,,,,,,,,,,,,,o,0,1.8699,28,TRUE,FALSE,6,3,27,0,1,,,,,,,
,,,,,,0,1.944875866,#a3d0fb,,right_blue.png,o,,,,,,o,right_blue.png,right_orange.png,p,right,60e5f4ebca9d0e7a4305231f,001,2021-08-09_07h17.44.390,arrow_simon_norep,2021.1.2,Win32,143.5750179,,,,,,,,,,,,,,,,,,,,,o,1,2.168,29,TRUE,FALSE,7,0,28,1,1,,,,,,,
,,,,,,0,2.267518294,#f3af84,,left_orange.png,q,,,,,,w,left_blue.png,left_orange.png,q,left,60e5f4ebca9d0e7a4305231f,001,2021-08-09_07h17.44.390,arrow_simon_norep,2021.1.2,Win32,143.5750179,,,,,,,,,,,,,,,,,,,,,q,1,2.6411,30,TRUE,FALSE,7,1,29,2,1,,,,,,,
,,,,,,0,2.028811103,#a3d0fb,,left_blue.png,w,,,,,,w,left_blue.png,left_orange.png,q,left,60e5f4ebca9d0e7a4305231f,001,2021-08-09_07h17.44.390,arrow_simon_norep,2021.1.2,Win32,143.5750179,,,,,,,,,,,,,,,,,,,,,q,0,2.6254,31,TRUE,FALSE,7,2,30,2,1,,,,,,,
,,,,,,0,2.284972907,#f3af84,,left_orange.png,q,,,,,,w,left_blue.png,left_orange.png,q,left,60e5f4ebca9d0e7a4305231f,001,2021-08-09_07h17.44.390,arrow_simon_norep,2021.1.2,Win32,143.5750179,,,,,,,,,,,,,,,,,,,,,q,1,2.0184,32,TRUE,FALSE,7,3,31,2,1,,,,,,,
,,,,,,0,2.229642243,#a3d0fb,,left_blue.png,w,,,,,,w,left_blue.png,left_orange.png,q,right,60e5f4ebca9d0e7a4305231f,001,2021-08-09_07h17.44.390,arrow_simon_norep,2021.1.2,Win32,143.5750179,,,,,,,,,,,,,,,,,,,,,w,1,2.4803,33,TRUE,FALSE,8,0,32,3,1,,,,,,,
,,,,,,0,1.855373014,#f3af84,,left_orange.png,q,,,,,,w,left_blue.png,left_orange.png,q,left,60e5f4ebca9d0e7a4305231f,001,2021-08-09_07h17.44.390,arrow_simon_norep,2021.1.2,Win32,143.5750179,,,,,,,,,,,,,,,,,,,,,q,1,2.4858,34,TRUE,FALSE,8,1,33,2,1,,,,,,,
,,,,,,0,2.086083599,#a3d0fb,,right_blue.png,o,,,,,,o,right_blue.png,right_orange.png,p,right,60e5f4ebca9d0e7a4305231f,001,2021-08-09_07h17.44.390,arrow_simon_norep,2021.1.2,Win32,143.5750179,,,,,,,,,,,,,,,,,,,,,o,1,2.0905,35,TRUE,FALSE,8,2,34,1,1,,,,,,,
,,,,,,0,2.265285457,#f3af84,,right_orange.png,p,,,,,,o,right_blue.png,right_orange.png,p,left,60e5f4ebca9d0e7a4305231f,001,2021-08-09_07h17.44.390,arrow_simon_norep,2021.1.2,Win32,143.5750179,,,,,,,,,,,,,,,,,,,,,p,1,2.0248,36,TRUE,FALSE,8,3,35,0,1,,,,,,,
,,,,,,1,1.518941334,#a3d0fb,,right_blue.png,o,,,,,,o,right_blue.png,right_orange.png,p,left,60e5f4ebca9d0e7a4305231f,001,2021-08-09_07h17.44.390,arrow_simon_norep,2021.1.2,Win32,143.5750179,,,,,,,,,,,,,,,,,,,,,p,0,1.5958,37,FALSE,FALSE,9,0,36,0,1,,,,,,,
,,,,,,1,1.873977049,#f3af84,,right_orange.png,p,,,,,,o,right_blue.png,right_orange.png,p,right,60e5f4ebca9d0e7a4305231f,001,2021-08-09_07h17.44.390,arrow_simon_norep,2021.1.2,Win32,143.5750179,,,,,,,,,,,,,,,,,,,,,o,0,1.9937,38,TRUE,FALSE,9,1,37,1,1,,,,,,,
,,,,,,1,1.629415438,#a3d0fb,,left_blue.png,w,,,,,,w,left_blue.png,left_orange.png,q,right,60e5f4ebca9d0e7a4305231f,001,2021-08-09_07h17.44.390,arrow_simon_norep,2021.1.2,Win32,143.5750179,,,,,,,,,,,,,,,,,,,,,q,0,1.9105,39,TRUE,FALSE,9,2,38,3,1,,,,,,,
,,,,,,1,1.79413798,#f3af84,,left_orange.png,q,,,,,,w,left_blue.png,left_orange.png,q,right,60e5f4ebca9d0e7a4305231f,001,2021-08-09_07h17.44.390,arrow_simon_norep,2021.1.2,Win32,143.5750179,,,,,,,,,,,,,,,,,,,,,w,0,1.9828,40,TRUE,FALSE,9,3,39,3,1,,,,,,,
,,,,,,1,2.153516534,#a3d0fb,,right_blue.png,o,,,,,,o,right_blue.png,right_orange.png,p,right,60e5f4ebca9d0e7a4305231f,001,2021-08-09_07h17.44.390,arrow_simon_norep,2021.1.2,Win32,143.5750179,,,,,,,,,,,,,,,,,,,,,p,0,1.6533,41,TRUE,FALSE,10,0,40,1,1,,,,,,,
,,,,,,1,2.236008316,#f3af84,,left_orange.png,q,,,,,,w,left_blue.png,left_orange.png,q,right,60e5f4ebca9d0e7a4305231f,001,2021-08-09_07h17.44.390,arrow_simon_norep,2021.1.2,Win32,143.5750179,,,,,,,,,,,,,,,,,,,,,w,0,1.9866,42,TRUE,FALSE,10,1,41,3,1,,,,,,,
,,,,,,1,1.89969552,#a3d0fb,,left_blue.png,w,,,,,,w,left_blue.png,left_orange.png,q,left,60e5f4ebca9d0e7a4305231f,001,2021-08-09_07h17.44.390,arrow_simon_norep,2021.1.2,Win32,143.5750179,,,,,,,,,,,,,,,,,,,,,q,0,1.57,43,FALSE,FALSE,10,2,42,2,1,,,,,,,
,,,,,,1,1.870170111,#f3af84,,right_orange.png,p,,,,,,o,right_blue.png,right_orange.png,p,left,60e5f4ebca9d0e7a4305231f,001,2021-08-09_07h17.44.390,arrow_simon_norep,2021.1.2,Win32,143.5750179,,,,,,,,,,,,,,,,,,,,,p,1,2.0833,44,TRUE,FALSE,10,3,43,0,1,,,,,,,
,,,,,,1,2.421677734,#a3d0fb,,left_blue.png,w,,,,,,w,left_blue.png,left_orange.png,q,right,60e5f4ebca9d0e7a4305231f,001,2021-08-09_07h17.44.390,arrow_simon_norep,2021.1.2,Win32,143.5750179,,,,,,,,,,,,,,,,,,,,,w,1,2.3876,45,TRUE,FALSE,11,0,44,3,1,,,,,,,
,,,,,,1,1.995103084,#f3af84,,left_orange.png,q,,,,,,w,left_blue.png,left_orange.png,q,right,60e5f4ebca9d0e7a4305231f,001,2021-08-09_07h17.44.390,arrow_simon_norep,2021.1.2,Win32,143.5750179,,,,,,,,,,,,,,,,,,,,,w,0,2.1602,46,TRUE,FALSE,11,1,45,3,1,,,,,,,
,,,,,,1,2.427265036,#a3d0fb,,left_blue.png,w,,,,,,w,left_blue.png,left_orange.png,q,left,60e5f4ebca9d0e7a4305231f,001,2021-08-09_07h17.44.390,arrow_simon_norep,2021.1.2,Win32,143.5750179,,,,,,,,,,,,,,,,,,,,,q,0,1.9934,47,TRUE,FALSE,11,2,46,2,1,,,,,,,
,,,,,,1,1.914340184,#f3af84,,left_orange.png,q,,,,,,w,left_blue.png,left_orange.png,q,left,60e5f4ebca9d0e7a4305231f,001,2021-08-09_07h17.44.390,arrow_simon_norep,2021.1.2,Win32,143.5750179,,,,,,,,,,,,,,,,,,,,,o,0,2.2679,48,TRUE,FALSE,11,3,47,2,1,,,,,,,
,,,,,,1,2.358812699,#a3d0fb,,left_blue.png,w,,,,,,w,left_blue.png,left_orange.png,q,left,60e5f4ebca9d0e7a4305231f,001,2021-08-09_07h17.44.390,arrow_simon_norep,2021.1.2,Win32,143.5750179,,,,,,,,,,,,,,,,,,,,,q,0,1.8609,49,TRUE,FALSE,12,0,48,2,1,,,,,,,
,,,,,,1,1.929291074,#f3af84,,right_orange.png,p,,,,,,o,right_blue.png,right_orange.png,p,right,60e5f4ebca9d0e7a4305231f,001,2021-08-09_07h17.44.390,arrow_simon_norep,2021.1.2,Win32,143.5750179,,,,,,,,,,,,,,,,,,,,,w,0,1.8905,50,TRUE,FALSE,12,1,49,1,1,,,,,,,
,,,,,,1,2.100490214,#a3d0fb,,left_blue.png,w,,,,,,w,left_blue.png,left_orange.png,q,right,60e5f4ebca9d0e7a4305231f,001,2021-08-09_07h17.44.390,arrow_simon_norep,2021.1.2,Win32,143.5750179,,,,,,,,,,,,,,,,,,,,,o,0,1.9799,51,TRUE,FALSE,12,2,50,3,1,,,,,,,
,,,,,,1,2.226756029,#f3af84,,right_orange.png,p,,,,,,o,right_blue.png,right_orange.png,p,right,60e5f4ebca9d0e7a4305231f,001,2021-08-09_07h17.44.390,arrow_simon_norep,2021.1.2,Win32,143.5750179,,,,,,,,,,,,,,,,,,,,,p,1,1.7045,52,TRUE,FALSE,12,3,51,1,1,,,,,,,
,,,,,,1,2.353928502,#a3d0fb,,left_blue.png,w,,,,,,w,left_blue.png,left_orange.png,q,right,60e5f4ebca9d0e7a4305231f,001,2021-08-09_07h17.44.390,arrow_simon_norep,2021.1.2,Win32,143.5750179,,,,,,,,,,,,,,,,,,,,,q,0,2.0661,53,TRUE,FALSE,13,0,52,3,1,,,,,,,
,,,,,,1,1.925120196,#f3af84,,right_orange.png,p,,,,,,o,right_blue.png,right_orange.png,p,left,60e5f4ebca9d0e7a4305231f,001,2021-08-09_07h17.44.390,arrow_simon_norep,2021.1.2,Win32,143.5750179,,,,,,,,,,,,,,,,,,,,,p,1,1.799,54,TRUE,FALSE,13,1,53,0,1,,,,,,,
,,,,,,1,2.240734477,#a3d0fb,,left_blue.png,w,,,,,,w,left_blue.png,left_orange.png,q,left,60e5f4ebca9d0e7a4305231f,001,2021-08-09_07h17.44.390,arrow_simon_norep,2021.1.2,Win32,143.5750179,,,,,,,,,,,,,,,,,,,,,q,0,1.9442,55,TRUE,FALSE,13,2,54,2,1,,,,,,,
,,,,,,1,1.631569354,#f3af84,,left_orange.png,q,,,,,,w,left_blue.png,left_orange.png,q,right,60e5f4ebca9d0e7a4305231f,001,2021-08-09_07h17.44.390,arrow_simon_norep,2021.1.2,Win32,143.5750179,,,,,,,,,,,,,,,,,,,,,w,0,1.9294,56,TRUE,FALSE,13,3,55,3,1,,,,,,,
,,,,,,1,2.354010819,#a3d0fb,,left_blue.png,w,,,,,,w,left_blue.png,left_orange.png,q,right,60e5f4ebca9d0e7a4305231f,001,2021-08-09_07h17.44.390,arrow_simon_norep,2021.1.2,Win32,143.5750179,,,,,,,,,,,,,,,,,,,,,w,1,2.049,57,TRUE,FALSE,14,0,56,3,1,,,,,,,
,,,,,,1,1.842427553,#f3af84,,left_orange.png,q,,,,,,w,left_blue.png,left_orange.png,q,left,60e5f4ebca9d0e7a4305231f,001,2021-08-09_07h17.44.390,arrow_simon_norep,2021.1.2,Win32,143.5750179,,,,,,,,,,,,,,,,,,,,,w,0,1.9399,58,TRUE,FALSE,14,1,57,2,1,,,,,,,
,,,,,,1,1.756788111,#a3d0fb,,right_blue.png,o,,,,,,o,right_blue.png,right_orange.png,p,left,60e5f4ebca9d0e7a4305231f,001,2021-08-09_07h17.44.390,arrow_simon_norep,2021.1.2,Win32,143.5750179,,,,,,,,,,,,,,,,,,,,,p,0,1.4949,59,FALSE,FALSE,14,2,58,0,1,,,,,,,
,,,,,,1,1.887050462,#f3af84,,right_orange.png,p,,,,,,o,right_blue.png,right_orange.png,p,right,60e5f4ebca9d0e7a4305231f,001,2021-08-09_07h17.44.390,arrow_simon_norep,2021.1.2,Win32,143.5750179,,,,,,,,,,,,,,,,,,,,,w,0,1.8961,60,TRUE,FALSE,14,3,59,1,1,,,,,,,
,,,,,,,,,,,,,,,,,,,,,,60e5f4ebca9d0e7a4305231f,001,2021-08-09_07h17.44.390,arrow_simon_norep,2021.1.2,Win32,143.5750179,,,,,,,,,,,,,,,,,,,,,,,,,,,,,,,,space,124.6534,2,0,2,0,1
,,,,,,1,1.500746359,#a3d0fb,,left_blue.png,w,,,,,,w,left_blue.png,left_orange.png,q,right,60e5f4ebca9d0e7a4305231f,001,2021-08-09_07h17.44.390,arrow_simon_norep,2021.1.2,Win32,143.5750179,,,,,,,,,,,,,,,,,,,,,q,0,1.0358,1,FALSE,TRUE,0,0,0,3,1,,,,,,,
,,,,,,1,2.303596616,#f3af84,,right_orange.png,p,,,,,,o,right_blue.png,right_orange.png,p,right,60e5f4ebca9d0e7a4305231f,001,2021-08-09_07h17.44.390,arrow_simon_norep,2021.1.2,Win32,143.5750179,,,,,,,,,,,,,,,,,,,,,p,1,1.9594,2,TRUE,FALSE,0,1,1,1,1,,,,,,,
,,,,,,1,1.710905942,#a3d0fb,,left_blue.png,w,,,,,,w,left_blue.png,left_orange.png,q,right,60e5f4ebca9d0e7a4305231f,001,2021-08-09_07h17.44.390,arrow_simon_norep,2021.1.2,Win32,143.5750179,,,,,,,,,,,,,,,,,,,,,w,1,1.028,3,FALSE,TRUE,0,2,2,3,1,,,,,,,
,,,,,,1,2.343344622,#f3af84,,right_orange.png,p,,,,,,o,right_blue.png,right_orange.png,p,left,60e5f4ebca9d0e7a4305231f,001,2021-08-09_07h17.44.390,arrow_simon_norep,2021.1.2,Win32,143.5750179,,,,,,,,,,,,,,,,,,,,,o,0,1.9524,4,TRUE,FALSE,0,3,3,0,1,,,,,,,
,,,,,,1,1.502954771,#a3d0fb,,right_blue.png,o,,,,,,o,right_blue.png,right_orange.png,p,left,60e5f4ebca9d0e7a4305231f,001,2021-08-09_07h17.44.390,arrow_simon_norep,2021.1.2,Win32,143.5750179,,,,,,,,,,,,,,,,,,,,,p,0,1.8373,5,TRUE,FALSE,1,0,4,0,1,,,,,,,
,,,,,,1,1.632620181,#f3af84,,left_orange.png,q,,,,,,w,left_blue.png,left_orange.png,q,right,60e5f4ebca9d0e7a4305231f,001,2021-08-09_07h17.44.390,arrow_simon_norep,2021.1.2,Win32,143.5750179,,,,,,,,,,,,,,,,,,,,,w,0,1.9238,6,TRUE,FALSE,1,1,5,3,1,,,,,,,
,,,,,,1,2.422696175,#a3d0fb,,left_blue.png,w,,,,,,w,left_blue.png,left_orange.png,q,left,60e5f4ebca9d0e7a4305231f,001,2021-08-09_07h17.44.390,arrow_simon_norep,2021.1.2,Win32,143.5750179,,,,,,,,,,,,,,,,,,,,,w,1,2.0695,7,TRUE,FALSE,1,2,6,2,1,,,,,,,
,,,,,,1,2.004434663,#f3af84,,left_orange.png,q,,,,,,w,left_blue.png,left_orange.png,q,left,60e5f4ebca9d0e7a4305231f,001,2021-08-09_07h17.44.390,arrow_simon_norep,2021.1.2,Win32,143.5750179,,,,,,,,,,,,,,,,,,,,,q,1,1.62,8,TRUE,FALSE,1,3,7,2,1,,,,,,,
,,,,,,1,1.965331593,#a3d0fb,,right_blue.png,o,,,,,,o,right_blue.png,right_orange.png,p,right,60e5f4ebca9d0e7a4305231f,001,2021-08-09_07h17.44.390,arrow_simon_norep,2021.1.2,Win32,143.5750179,,,,,,,,,,,,,,,,,,,,,p,0,2.1828,9,TRUE,FALSE,2,0,8,1,1,,,,,,,
,,,,,,1,1.973757723,#f3af84,,left_orange.png,q,,,,,,w,left_blue.png,left_orange.png,q,left,60e5f4ebca9d0e7a4305231f,001,2021-08-09_07h17.44.390,arrow_simon_norep,2021.1.2,Win32,143.5750179,,,,,,,,,,,,,,,,,,,,,q,1,1.8895,10,TRUE,FALSE,2,1,9,2,1,,,,,,,
,,,,,,1,2.192585939,#a3d0fb,,left_blue.png,w,,,,,,w,left_blue.png,left_orange.png,q,right,60e5f4ebca9d0e7a4305231f,001,2021-08-09_07h17.44.390,arrow_simon_norep,2021.1.2,Win32,143.5750179,,,,,,,,,,,,,,,,,,,,,o,0,1.7182,11,TRUE,FALSE,2,2,10,3,1,,,,,,,
,,,,,,1,1.859356524,#f3af84,,right_orange.png,p,,,,,,o,right_blue.png,right_orange.png,p,right,60e5f4ebca9d0e7a4305231f,001,2021-08-09_07h17.44.390,arrow_simon_norep,2021.1.2,Win32,143.5750179,,,,,,,,,,,,,,,,,,,,,p,1,2.6673,12,TRUE,FALSE,2,3,11,1,1,,,,,,,
,,,,,,1,1.940381447,#a3d0fb,,left_blue.png,w,,,,,,w,left_blue.png,left_orange.png,q,left,60e5f4ebca9d0e7a4305231f,001,2021-08-09_07h17.44.390,arrow_simon_norep,2021.1.2,Win32,143.5750179,,,,,,,,,,,,,,,,,,,,,q,0,1.9473,13,TRUE,FALSE,3,0,12,2,1,,,,,,,
,,,,,,1,2.29978956,#f3af84,,right_orange.png,p,,,,,,o,right_blue.png,right_orange.png,p,left,60e5f4ebca9d0e7a4305231f,001,2021-08-09_07h17.44.390,arrow_simon_norep,2021.1.2,Win32,143.5750179,,,,,,,,,,,,,,,,,,,,,o,0,1.9241,14,TRUE,FALSE,3,1,13,0,1,,,,,,,
,,,,,,1,2.162875518,#a3d0fb,,right_blue.png,o,,,,,,o,right_blue.png,right_orange.png,p,left,60e5f4ebca9d0e7a4305231f,001,2021-08-09_07h17.44.390,arrow_simon_norep,2021.1.2,Win32,143.5750179,,,,,,,,,,,,,,,,,,,,,o,1,1.7263,15,TRUE,FALSE,3,2,14,0,1,,,,,,,
,,,,,,1,1.895147443,#f3af84,,right_orange.png,p,,,,,,o,right_blue.png,right_orange.png,p,left,60e5f4ebca9d0e7a4305231f,001,2021-08-09_07h17.44.390,arrow_simon_norep,2021.1.2,Win32,143.5750179,,,,,,,,,,,,,,,,,,,,,o,0,1.8334,16,TRUE,FALSE,3,3,15,0,1,,,,,,,
,,,,,,1,2.095857597,#a3d0fb,,left_blue.png,w,,,,,,w,left_blue.png,left_orange.png,q,left,60e5f4ebca9d0e7a4305231f,001,2021-08-09_07h17.44.390,arrow_simon_norep,2021.1.2,Win32,143.5750179,,,,,,,,,,,,,,,,,,,,,q,0,1.9647,17,TRUE,FALSE,4,0,16,2,1,,,,,,,
,,,,,,1,2.168863932,#f3af84,,left_orange.png,q,,,,,,w,left_blue.png,left_orange.png,q,left,60e5f4ebca9d0e7a4305231f,001,2021-08-09_07h17.44.390,arrow_simon_norep,2021.1.2,Win32,143.5750179,,,,,,,,,,,,,,,,,,,,,w,0,2.1602,18,TRUE,FALSE,4,1,17,2,1,,,,,,,
,,,,,,1,1.519858856,#a3d0fb,,right_blue.png,o,,,,,,o,right_blue.png,right_orange.png,p,right,60e5f4ebca9d0e7a4305231f,001,2021-08-09_07h17.44.390,arrow_simon_norep,2021.1.2,Win32,143.5750179,,,,,,,,,,,,,,,,,,,,,o,1,1.1958,19,FALSE,TRUE,4,2,18,1,1,,,,,,,
,,,,,,1,2.065108778,#f3af84,,right_orange.png,p,,,,,,o,right_blue.png,right_orange.png,p,left,60e5f4ebca9d0e7a4305231f,001,2021-08-09_07h17.44.390,arrow_simon_norep,2021.1.2,Win32,143.5750179,,,,,,,,,,,,,,,,,,,,,o,0,1.6323,20,TRUE,FALSE,4,3,19,0,1,,,,,,,
,,,,,,1,2.033618293,#a3d0fb,,left_blue.png,w,,,,,,w,left_blue.png,left_orange.png,q,right,60e5f4ebca9d0e7a4305231f,001,2021-08-09_07h17.44.390,arrow_simon_norep,2021.1.2,Win32,143.5750179,,,,,,,,,,,,,,,,,,,,,q,0,1.7997,21,TRUE,FALSE,5,0,20,3,1,,,,,,,
,,,,,,1,2.284408418,#f3af84,,right_orange.png,p,,,,,,o,right_blue.png,right_orange.png,p,right,60e5f4ebca9d0e7a4305231f,001,2021-08-09_07h17.44.390,arrow_simon_norep,2021.1.2,Win32,143.5750179,,,,,,,,,,,,,,,,,,,,,p,1,1.7365,22,TRUE,FALSE,5,1,21,1,1,,,,,,,
,,,,,,1,2.24085293,#a3d0fb,,left_blue.png,w,,,,,,w,left_blue.png,left_orange.png,q,left,60e5f4ebca9d0e7a4305231f,001,2021-08-09_07h17.44.390,arrow_simon_norep,2021.1.2,Win32,143.5750179,,,,,,,,,,,,,,,,,,,,,w,1,2.0012,23,TRUE,FALSE,5,2,22,2,1,,,,,,,
,,,,,,1,2.17647274,#f3af84,,right_orange.png,p,,,,,,o,right_blue.png,right_orange.png,p,right,60e5f4ebca9d0e7a4305231f,001,2021-08-09_07h17.44.390,arrow_simon_norep,2021.1.2,Win32,143.5750179,,,,,,,,,,,,,,,,,,,,,w,0,2.1398,24,TRUE,FALSE,5,3,23,1,1,,,,,,,
,,,,,,1,2.03294339,#a3d0fb,,right_blue.png,o,,,,,,o,right_blue.png,right_orange.png,p,left,60e5f4ebca9d0e7a4305231f,001,2021-08-09_07h17.44.390,arrow_simon_norep,2021.1.2,Win32,143.5750179,,,,,,,,,,,,,,,,,,,,,w,0,1.7989,25,TRUE,FALSE,6,0,24,0,1,,,,,,,
,,,,,,1,2.198186352,#f3af84,,right_orange.png,p,,,,,,o,right_blue.png,right_orange.png,p,right,60e5f4ebca9d0e7a4305231f,001,2021-08-09_07h17.44.390,arrow_simon_norep,2021.1.2,Win32,143.5750179,,,,,,,,,,,,,,,,,,,,,p,1,2.0715,26,TRUE,FALSE,6,1,25,1,1,,,,,,,
,,,,,,1,2.020294465,#a3d0fb,,left_blue.png,w,,,,,,w,left_blue.png,left_orange.png,q,right,60e5f4ebca9d0e7a4305231f,001,2021-08-09_07h17.44.390,arrow_simon_norep,2021.1.2,Win32,143.5750179,,,,,,,,,,,,,,,,,,,,,q,0,2.3541,27,TRUE,FALSE,6,2,26,3,1,,,,,,,
,,,,,,1,1.666763151,#f3af84,,right_orange.png,p,,,,,,o,right_blue.png,right_orange.png,p,right,60e5f4ebca9d0e7a4305231f,001,2021-08-09_07h17.44.390,arrow_simon_norep,2021.1.2,Win32,143.5750179,,,,,,,,,,,,,,,,,,,,,o,0,1.9887,28,TRUE,FALSE,6,3,27,1,1,,,,,,,
,,,,,,1,2.381663661,#a3d0fb,,right_blue.png,o,,,,,,o,right_blue.png,right_orange.png,p,left,60e5f4ebca9d0e7a4305231f,001,2021-08-09_07h17.44.390,arrow_simon_norep,2021.1.2,Win32,143.5750179,,,,,,,,,,,,,,,,,,,,,o,1,2.1502,29,TRUE,FALSE,7,0,28,0,1,,,,,,,
,,,,,,1,1.751167557,#f3af84,,left_orange.png,q,,,,,,w,left_blue.png,left_orange.png,q,left,60e5f4ebca9d0e7a4305231f,001,2021-08-09_07h17.44.390,arrow_simon_norep,2021.1.2,Win32,143.5750179,,,,,,,,,,,,,,,,,,,,,w,0,2.0488,30,TRUE,FALSE,7,1,29,2,1,,,,,,,
,,,,,,1,2.454270895,#a3d0fb,,left_blue.png,w,,,,,,w,left_blue.png,left_orange.png,q,left,60e5f4ebca9d0e7a4305231f,001,2021-08-09_07h17.44.390,arrow_simon_norep,2021.1.2,Win32,143.5750179,,,,,,,,,,,,,,,,,,,,,w,1,1.9736,31,TRUE,FALSE,7,2,30,2,1,,,,,,,
,,,,,,1,2.162805486,#f3af84,,left_orange.png,q,,,,,,w,left_blue.png,left_orange.png,q,right,60e5f4ebca9d0e7a4305231f,001,2021-08-09_07h17.44.390,arrow_simon_norep,2021.1.2,Win32,143.5750179,,,,,,,,,,,,,,,,,,,,,w,0,2.3781,32,TRUE,FALSE,7,3,31,3,1,,,,,,,
,,,,,,1,2.423499608,#a3d0fb,,left_blue.png,w,,,,,,w,left_blue.png,left_orange.png,q,right,60e5f4ebca9d0e7a4305231f,001,2021-08-09_07h17.44.390,arrow_simon_norep,2021.1.2,Win32,143.5750179,,,,,,,,,,,,,,,,,,,,,w,1,2.0548,33,TRUE,FALSE,8,0,32,3,1,,,,,,,
,,,,,,1,2.31756216,#f3af84,,right_orange.png,p,,,,,,o,right_blue.png,right_orange.png,p,right,60e5f4ebca9d0e7a4305231f,001,2021-08-09_07h17.44.390,arrow_simon_norep,2021.1.2,Win32,143.5750179,,,,,,,,,,,,,,,,,,,,,o,0,2.4453,34,TRUE,FALSE,8,1,33,1,1,,,,,,,
,,,,,,1,1.756784499,#a3d0fb,,left_blue.png,w,,,,,,w,left_blue.png,left_orange.png,q,left,60e5f4ebca9d0e7a4305231f,001,2021-08-09_07h17.44.390,arrow_simon_norep,2021.1.2,Win32,143.5750179,,,,,,,,,,,,,,,,,,,,,q,0,1.8287,35,TRUE,FALSE,8,2,34,2,1,,,,,,,
,,,,,,1,1.976519782,#f3af84,,right_orange.png,p,,,,,,o,right_blue.png,right_orange.png,p,left,60e5f4ebca9d0e7a4305231f,001,2021-08-09_07h17.44.390,arrow_simon_norep,2021.1.2,Win32,143.5750179,,,,,,,,,,,,,,,,,,,,,p,1,1.9868,36,TRUE,FALSE,8,3,35,0,1,,,,,,,
,,,,,,1,2.033501464,#a3d0fb,,left_blue.png,w,,,,,,w,left_blue.png,left_orange.png,q,right,60e5f4ebca9d0e7a4305231f,001,2021-08-09_07h17.44.390,arrow_simon_norep,2021.1.2,Win32,143.5750179,,,,,,,,,,,,,,,,,,,,,w,1,2.8001,37,TRUE,FALSE,9,0,36,3,1,,,,,,,
,,,,,,1,2.416108508,#f3af84,,right_orange.png,p,,,,,,o,right_blue.png,right_orange.png,p,left,60e5f4ebca9d0e7a4305231f,001,2021-08-09_07h17.44.390,arrow_simon_norep,2021.1.2,Win32,143.5750179,,,,,,,,,,,,,,,,,,,,,o,0,2.3776,38,TRUE,FALSE,9,1,37,0,1,,,,,,,
,,,,,,1,1.854752147,#a3d0fb,,right_blue.png,o,,,,,,o,right_blue.png,right_orange.png,p,left,60e5f4ebca9d0e7a4305231f,001,2021-08-09_07h17.44.390,arrow_simon_norep,2021.1.2,Win32,143.5750179,,,,,,,,,,,,,,,,,,,,,p,0,1.8768,39,TRUE,FALSE,9,2,38,0,1,,,,,,,
,,,,,,1,2.021290815,#f3af84,,right_orange.png,p,,,,,,o,right_blue.png,right_orange.png,p,right,60e5f4ebca9d0e7a4305231f,001,2021-08-09_07h17.44.390,arrow_simon_norep,2021.1.2,Win32,143.5750179,,,,,,,,,,,,,,,,,,,,,w,0,1.9374,40,TRUE,FALSE,9,3,39,1,1,,,,,,,
,,,,,,1,1.777775415,#a3d0fb,,right_blue.png,o,,,,,,o,right_blue.png,right_orange.png,p,left,60e5f4ebca9d0e7a4305231f,001,2021-08-09_07h17.44.390,arrow_simon_norep,2021.1.2,Win32,143.5750179,,,,,,,,,,,,,,,,,,,,,o,1,1.938,41,TRUE,FALSE,10,0,40,0,1,,,,,,,
,,,,,,1,1.880114876,#f3af84,,right_orange.png,p,,,,,,o,right_blue.png,right_orange.png,p,right,60e5f4ebca9d0e7a4305231f,001,2021-08-09_07h17.44.390,arrow_simon_norep,2021.1.2,Win32,143.5750179,,,,,,,,,,,,,,,,,,,,,p,1,2.1258,42,TRUE,FALSE,10,1,41,1,1,,,,,,,
,,,,,,1,1.884703894,#a3d0fb,,right_blue.png,o,,,,,,o,right_blue.png,right_orange.png,p,right,60e5f4ebca9d0e7a4305231f,001,2021-08-09_07h17.44.390,arrow_simon_norep,2021.1.2,Win32,143.5750179,,,,,,,,,,,,,,,,,,,,,o,1,2.1703,43,TRUE,FALSE,10,2,42,1,1,,,,,,,
,,,,,,1,2.221156564,#f3af84,,right_orange.png,p,,,,,,o,right_blue.png,right_orange.png,p,right,60e5f4ebca9d0e7a4305231f,001,2021-08-09_07h17.44.390,arrow_simon_norep,2021.1.2,Win32,143.5750179,,,,,,,,,,,,,,,,,,,,,p,1,2.1624,44,TRUE,FALSE,10,3,43,1,1,,,,,,,
,,,,,,1,2.440929948,#a3d0fb,,left_blue.png,w,,,,,,w,left_blue.png,left_orange.png,q,left,60e5f4ebca9d0e7a4305231f,001,2021-08-09_07h17.44.390,arrow_simon_norep,2021.1.2,Win32,143.5750179,,,,,,,,,,,,,,,,,,,,,q,0,2.4099,45,TRUE,FALSE,11,0,44,2,1,,,,,,,
,,,,,,1,2.33743458,#f3af84,,left_orange.png,q,,,,,,w,left_blue.png,left_orange.png,q,right,60e5f4ebca9d0e7a4305231f,001,2021-08-09_07h17.44.390,arrow_simon_norep,2021.1.2,Win32,143.5750179,,,,,,,,,,,,,,,,,,,,,w,0,2.417,46,TRUE,FALSE,11,1,45,3,1,,,,,,,
,,,,,,1,2.06692202,#a3d0fb,,left_blue.png,w,,,,,,w,left_blue.png,left_orange.png,q,right,60e5f4ebca9d0e7a4305231f,001,2021-08-09_07h17.44.390,arrow_simon_norep,2021.1.2,Win32,143.5750179,,,,,,,,,,,,,,,,,,,,,o,0,1.2952,47,FALSE,TRUE,11,2,46,3,1,,,,,,,
,,,,,,0,2.141712026,#f3af84,,right_orange.png,p,,,,,,o,right_blue.png,right_orange.png,p,right,60e5f4ebca9d0e7a4305231f,001,2021-08-09_07h17.44.390,arrow_simon_norep,2021.1.2,Win32,143.5750179,,,,,,,,,,,,,,,,,,,,,p,1,1.5699,48,FALSE,FALSE,11,3,47,1,1,,,,,,,
,,,,,,0,1.54223403,#a3d0fb,,right_blue.png,o,,,,,,o,right_blue.png,right_orange.png,p,left,60e5f4ebca9d0e7a4305231f,001,2021-08-09_07h17.44.390,arrow_simon_norep,2021.1.2,Win32,143.5750179,,,,,,,,,,,,,,,,,,,,,p,0,2.0927,49,TRUE,FALSE,12,0,48,0,1,,,,,,,
,,,,,,0,2.333047539,#f3af84,,left_orange.png,q,,,,,,w,left_blue.png,left_orange.png,q,left,60e5f4ebca9d0e7a4305231f,001,2021-08-09_07h17.44.390,arrow_simon_norep,2021.1.2,Win32,143.5750179,,,,,,,,,,,,,,,,,,,,,q,1,1.91,50,TRUE,FALSE,12,1,49,2,1,,,,,,,
,,,,,,0,1.732305581,#a3d0fb,,left_blue.png,w,,,,,,w,left_blue.png,left_orange.png,q,left,60e5f4ebca9d0e7a4305231f,001,2021-08-09_07h17.44.390,arrow_simon_norep,2021.1.2,Win32,143.5750179,,,,,,,,,,,,,,,,,,,,,w,1,1.3404,51,FALSE,TRUE,12,2,50,2,1,,,,,,,
