instruct_resp_simon.keys,instruct_resp_simon.corr,instruct_resp_simon.rt,trial_resp_simon.keys,trial_resp_simon.corr,trial_resp_simon.rt,kerr,target_onset,target_color,target_pos,target_file,target_resp,trials_train_simon.thisRepN,trials_train_simon.thisTrialN,trials_train_simon.thisN,trials_train_simon.thisIndex,trials_train_simon.ran,odd_target_resp,odd_target_file,even_target_file,even_target_resp,target_side,participant,session,date,expName,psychopyVersion,OS,frameRate,train_block_note_resp.keys,train_block_note_resp.rt,blocks_train.thisRepN,blocks_train.thisTrialN,blocks_train.thisN,blocks_train.thisIndex,blocks_train.ran,instruct_resp_timing.keys,instruct_resp_timing.corr,instruct_resp_timing.rt,trial_resp_timing.keys,trial_resp_timing.rt,trials_train_timing.thisRepN,trials_train_timing.thisTrialN,trials_train_timing.thisN,trials_train_timing.thisIndex,trials_train_timing.ran,instruct_resp.keys,instruct_resp.corr,instruct_resp.rt,trial_resp.keys,trial_resp.corr,trial_resp.rt,too_slow,too_soon,trials.thisRepN,trials.thisTrialN,trials.thisN,trials.thisIndex,trials.ran,block_note_resp.keys,block_note_resp.rt,blocks.thisRepN,blocks.thisTrialN,blocks.thisN,blocks.thisIndex,blocks.ran
space,0,71.574,w,1,38.635,0,0.894753925,#a3d0fb,,left_blue.png,w,0,0,0,3,1,w,left_blue.png,left_orange.png,q,right,60ea8c3fff09d1cae3f2119c,001,2021-07-19_02h57.15.998,arrow_simon_norep,2021.1.2,Win32,54.2888165,,,,,,,,,,,,,,,,,,,,,,,,,,,,,,,,,,,,,
,,,w,0,15.833,1,0.144342453,#f3af84,,right_orange.png,p,0,1,1,1,1,o,right_blue.png,right_orange.png,p,right,60ea8c3fff09d1cae3f2119c,001,2021-07-19_02h57.15.998,arrow_simon_norep,2021.1.2,Win32,54.2888165,,,,,,,,,,,,,,,,,,,,,,,,,,,,,,,,,,,,,
,,,w,1,12.166,0,0.123690794,#a3d0fb,,left_blue.png,w,0,2,2,3,1,w,left_blue.png,left_orange.png,q,right,60ea8c3fff09d1cae3f2119c,001,2021-07-19_02h57.15.998,arrow_simon_norep,2021.1.2,Win32,54.2888165,,,,,,,,,,,,,,,,,,,,,,,,,,,,,,,,,,,,,
,,,w,0,7.547,1,0.664794867,#f3af84,,left_orange.png,q,0,3,3,2,1,w,left_blue.png,left_orange.png,q,left,60ea8c3fff09d1cae3f2119c,001,2021-07-19_02h57.15.998,arrow_simon_norep,2021.1.2,Win32,54.2888165,,,,,,,,,,,,,,,,,,,,,,,,,,,,,,,,,,,,,
,,,w,1,7.58,0,0.728665667,#a3d0fb,,left_blue.png,w,1,0,4,3,1,w,left_blue.png,left_orange.png,q,right,60ea8c3fff09d1cae3f2119c,001,2021-07-19_02h57.15.998,arrow_simon_norep,2021.1.2,Win32,54.2888165,,,,,,,,,,,,,,,,,,,,,,,,,,,,,,,,,,,,,
,,,o,0,2.248,1,0.176375508,#f3af84,,right_orange.png,p,1,1,5,0,1,o,right_blue.png,right_orange.png,p,left,60ea8c3fff09d1cae3f2119c,001,2021-07-19_02h57.15.998,arrow_simon_norep,2021.1.2,Win32,54.2888165,,,,,,,,,,,,,,,,,,,,,,,,,,,,,,,,,,,,,
,,,q,0,26.782,1,0.831662025,#a3d0fb,,left_blue.png,w,1,2,6,2,1,w,left_blue.png,left_orange.png,q,left,60ea8c3fff09d1cae3f2119c,001,2021-07-19_02h57.15.998,arrow_simon_norep,2021.1.2,Win32,54.2888165,,,,,,,,,,,,,,,,,,,,,,,,,,,,,,,,,,,,,
,,,q,1,11.794,0,0.853803462,#f3af84,,left_orange.png,q,1,3,7,2,1,w,left_blue.png,left_orange.png,q,left,60ea8c3fff09d1cae3f2119c,001,2021-07-19_02h57.15.998,arrow_simon_norep,2021.1.2,Win32,54.2888165,,,,,,,,,,,,,,,,,,,,,,,,,,,,,,,,,,,,,
,,,o,1,17.766,0,0.050609886,#a3d0fb,,right_blue.png,o,2,0,8,1,1,o,right_blue.png,right_orange.png,p,right,60ea8c3fff09d1cae3f2119c,001,2021-07-19_02h57.15.998,arrow_simon_norep,2021.1.2,Win32,54.2888165,,,,,,,,,,,,,,,,,,,,,,,,,,,,,,,,,,,,,
,,,p,1,19.274,0,0.080116456,#f3af84,,right_orange.png,p,2,1,9,1,1,o,right_blue.png,right_orange.png,p,right,60ea8c3fff09d1cae3f2119c,001,2021-07-19_02h57.15.998,arrow_simon_norep,2021.1.2,Win32,54.2888165,,,,,,,,,,,,,,,,,,,,,,,,,,,,,,,,,,,,,
,,,o,1,13.403,0,0.233722875,#a3d0fb,,right_blue.png,o,2,2,10,1,1,o,right_blue.png,right_orange.png,p,right,60ea8c3fff09d1cae3f2119c,001,2021-07-19_02h57.15.998,arrow_simon_norep,2021.1.2,Win32,54.2888165,,,,,,,,,,,,,,,,,,,,,,,,,,,,,,,,,,,,,
,,,q,1,28.48,0,0.230718705,#f3af84,,left_orange.png,q,2,3,11,3,1,w,left_blue.png,left_orange.png,q,right,60ea8c3fff09d1cae3f2119c,001,2021-07-19_02h57.15.998,arrow_simon_norep,2021.1.2,Win32,54.2888165,,,,,,,,,,,,,,,,,,,,,,,,,,,,,,,,,,,,,
,,,w,1,11.344,0,0.63533296,#a3d0fb,,left_blue.png,w,3,0,12,2,1,w,left_blue.png,left_orange.png,q,left,60ea8c3fff09d1cae3f2119c,001,2021-07-19_02h57.15.998,arrow_simon_norep,2021.1.2,Win32,54.2888165,,,,,,,,,,,,,,,,,,,,,,,,,,,,,,,,,,,,,
,,,q,1,8.393,0,0.046471966,#f3af84,,left_orange.png,q,3,1,13,3,1,w,left_blue.png,left_orange.png,q,right,60ea8c3fff09d1cae3f2119c,001,2021-07-19_02h57.15.998,arrow_simon_norep,2021.1.2,Win32,54.2888165,,,,,,,,,,,,,,,,,,,,,,,,,,,,,,,,,,,,,
,,,o,1,8.527,0,0.247292631,#a3d0fb,,right_blue.png,o,3,2,14,0,1,o,right_blue.png,right_orange.png,p,left,60ea8c3fff09d1cae3f2119c,001,2021-07-19_02h57.15.998,arrow_simon_norep,2021.1.2,Win32,54.2888165,,,,,,,,,,,,,,,,,,,,,,,,,,,,,,,,,,,,,
,,,p,1,5.832,0,0.656989797,#f3af84,,right_orange.png,p,3,3,15,0,1,o,right_blue.png,right_orange.png,p,left,60ea8c3fff09d1cae3f2119c,001,2021-07-19_02h57.15.998,arrow_simon_norep,2021.1.2,Win32,54.2888165,,,,,,,,,,,,,,,,,,,,,,,,,,,,,,,,,,,,,
,,,w,1,8.942,0,0.419381049,#a3d0fb,,left_blue.png,w,4,0,16,2,1,w,left_blue.png,left_orange.png,q,left,60ea8c3fff09d1cae3f2119c,001,2021-07-19_02h57.15.998,arrow_simon_norep,2021.1.2,Win32,54.2888165,,,,,,,,,,,,,,,,,,,,,,,,,,,,,,,,,,,,,
,,,q,1,7.004,0,0.84243334,#f3af84,,left_orange.png,q,4,1,17,2,1,w,left_blue.png,left_orange.png,q,left,60ea8c3fff09d1cae3f2119c,001,2021-07-19_02h57.15.998,arrow_simon_norep,2021.1.2,Win32,54.2888165,,,,,,,,,,,,,,,,,,,,,,,,,,,,,,,,,,,,,
,,,o,1,10.004,0,0.500451839,#a3d0fb,,right_blue.png,o,4,2,18,0,1,o,right_blue.png,right_orange.png,p,left,60ea8c3fff09d1cae3f2119c,001,2021-07-19_02h57.15.998,arrow_simon_norep,2021.1.2,Win32,54.2888165,,,,,,,,,,,,,,,,,,,,,,,,,,,,,,,,,,,,,
,,,p,1,9.239,0,0.732921018,#f3af84,,right_orange.png,p,4,3,19,0,1,o,right_blue.png,right_orange.png,p,left,60ea8c3fff09d1cae3f2119c,001,2021-07-19_02h57.15.998,arrow_simon_norep,2021.1.2,Win32,54.2888165,,,,,,,,,,,,,,,,,,,,,,,,,,,,,,,,,,,,,
,,,o,0,7.975,1,0.43959625,#a3d0fb,,left_blue.png,w,5,0,20,3,1,w,left_blue.png,left_orange.png,q,right,60ea8c3fff09d1cae3f2119c,001,2021-07-19_02h57.15.998,arrow_simon_norep,2021.1.2,Win32,54.2888165,,,,,,,,,,,,,,,,,,,,,,,,,,,,,,,,,,,,,
,,,q,1,9.524,0,0.388752276,#f3af84,,left_orange.png,q,5,1,21,2,1,w,left_blue.png,left_orange.png,q,left,60ea8c3fff09d1cae3f2119c,001,2021-07-19_02h57.15.998,arrow_simon_norep,2021.1.2,Win32,54.2888165,,,,,,,,,,,,,,,,,,,,,,,,,,,,,,,,,,,,,
,,,w,1,10.141,0,0.742683141,#a3d0fb,,left_blue.png,w,5,2,22,3,1,w,left_blue.png,left_orange.png,q,right,60ea8c3fff09d1cae3f2119c,001,2021-07-19_02h57.15.998,arrow_simon_norep,2021.1.2,Win32,54.2888165,,,,,,,,,,,,,,,,,,,,,,,,,,,,,,,,,,,,,
,,,q,1,5.713,0,0.485306824,#f3af84,,left_orange.png,q,5,3,23,3,1,w,left_blue.png,left_orange.png,q,right,60ea8c3fff09d1cae3f2119c,001,2021-07-19_02h57.15.998,arrow_simon_norep,2021.1.2,Win32,54.2888165,,,,,,,,,,,,,,,,,,,,,,,,,,,,,,,,,,,,,
,,,o,1,8.707,0,0.601036546,#a3d0fb,,right_blue.png,o,6,0,24,0,1,o,right_blue.png,right_orange.png,p,left,60ea8c3fff09d1cae3f2119c,001,2021-07-19_02h57.15.998,arrow_simon_norep,2021.1.2,Win32,54.2888165,,,,,,,,,,,,,,,,,,,,,,,,,,,,,,,,,,,,,
,,,p,1,7.663,0,0.188528802,#f3af84,,right_orange.png,p,6,1,25,1,1,o,right_blue.png,right_orange.png,p,right,60ea8c3fff09d1cae3f2119c,001,2021-07-19_02h57.15.998,arrow_simon_norep,2021.1.2,Win32,54.2888165,,,,,,,,,,,,,,,,,,,,,,,,,,,,,,,,,,,,,
,,,o,1,7.516,0,0.759414487,#a3d0fb,,right_blue.png,o,6,2,26,0,1,o,right_blue.png,right_orange.png,p,left,60ea8c3fff09d1cae3f2119c,001,2021-07-19_02h57.15.998,arrow_simon_norep,2021.1.2,Win32,54.2888165,,,,,,,,,,,,,,,,,,,,,,,,,,,,,,,,,,,,,
,,,p,1,24.168,0,0.501737039,#f3af84,,right_orange.png,p,6,3,27,0,1,o,right_blue.png,right_orange.png,p,left,60ea8c3fff09d1cae3f2119c,001,2021-07-19_02h57.15.998,arrow_simon_norep,2021.1.2,Win32,54.2888165,,,,,,,,,,,,,,,,,,,,,,,,,,,,,,,,,,,,,
,,,w,1,5.125,0,0.131619663,#a3d0fb,,left_blue.png,w,7,0,28,2,1,w,left_blue.png,left_orange.png,q,left,60ea8c3fff09d1cae3f2119c,001,2021-07-19_02h57.15.998,arrow_simon_norep,2021.1.2,Win32,54.2888165,,,,,,,,,,,,,,,,,,,,,,,,,,,,,,,,,,,,,
,,,q,1,5.843,0,0.916018253,#f3af84,,left_orange.png,q,7,1,29,3,1,w,left_blue.png,left_orange.png,q,right,60ea8c3fff09d1cae3f2119c,001,2021-07-19_02h57.15.998,arrow_simon_norep,2021.1.2,Win32,54.2888165,,,,,,,,,,,,,,,,,,,,,,,,,,,,,,,,,,,,,
,,,w,1,5.709,0,0.973015269,#a3d0fb,,left_blue.png,w,7,2,30,2,1,w,left_blue.png,left_orange.png,q,left,60ea8c3fff09d1cae3f2119c,001,2021-07-19_02h57.15.998,arrow_simon_norep,2021.1.2,Win32,54.2888165,,,,,,,,,,,,,,,,,,,,,,,,,,,,,,,,,,,,,
,,,q,1,4.139,0,0.70107926,#f3af84,,left_orange.png,q,7,3,31,2,1,w,left_blue.png,left_orange.png,q,left,60ea8c3fff09d1cae3f2119c,001,2021-07-19_02h57.15.998,arrow_simon_norep,2021.1.2,Win32,54.2888165,,,,,,,,,,,,,,,,,,,,,,,,,,,,,,,,,,,,,
,,,o,1,5.315,0,0.065793479,#a3d0fb,,right_blue.png,o,8,0,32,1,1,o,right_blue.png,right_orange.png,p,right,60ea8c3fff09d1cae3f2119c,001,2021-07-19_02h57.15.998,arrow_simon_norep,2021.1.2,Win32,54.2888165,,,,,,,,,,,,,,,,,,,,,,,,,,,,,,,,,,,,,
,,,p,1,6.535,0,0.785924988,#f3af84,,right_orange.png,p,8,1,33,0,1,o,right_blue.png,right_orange.png,p,left,60ea8c3fff09d1cae3f2119c,001,2021-07-19_02h57.15.998,arrow_simon_norep,2021.1.2,Win32,54.2888165,,,,,,,,,,,,,,,,,,,,,,,,,,,,,,,,,,,,,
,,,w,1,3.15,0,0.801668521,#a3d0fb,,left_blue.png,w,8,2,34,2,1,w,left_blue.png,left_orange.png,q,left,60ea8c3fff09d1cae3f2119c,001,2021-07-19_02h57.15.998,arrow_simon_norep,2021.1.2,Win32,54.2888165,,,,,,,,,,,,,,,,,,,,,,,,,,,,,,,,,,,,,
,,,p,1,4.522,0,0.683763859,#f3af84,,right_orange.png,p,8,3,35,0,1,o,right_blue.png,right_orange.png,p,left,60ea8c3fff09d1cae3f2119c,001,2021-07-19_02h57.15.998,arrow_simon_norep,2021.1.2,Win32,54.2888165,,,,,,,,,,,,,,,,,,,,,,,,,,,,,,,,,,,,,
,,,o,1,7.4,0,0.697380867,#a3d0fb,,right_blue.png,o,9,0,36,1,1,o,right_blue.png,right_orange.png,p,right,60ea8c3fff09d1cae3f2119c,001,2021-07-19_02h57.15.998,arrow_simon_norep,2021.1.2,Win32,54.2888165,,,,,,,,,,,,,,,,,,,,,,,,,,,,,,,,,,,,,
,,,q,1,3.557,0,0.124007991,#f3af84,,left_orange.png,q,9,1,37,2,1,w,left_blue.png,left_orange.png,q,left,60ea8c3fff09d1cae3f2119c,001,2021-07-19_02h57.15.998,arrow_simon_norep,2021.1.2,Win32,54.2888165,,,,,,,,,,,,,,,,,,,,,,,,,,,,,,,,,,,,,
,,,o,1,79.669,0,0.384646344,#a3d0fb,,right_blue.png,o,9,2,38,0,1,o,right_blue.png,right_orange.png,p,left,60ea8c3fff09d1cae3f2119c,001,2021-07-19_02h57.15.998,arrow_simon_norep,2021.1.2,Win32,54.2888165,,,,,,,,,,,,,,,,,,,,,,,,,,,,,,,,,,,,,
,,,q,1,60.422,0,0.772423416,#f3af84,,left_orange.png,q,9,3,39,3,1,w,left_blue.png,left_orange.png,q,right,60ea8c3fff09d1cae3f2119c,001,2021-07-19_02h57.15.998,arrow_simon_norep,2021.1.2,Win32,54.2888165,,,,,,,,,,,,,,,,,,,,,,,,,,,,,,,,,,,,,
,,,o,1,8.335,0,0.0674981,#a3d0fb,,right_blue.png,o,10,0,40,1,1,o,right_blue.png,right_orange.png,p,right,60ea8c3fff09d1cae3f2119c,001,2021-07-19_02h57.15.998,arrow_simon_norep,2021.1.2,Win32,54.2888165,,,,,,,,,,,,,,,,,,,,,,,,,,,,,,,,,,,,,
,,,q,1,4.14,0,0.318518745,#f3af84,,left_orange.png,q,10,1,41,2,1,w,left_blue.png,left_orange.png,q,left,60ea8c3fff09d1cae3f2119c,001,2021-07-19_02h57.15.998,arrow_simon_norep,2021.1.2,Win32,54.2888165,,,,,,,,,,,,,,,,,,,,,,,,,,,,,,,,,,,,,
,,,o,1,3.122,0,0.561349839,#a3d0fb,,right_blue.png,o,10,2,42,1,1,o,right_blue.png,right_orange.png,p,right,60ea8c3fff09d1cae3f2119c,001,2021-07-19_02h57.15.998,arrow_simon_norep,2021.1.2,Win32,54.2888165,,,,,,,,,,,,,,,,,,,,,,,,,,,,,,,,,,,,,
,,,p,1,2.279,0,0.094376367,#f3af84,,right_orange.png,p,10,3,43,1,1,o,right_blue.png,right_orange.png,p,right,60ea8c3fff09d1cae3f2119c,001,2021-07-19_02h57.15.998,arrow_simon_norep,2021.1.2,Win32,54.2888165,,,,,,,,,,,,,,,,,,,,,,,,,,,,,,,,,,,,,
,,,o,1,2.629,0,0.467518569,#a3d0fb,,right_blue.png,o,11,0,44,0,1,o,right_blue.png,right_orange.png,p,left,60ea8c3fff09d1cae3f2119c,001,2021-07-19_02h57.15.998,arrow_simon_norep,2021.1.2,Win32,54.2888165,,,,,,,,,,,,,,,,,,,,,,,,,,,,,,,,,,,,,
,,,p,1,2.038,0,0.236800021,#f3af84,,right_orange.png,p,11,1,45,1,1,o,right_blue.png,right_orange.png,p,right,60ea8c3fff09d1cae3f2119c,001,2021-07-19_02h57.15.998,arrow_simon_norep,2021.1.2,Win32,54.2888165,,,,,,,,,,,,,,,,,,,,,,,,,,,,,,,,,,,,,
,,,o,1,4.751,0,0.459640845,#a3d0fb,,right_blue.png,o,11,2,46,1,1,o,right_blue.png,right_orange.png,p,right,60ea8c3fff09d1cae3f2119c,001,2021-07-19_02h57.15.998,arrow_simon_norep,2021.1.2,Win32,54.2888165,,,,,,,,,,,,,,,,,,,,,,,,,,,,,,,,,,,,,
,,,q,1,3.892,0,0.981326838,#f3af84,,left_orange.png,q,11,3,47,3,1,w,left_blue.png,left_orange.png,q,right,60ea8c3fff09d1cae3f2119c,001,2021-07-19_02h57.15.998,arrow_simon_norep,2021.1.2,Win32,54.2888165,,,,,,,,,,,,,,,,,,,,,,,,,,,,,,,,,,,,,
,,,w,1,3.127,0,0.53333243,#a3d0fb,,left_blue.png,w,12,0,48,3,1,w,left_blue.png,left_orange.png,q,right,60ea8c3fff09d1cae3f2119c,001,2021-07-19_02h57.15.998,arrow_simon_norep,2021.1.2,Win32,54.2888165,,,,,,,,,,,,,,,,,,,,,,,,,,,,,,,,,,,,,
,,,q,1,3.697,0,0.004281661,#f3af84,,left_orange.png,q,12,1,49,2,1,w,left_blue.png,left_orange.png,q,left,60ea8c3fff09d1cae3f2119c,001,2021-07-19_02h57.15.998,arrow_simon_norep,2021.1.2,Win32,54.2888165,,,,,,,,,,,,,,,,,,,,,,,,,,,,,,,,,,,,,
,,,w,1,1.497,0,0.385355439,#a3d0fb,,left_blue.png,w,12,2,50,3,1,w,left_blue.png,left_orange.png,q,right,60ea8c3fff09d1cae3f2119c,001,2021-07-19_02h57.15.998,arrow_simon_norep,2021.1.2,Win32,54.2888165,,,,,,,,,,,,,,,,,,,,,,,,,,,,,,,,,,,,,
,,,p,1,3.348,0,0.786348934,#f3af84,,right_orange.png,p,12,3,51,1,1,o,right_blue.png,right_orange.png,p,right,60ea8c3fff09d1cae3f2119c,001,2021-07-19_02h57.15.998,arrow_simon_norep,2021.1.2,Win32,54.2888165,,,,,,,,,,,,,,,,,,,,,,,,,,,,,,,,,,,,,
,,,o,1,2.757,0,0.223490617,#a3d0fb,,right_blue.png,o,13,0,52,0,1,o,right_blue.png,right_orange.png,p,left,60ea8c3fff09d1cae3f2119c,001,2021-07-19_02h57.15.998,arrow_simon_norep,2021.1.2,Win32,54.2888165,,,,,,,,,,,,,,,,,,,,,,,,,,,,,,,,,,,,,
,,,q,1,3.227,0,0.657506766,#f3af84,,left_orange.png,q,13,1,53,3,1,w,left_blue.png,left_orange.png,q,right,60ea8c3fff09d1cae3f2119c,001,2021-07-19_02h57.15.998,arrow_simon_norep,2021.1.2,Win32,54.2888165,,,,,,,,,,,,,,,,,,,,,,,,,,,,,,,,,,,,,
,,,w,1,1.503,0,0.109307385,#a3d0fb,,left_blue.png,w,13,2,54,2,1,w,left_blue.png,left_orange.png,q,left,60ea8c3fff09d1cae3f2119c,001,2021-07-19_02h57.15.998,arrow_simon_norep,2021.1.2,Win32,54.2888165,,,,,,,,,,,,,,,,,,,,,,,,,,,,,,,,,,,,,
,,,p,1,3.942,0,0.82721184,#f3af84,,right_orange.png,p,13,3,55,1,1,o,right_blue.png,right_orange.png,p,right,60ea8c3fff09d1cae3f2119c,001,2021-07-19_02h57.15.998,arrow_simon_norep,2021.1.2,Win32,54.2888165,,,,,,,,,,,,,,,,,,,,,,,,,,,,,,,,,,,,,
,,,w,1,5.832,0,0.952473365,#a3d0fb,,left_blue.png,w,14,0,56,3,1,w,left_blue.png,left_orange.png,q,right,60ea8c3fff09d1cae3f2119c,001,2021-07-19_02h57.15.998,arrow_simon_norep,2021.1.2,Win32,54.2888165,,,,,,,,,,,,,,,,,,,,,,,,,,,,,,,,,,,,,
,,,p,1,3.063,0,0.180241913,#f3af84,,right_orange.png,p,14,1,57,0,1,o,right_blue.png,right_orange.png,p,left,60ea8c3fff09d1cae3f2119c,001,2021-07-19_02h57.15.998,arrow_simon_norep,2021.1.2,Win32,54.2888165,,,,,,,,,,,,,,,,,,,,,,,,,,,,,,,,,,,,,
,,,o,1,2.716,0,0.297229624,#a3d0fb,,right_blue.png,o,14,2,58,1,1,o,right_blue.png,right_orange.png,p,right,60ea8c3fff09d1cae3f2119c,001,2021-07-19_02h57.15.998,arrow_simon_norep,2021.1.2,Win32,54.2888165,,,,,,,,,,,,,,,,,,,,,,,,,,,,,,,,,,,,,
,,,p,1,2.219,0,0.115258126,#f3af84,,right_orange.png,p,14,3,59,0,1,o,right_blue.png,right_orange.png,p,left,60ea8c3fff09d1cae3f2119c,001,2021-07-19_02h57.15.998,arrow_simon_norep,2021.1.2,Win32,54.2888165,,,,,,,,,,,,,,,,,,,,,,,,,,,,,,,,,,,,,
,,,,,,,,,,,,,,,,,,,,,,60ea8c3fff09d1cae3f2119c,001,2021-07-19_02h57.15.998,arrow_simon_norep,2021.1.2,Win32,54.2888165,space,42.344,0,0,0,0,1,,,,,,,,,,,,,,,,,,,,,,,,,,,,,,
,,,w,1,12.638,0,0.67538572,#a3d0fb,,left_blue.png,w,0,0,0,2,1,w,left_blue.png,left_orange.png,q,left,60ea8c3fff09d1cae3f2119c,001,2021-07-19_02h57.15.998,arrow_simon_norep,2021.1.2,Win32,54.2888165,,,,,,,,,,,,,,,,,,,,,,,,,,,,,,,,,,,,,
,,,p,1,8.662,0,0.413948409,#f3af84,,right_orange.png,p,0,1,1,1,1,o,right_blue.png,right_orange.png,p,right,60ea8c3fff09d1cae3f2119c,001,2021-07-19_02h57.15.998,arrow_simon_norep,2021.1.2,Win32,54.2888165,,,,,,,,,,,,,,,,,,,,,,,,,,,,,,,,,,,,,
,,,o,1,5.027,0,0.575230021,#a3d0fb,,right_blue.png,o,0,2,2,0,1,o,right_blue.png,right_orange.png,p,left,60ea8c3fff09d1cae3f2119c,001,2021-07-19_02h57.15.998,arrow_simon_norep,2021.1.2,Win32,54.2888165,,,,,,,,,,,,,,,,,,,,,,,,,,,,,,,,,,,,,
,,,q,1,2.342,0,0.996786628,#f3af84,,left_orange.png,q,0,3,3,3,1,w,left_blue.png,left_orange.png,q,right,60ea8c3fff09d1cae3f2119c,001,2021-07-19_02h57.15.998,arrow_simon_norep,2021.1.2,Win32,54.2888165,,,,,,,,,,,,,,,,,,,,,,,,,,,,,,,,,,,,,
,,,w,1,3.969,0,0.775197668,#a3d0fb,,left_blue.png,w,1,0,4,3,1,w,left_blue.png,left_orange.png,q,right,60ea8c3fff09d1cae3f2119c,001,2021-07-19_02h57.15.998,arrow_simon_norep,2021.1.2,Win32,54.2888165,,,,,,,,,,,,,,,,,,,,,,,,,,,,,,,,,,,,,
,,,p,1,3.104,0,0.043082424,#f3af84,,right_orange.png,p,1,1,5,0,1,o,right_blue.png,right_orange.png,p,left,60ea8c3fff09d1cae3f2119c,001,2021-07-19_02h57.15.998,arrow_simon_norep,2021.1.2,Win32,54.2888165,,,,,,,,,,,,,,,,,,,,,,,,,,,,,,,,,,,,,
,,,o,1,3.826,0,0.620436713,#a3d0fb,,right_blue.png,o,1,2,6,0,1,o,right_blue.png,right_orange.png,p,left,60ea8c3fff09d1cae3f2119c,001,2021-07-19_02h57.15.998,arrow_simon_norep,2021.1.2,Win32,54.2888165,,,,,,,,,,,,,,,,,,,,,,,,,,,,,,,,,,,,,
,,,p,1,2.788,0,0.770659063,#f3af84,,right_orange.png,p,1,3,7,1,1,o,right_blue.png,right_orange.png,p,right,60ea8c3fff09d1cae3f2119c,001,2021-07-19_02h57.15.998,arrow_simon_norep,2021.1.2,Win32,54.2888165,,,,,,,,,,,,,,,,,,,,,,,,,,,,,,,,,,,,,
,,,w,1,2.804,0,0.988212167,#a3d0fb,,left_blue.png,w,2,0,8,3,1,w,left_blue.png,left_orange.png,q,right,60ea8c3fff09d1cae3f2119c,001,2021-07-19_02h57.15.998,arrow_simon_norep,2021.1.2,Win32,54.2888165,,,,,,,,,,,,,,,,,,,,,,,,,,,,,,,,,,,,,
,,,q,1,1.691,0,0.035318493,#f3af84,,left_orange.png,q,2,1,9,3,1,w,left_blue.png,left_orange.png,q,right,60ea8c3fff09d1cae3f2119c,001,2021-07-19_02h57.15.998,arrow_simon_norep,2021.1.2,Win32,54.2888165,,,,,,,,,,,,,,,,,,,,,,,,,,,,,,,,,,,,,
,,,o,1,3.757,0,0.593792082,#a3d0fb,,right_blue.png,o,2,2,10,1,1,o,right_blue.png,right_orange.png,p,right,60ea8c3fff09d1cae3f2119c,001,2021-07-19_02h57.15.998,arrow_simon_norep,2021.1.2,Win32,54.2888165,,,,,,,,,,,,,,,,,,,,,,,,,,,,,,,,,,,,,
,,,p,1,2.489,0,0.84059518,#f3af84,,right_orange.png,p,2,3,11,0,1,o,right_blue.png,right_orange.png,p,left,60ea8c3fff09d1cae3f2119c,001,2021-07-19_02h57.15.998,arrow_simon_norep,2021.1.2,Win32,54.2888165,,,,,,,,,,,,,,,,,,,,,,,,,,,,,,,,,,,,,
,,,o,1,1.631,0,0.804070971,#a3d0fb,,right_blue.png,o,3,0,12,1,1,o,right_blue.png,right_orange.png,p,right,60ea8c3fff09d1cae3f2119c,001,2021-07-19_02h57.15.998,arrow_simon_norep,2021.1.2,Win32,54.2888165,,,,,,,,,,,,,,,,,,,,,,,,,,,,,,,,,,,,,
,,,p,1,1.83,0,0.937444894,#f3af84,,right_orange.png,p,3,1,13,0,1,o,right_blue.png,right_orange.png,p,left,60ea8c3fff09d1cae3f2119c,001,2021-07-19_02h57.15.998,arrow_simon_norep,2021.1.2,Win32,54.2888165,,,,,,,,,,,,,,,,,,,,,,,,,,,,,,,,,,,,,
,,,o,1,1.263,0,0.403227094,#a3d0fb,,right_blue.png,o,3,2,14,0,1,o,right_blue.png,right_orange.png,p,left,60ea8c3fff09d1cae3f2119c,001,2021-07-19_02h57.15.998,arrow_simon_norep,2021.1.2,Win32,54.2888165,,,,,,,,,,,,,,,,,,,,,,,,,,,,,,,,,,,,,
,,,q,1,2.552,0,0.515662132,#f3af84,,left_orange.png,q,3,3,15,3,1,w,left_blue.png,left_orange.png,q,right,60ea8c3fff09d1cae3f2119c,001,2021-07-19_02h57.15.998,arrow_simon_norep,2021.1.2,Win32,54.2888165,,,,,,,,,,,,,,,,,,,,,,,,,,,,,,,,,,,,,
,,,o,1,3.468,0,0.799424678,#a3d0fb,,right_blue.png,o,4,0,16,1,1,o,right_blue.png,right_orange.png,p,right,60ea8c3fff09d1cae3f2119c,001,2021-07-19_02h57.15.998,arrow_simon_norep,2021.1.2,Win32,54.2888165,,,,,,,,,,,,,,,,,,,,,,,,,,,,,,,,,,,,,
,,,q,1,4.032,0,0.375320266,#f3af84,,left_orange.png,q,4,1,17,3,1,w,left_blue.png,left_orange.png,q,right,60ea8c3fff09d1cae3f2119c,001,2021-07-19_02h57.15.998,arrow_simon_norep,2021.1.2,Win32,54.2888165,,,,,,,,,,,,,,,,,,,,,,,,,,,,,,,,,,,,,
,,,o,1,3.525,0,0.497777343,#a3d0fb,,right_blue.png,o,4,2,18,0,1,o,right_blue.png,right_orange.png,p,left,60ea8c3fff09d1cae3f2119c,001,2021-07-19_02h57.15.998,arrow_simon_norep,2021.1.2,Win32,54.2888165,,,,,,,,,,,,,,,,,,,,,,,,,,,,,,,,,,,,,
,,,p,1,7.61,0,0.639018499,#f3af84,,right_orange.png,p,4,3,19,0,1,o,right_blue.png,right_orange.png,p,left,60ea8c3fff09d1cae3f2119c,001,2021-07-19_02h57.15.998,arrow_simon_norep,2021.1.2,Win32,54.2888165,,,,,,,,,,,,,,,,,,,,,,,,,,,,,,,,,,,,,
,,,w,1,2.573,0,0.248190203,#a3d0fb,,left_blue.png,w,5,0,20,2,1,w,left_blue.png,left_orange.png,q,left,60ea8c3fff09d1cae3f2119c,001,2021-07-19_02h57.15.998,arrow_simon_norep,2021.1.2,Win32,54.2888165,,,,,,,,,,,,,,,,,,,,,,,,,,,,,,,,,,,,,
,,,q,1,1.469,0,0.666731086,#f3af84,,left_orange.png,q,5,1,21,3,1,w,left_blue.png,left_orange.png,q,right,60ea8c3fff09d1cae3f2119c,001,2021-07-19_02h57.15.998,arrow_simon_norep,2021.1.2,Win32,54.2888165,,,,,,,,,,,,,,,,,,,,,,,,,,,,,,,,,,,,,
,,,w,1,1.43,0,0.592150946,#a3d0fb,,left_blue.png,w,5,2,22,2,1,w,left_blue.png,left_orange.png,q,left,60ea8c3fff09d1cae3f2119c,001,2021-07-19_02h57.15.998,arrow_simon_norep,2021.1.2,Win32,54.2888165,,,,,,,,,,,,,,,,,,,,,,,,,,,,,,,,,,,,,
,,,p,1,2.575,0,0.696574306,#f3af84,,right_orange.png,p,5,3,23,1,1,o,right_blue.png,right_orange.png,p,right,60ea8c3fff09d1cae3f2119c,001,2021-07-19_02h57.15.998,arrow_simon_norep,2021.1.2,Win32,54.2888165,,,,,,,,,,,,,,,,,,,,,,,,,,,,,,,,,,,,,
,,,w,1,2.959,0,0.086531777,#a3d0fb,,left_blue.png,w,6,0,24,3,1,w,left_blue.png,left_orange.png,q,right,60ea8c3fff09d1cae3f2119c,001,2021-07-19_02h57.15.998,arrow_simon_norep,2021.1.2,Win32,54.2888165,,,,,,,,,,,,,,,,,,,,,,,,,,,,,,,,,,,,,
,,,o,0,2.892,1,0.38552814,#f3af84,,right_orange.png,p,6,1,25,1,1,o,right_blue.png,right_orange.png,p,right,60ea8c3fff09d1cae3f2119c,001,2021-07-19_02h57.15.998,arrow_simon_norep,2021.1.2,Win32,54.2888165,,,,,,,,,,,,,,,,,,,,,,,,,,,,,,,,,,,,,
,,,o,1,3.729,0,0.708718421,#a3d0fb,,right_blue.png,o,6,2,26,0,1,o,right_blue.png,right_orange.png,p,left,60ea8c3fff09d1cae3f2119c,001,2021-07-19_02h57.15.998,arrow_simon_norep,2021.1.2,Win32,54.2888165,,,,,,,,,,,,,,,,,,,,,,,,,,,,,,,,,,,,,
,,,p,1,2.492,0,0.812375885,#f3af84,,right_orange.png,p,6,3,27,0,1,o,right_blue.png,right_orange.png,p,left,60ea8c3fff09d1cae3f2119c,001,2021-07-19_02h57.15.998,arrow_simon_norep,2021.1.2,Win32,54.2888165,,,,,,,,,,,,,,,,,,,,,,,,,,,,,,,,,,,,,
,,,o,1,1.39,0,0.245589947,#a3d0fb,,right_blue.png,o,7,0,28,1,1,o,right_blue.png,right_orange.png,p,right,60ea8c3fff09d1cae3f2119c,001,2021-07-19_02h57.15.998,arrow_simon_norep,2021.1.2,Win32,54.2888165,,,,,,,,,,,,,,,,,,,,,,,,,,,,,,,,,,,,,
,,,q,1,3.074,0,0.400968563,#f3af84,,left_orange.png,q,7,1,29,3,1,w,left_blue.png,left_orange.png,q,right,60ea8c3fff09d1cae3f2119c,001,2021-07-19_02h57.15.998,arrow_simon_norep,2021.1.2,Win32,54.2888165,,,,,,,,,,,,,,,,,,,,,,,,,,,,,,,,,,,,,
,,,o,1,2.269,0,0.555689419,#a3d0fb,,right_blue.png,o,7,2,30,1,1,o,right_blue.png,right_orange.png,p,right,60ea8c3fff09d1cae3f2119c,001,2021-07-19_02h57.15.998,arrow_simon_norep,2021.1.2,Win32,54.2888165,,,,,,,,,,,,,,,,,,,,,,,,,,,,,,,,,,,,,
,,,q,1,4.637,0,0.397616839,#f3af84,,left_orange.png,q,7,3,31,2,1,w,left_blue.png,left_orange.png,q,left,60ea8c3fff09d1cae3f2119c,001,2021-07-19_02h57.15.998,arrow_simon_norep,2021.1.2,Win32,54.2888165,,,,,,,,,,,,,,,,,,,,,,,,,,,,,,,,,,,,,
,,,w,1,2.264,0,0.379049743,#a3d0fb,,left_blue.png,w,8,0,32,2,1,w,left_blue.png,left_orange.png,q,left,60ea8c3fff09d1cae3f2119c,001,2021-07-19_02h57.15.998,arrow_simon_norep,2021.1.2,Win32,54.2888165,,,,,,,,,,,,,,,,,,,,,,,,,,,,,,,,,,,,,
,,,q,1,0.79,0,0.034834395,#f3af84,,left_orange.png,q,8,1,33,2,1,w,left_blue.png,left_orange.png,q,left,60ea8c3fff09d1cae3f2119c,001,2021-07-19_02h57.15.998,arrow_simon_norep,2021.1.2,Win32,54.2888165,,,,,,,,,,,,,,,,,,,,,,,,,,,,,,,,,,,,,
,,,o,0,2.475,1,0.775021301,#a3d0fb,,left_blue.png,w,8,2,34,3,1,w,left_blue.png,left_orange.png,q,right,60ea8c3fff09d1cae3f2119c,001,2021-07-19_02h57.15.998,arrow_simon_norep,2021.1.2,Win32,54.2888165,,,,,,,,,,,,,,,,,,,,,,,,,,,,,,,,,,,,,
,,,p,1,4.739,0,0.711082635,#f3af84,,right_orange.png,p,8,3,35,1,1,o,right_blue.png,right_orange.png,p,right,60ea8c3fff09d1cae3f2119c,001,2021-07-19_02h57.15.998,arrow_simon_norep,2021.1.2,Win32,54.2888165,,,,,,,,,,,,,,,,,,,,,,,,,,,,,,,,,,,,,
,,,w,1,2.868,0,0.296829624,#a3d0fb,,left_blue.png,w,9,0,36,2,1,w,left_blue.png,left_orange.png,q,left,60ea8c3fff09d1cae3f2119c,001,2021-07-19_02h57.15.998,arrow_simon_norep,2021.1.2,Win32,54.2888165,,,,,,,,,,,,,,,,,,,,,,,,,,,,,,,,,,,,,
,,,p,1,2.464,0,0.568080126,#f3af84,,right_orange.png,p,9,1,37,0,1,o,right_blue.png,right_orange.png,p,left,60ea8c3fff09d1cae3f2119c,001,2021-07-19_02h57.15.998,arrow_simon_norep,2021.1.2,Win32,54.2888165,,,,,,,,,,,,,,,,,,,,,,,,,,,,,,,,,,,,,
,,,w,1,3.862,0,0.43778044,#a3d0fb,,left_blue.png,w,9,2,38,3,1,w,left_blue.png,left_orange.png,q,right,60ea8c3fff09d1cae3f2119c,001,2021-07-19_02h57.15.998,arrow_simon_norep,2021.1.2,Win32,54.2888165,,,,,,,,,,,,,,,,,,,,,,,,,,,,,,,,,,,,,
,,,p,1,2.388,0,0.665323601,#f3af84,,right_orange.png,p,9,3,39,1,1,o,right_blue.png,right_orange.png,p,right,60ea8c3fff09d1cae3f2119c,001,2021-07-19_02h57.15.998,arrow_simon_norep,2021.1.2,Win32,54.2888165,,,,,,,,,,,,,,,,,,,,,,,,,,,,,,,,,,,,,
,,,w,1,2.606,0,0.826724629,#a3d0fb,,left_blue.png,w,10,0,40,3,1,w,left_blue.png,left_orange.png,q,right,60ea8c3fff09d1cae3f2119c,001,2021-07-19_02h57.15.998,arrow_simon_norep,2021.1.2,Win32,54.2888165,,,,,,,,,,,,,,,,,,,,,,,,,,,,,,,,,,,,,
,,,p,1,3.168,0,0.10249691,#f3af84,,right_orange.png,p,10,1,41,0,1,o,right_blue.png,right_orange.png,p,left,60ea8c3fff09d1cae3f2119c,001,2021-07-19_02h57.15.998,arrow_simon_norep,2021.1.2,Win32,54.2888165,,,,,,,,,,,,,,,,,,,,,,,,,,,,,,,,,,,,,
,,,w,1,2.632,0,0.152483924,#a3d0fb,,left_blue.png,w,10,2,42,2,1,w,left_blue.png,left_orange.png,q,left,60ea8c3fff09d1cae3f2119c,001,2021-07-19_02h57.15.998,arrow_simon_norep,2021.1.2,Win32,54.2888165,,,,,,,,,,,,,,,,,,,,,,,,,,,,,,,,,,,,,
,,,q,1,3.77,0,0.959463119,#f3af84,,left_orange.png,q,10,3,43,2,1,w,left_blue.png,left_orange.png,q,left,60ea8c3fff09d1cae3f2119c,001,2021-07-19_02h57.15.998,arrow_simon_norep,2021.1.2,Win32,54.2888165,,,,,,,,,,,,,,,,,,,,,,,,,,,,,,,,,,,,,
,,,o,1,2.789,0,0.903350769,#a3d0fb,,right_blue.png,o,11,0,44,0,1,o,right_blue.png,right_orange.png,p,left,60ea8c3fff09d1cae3f2119c,001,2021-07-19_02h57.15.998,arrow_simon_norep,2021.1.2,Win32,54.2888165,,,,,,,,,,,,,,,,,,,,,,,,,,,,,,,,,,,,,
,,,q,1,2.275,0,0.016506039,#f3af84,,left_orange.png,q,11,1,45,2,1,w,left_blue.png,left_orange.png,q,left,60ea8c3fff09d1cae3f2119c,001,2021-07-19_02h57.15.998,arrow_simon_norep,2021.1.2,Win32,54.2888165,,,,,,,,,,,,,,,,,,,,,,,,,,,,,,,,,,,,,
,,,w,1,2.158,0,0.334424186,#a3d0fb,,left_blue.png,w,11,2,46,2,1,w,left_blue.png,left_orange.png,q,left,60ea8c3fff09d1cae3f2119c,001,2021-07-19_02h57.15.998,arrow_simon_norep,2021.1.2,Win32,54.2888165,,,,,,,,,,,,,,,,,,,,,,,,,,,,,,,,,,,,,
,,,q,1,4.547,0,0.763213109,#f3af84,,left_orange.png,q,11,3,47,3,1,w,left_blue.png,left_orange.png,q,right,60ea8c3fff09d1cae3f2119c,001,2021-07-19_02h57.15.998,arrow_simon_norep,2021.1.2,Win32,54.2888165,,,,,,,,,,,,,,,,,,,,,,,,,,,,,,,,,,,,,
,,,w,1,2.84,0,0.769232669,#a3d0fb,,left_blue.png,w,12,0,48,2,1,w,left_blue.png,left_orange.png,q,left,60ea8c3fff09d1cae3f2119c,001,2021-07-19_02h57.15.998,arrow_simon_norep,2021.1.2,Win32,54.2888165,,,,,,,,,,,,,,,,,,,,,,,,,,,,,,,,,,,,,
,,,p,1,3.156,0,0.722923559,#f3af84,,right_orange.png,p,12,1,49,0,1,o,right_blue.png,right_orange.png,p,left,60ea8c3fff09d1cae3f2119c,001,2021-07-19_02h57.15.998,arrow_simon_norep,2021.1.2,Win32,54.2888165,,,,,,,,,,,,,,,,,,,,,,,,,,,,,,,,,,,,,
,,,o,1,1.613,0,0.172894872,#a3d0fb,,right_blue.png,o,12,2,50,0,1,o,right_blue.png,right_orange.png,p,left,60ea8c3fff09d1cae3f2119c,001,2021-07-19_02h57.15.998,arrow_simon_norep,2021.1.2,Win32,54.2888165,,,,,,,,,,,,,,,,,,,,,,,,,,,,,,,,,,,,,
,,,p,1,1.099,0,0.263745717,#f3af84,,right_orange.png,p,12,3,51,1,1,o,right_blue.png,right_orange.png,p,right,60ea8c3fff09d1cae3f2119c,001,2021-07-19_02h57.15.998,arrow_simon_norep,2021.1.2,Win32,54.2888165,,,,,,,,,,,,,,,,,,,,,,,,,,,,,,,,,,,,,
,,,w,1,4.64,0,0.960093634,#a3d0fb,,left_blue.png,w,13,0,52,2,1,w,left_blue.png,left_orange.png,q,left,60ea8c3fff09d1cae3f2119c,001,2021-07-19_02h57.15.998,arrow_simon_norep,2021.1.2,Win32,54.2888165,,,,,,,,,,,,,,,,,,,,,,,,,,,,,,,,,,,,,
,,,p,1,4.77,0,0.811794484,#f3af84,,right_orange.png,p,13,1,53,1,1,o,right_blue.png,right_orange.png,p,right,60ea8c3fff09d1cae3f2119c,001,2021-07-19_02h57.15.998,arrow_simon_norep,2021.1.2,Win32,54.2888165,,,,,,,,,,,,,,,,,,,,,,,,,,,,,,,,,,,,,
,,,o,1,1.966,0,0.822317553,#a3d0fb,,right_blue.png,o,13,2,54,1,1,o,right_blue.png,right_orange.png,p,right,60ea8c3fff09d1cae3f2119c,001,2021-07-19_02h57.15.998,arrow_simon_norep,2021.1.2,Win32,54.2888165,,,,,,,,,,,,,,,,,,,,,,,,,,,,,,,,,,,,,
,,,q,1,4.288,0,0.458882076,#f3af84,,left_orange.png,q,13,3,55,2,1,w,left_blue.png,left_orange.png,q,left,60ea8c3fff09d1cae3f2119c,001,2021-07-19_02h57.15.998,arrow_simon_norep,2021.1.2,Win32,54.2888165,,,,,,,,,,,,,,,,,,,,,,,,,,,,,,,,,,,,,
,,,o,1,2.257,0,0.620510133,#a3d0fb,,right_blue.png,o,14,0,56,1,1,o,right_blue.png,right_orange.png,p,right,60ea8c3fff09d1cae3f2119c,001,2021-07-19_02h57.15.998,arrow_simon_norep,2021.1.2,Win32,54.2888165,,,,,,,,,,,,,,,,,,,,,,,,,,,,,,,,,,,,,
,,,w,0,2.154,1,0.597079336,#f3af84,,left_orange.png,q,14,1,57,3,1,w,left_blue.png,left_orange.png,q,right,60ea8c3fff09d1cae3f2119c,001,2021-07-19_02h57.15.998,arrow_simon_norep,2021.1.2,Win32,54.2888165,,,,,,,,,,,,,,,,,,,,,,,,,,,,,,,,,,,,,
,,,w,1,1.749,0,0.302663254,#a3d0fb,,left_blue.png,w,14,2,58,2,1,w,left_blue.png,left_orange.png,q,left,60ea8c3fff09d1cae3f2119c,001,2021-07-19_02h57.15.998,arrow_simon_norep,2021.1.2,Win32,54.2888165,,,,,,,,,,,,,,,,,,,,,,,,,,,,,,,,,,,,,
,,,q,1,1.783,0,0.713913034,#f3af84,,left_orange.png,q,14,3,59,3,1,w,left_blue.png,left_orange.png,q,right,60ea8c3fff09d1cae3f2119c,001,2021-07-19_02h57.15.998,arrow_simon_norep,2021.1.2,Win32,54.2888165,,,,,,,,,,,,,,,,,,,,,,,,,,,,,,,,,,,,,
,,,,,,,,,,,,,,,,,,,,,,60ea8c3fff09d1cae3f2119c,001,2021-07-19_02h57.15.998,arrow_simon_norep,2021.1.2,Win32,54.2888165,space,11.341,1,0,1,0,1,,,,,,,,,,,,,,,,,,,,,,,,,,,,,,
,,,,,,,,,,,,,,,,,,,,,,60ea8c3fff09d1cae3f2119c,001,2021-07-19_02h57.15.998,arrow_simon_norep,2021.1.2,Win32,54.2888165,,,,,,,,space,0,130.853,q,4.325,0,0,0,0,1,,,,,,,,,,,,,,,,,,,,
,,,,,,,,,,,,,,,,,,,,,,60ea8c3fff09d1cae3f2119c,001,2021-07-19_02h57.15.998,arrow_simon_norep,2021.1.2,Win32,54.2888165,,,,,,,,,,,w,2.789,1,0,1,0,1,,,,,,,,,,,,,,,,,,,,
,,,,,,,,,,,,,,,,,,,,,,60ea8c3fff09d1cae3f2119c,001,2021-07-19_02h57.15.998,arrow_simon_norep,2021.1.2,Win32,54.2888165,,,,,,,,,,,q,2.257,2,0,2,0,1,,,,,,,,,,,,,,,,,,,,
,,,,,,,,,,,,,,,,,,,,,,60ea8c3fff09d1cae3f2119c,001,2021-07-19_02h57.15.998,arrow_simon_norep,2021.1.2,Win32,54.2888165,,,,,,,,,,,q,2.28,3,0,3,0,1,,,,,,,,,,,,,,,,,,,,
,,,,,,,,,,,,,,,,,,,,,,60ea8c3fff09d1cae3f2119c,001,2021-07-19_02h57.15.998,arrow_simon_norep,2021.1.2,Win32,54.2888165,,,,,,,,,,,q,2.745,4,0,4,0,1,,,,,,,,,,,,,,,,,,,,
,,,,,,,,,,,,,,,,,,,,,,60ea8c3fff09d1cae3f2119c,001,2021-07-19_02h57.15.998,arrow_simon_norep,2021.1.2,Win32,54.2888165,,,,,,,,,,,w,2.192,5,0,5,0,1,,,,,,,,,,,,,,,,,,,,
,,,,,,,,,,,,,,,,,,,,,,60ea8c3fff09d1cae3f2119c,001,2021-07-19_02h57.15.998,arrow_simon_norep,2021.1.2,Win32,54.2888165,,,,,,,,,,,w,2.717,6,0,6,0,1,,,,,,,,,,,,,,,,,,,,
,,,,,,,,,,,,,,,,,,,,,,60ea8c3fff09d1cae3f2119c,001,2021-07-19_02h57.15.998,arrow_simon_norep,2021.1.2,Win32,54.2888165,,,,,,,,,,,w,2.74,7,0,7,0,1,,,,,,,,,,,,,,,,,,,,
,,,,,,,,,,,,,,,,,,,,,,60ea8c3fff09d1cae3f2119c,001,2021-07-19_02h57.15.998,arrow_simon_norep,2021.1.2,Win32,54.2888165,,,,,,,,,,,w,2.11,8,0,8,0,1,,,,,,,,,,,,,,,,,,,,
,,,,,,,,,,,,,,,,,,,,,,60ea8c3fff09d1cae3f2119c,001,2021-07-19_02h57.15.998,arrow_simon_norep,2021.1.2,Win32,54.2888165,,,,,,,,,,,w,2.589,9,0,9,0,1,,,,,,,,,,,,,,,,,,,,
,,,,,,,,,,,,,,,,,,,,,,60ea8c3fff09d1cae3f2119c,001,2021-07-19_02h57.15.998,arrow_simon_norep,2021.1.2,Win32,54.2888165,,,,,,,,,,,w,2.624,10,0,10,0,1,,,,,,,,,,,,,,,,,,,,
,,,,,,,,,,,,,,,,,,,,,,60ea8c3fff09d1cae3f2119c,001,2021-07-19_02h57.15.998,arrow_simon_norep,2021.1.2,Win32,54.2888165,,,,,,,,,,,w,2.884,11,0,11,0,1,,,,,,,,,,,,,,,,,,,,
,,,,,,,,,,,,,,,,,,,,,,60ea8c3fff09d1cae3f2119c,001,2021-07-19_02h57.15.998,arrow_simon_norep,2021.1.2,Win32,54.2888165,,,,,,,,,,,w,2.085,12,0,12,0,1,,,,,,,,,,,,,,,,,,,,
,,,,,,,,,,,,,,,,,,,,,,60ea8c3fff09d1cae3f2119c,001,2021-07-19_02h57.15.998,arrow_simon_norep,2021.1.2,Win32,54.2888165,,,,,,,,,,,w,2.569,13,0,13,0,1,,,,,,,,,,,,,,,,,,,,
,,,,,,,,,,,,,,,,,,,,,,60ea8c3fff09d1cae3f2119c,001,2021-07-19_02h57.15.998,arrow_simon_norep,2021.1.2,Win32,54.2888165,,,,,,,,,,,w,2.461,14,0,14,0,1,,,,,,,,,,,,,,,,,,,,
,,,,,,,,,,,,,,,,,,,,,,60ea8c3fff09d1cae3f2119c,001,2021-07-19_02h57.15.998,arrow_simon_norep,2021.1.2,Win32,54.2888165,,,,,,,,,,,w,2.341,15,0,15,0,1,,,,,,,,,,,,,,,,,,,,
,,,,,,,,,,,,,,,,,,,,,,60ea8c3fff09d1cae3f2119c,001,2021-07-19_02h57.15.998,arrow_simon_norep,2021.1.2,Win32,54.2888165,,,,,,,,,,,w,2.381,16,0,16,0,1,,,,,,,,,,,,,,,,,,,,
,,,,,,,,,,,,,,,,,,,,,,60ea8c3fff09d1cae3f2119c,001,2021-07-19_02h57.15.998,arrow_simon_norep,2021.1.2,Win32,54.2888165,,,,,,,,,,,w,2.699,17,0,17,0,1,,,,,,,,,,,,,,,,,,,,
,,,,,,,,,,,,,,,,,,,,,,60ea8c3fff09d1cae3f2119c,001,2021-07-19_02h57.15.998,arrow_simon_norep,2021.1.2,Win32,54.2888165,,,,,,,,,,,w,2.839,18,0,18,0,1,,,,,,,,,,,,,,,,,,,,
,,,,,,,,,,,,,,,,,,,,,,60ea8c3fff09d1cae3f2119c,001,2021-07-19_02h57.15.998,arrow_simon_norep,2021.1.2,Win32,54.2888165,,,,,,,,,,,w,2.399,19,0,19,0,1,,,,,,,,,,,,,,,,,,,,
,,,,,,,,,,,,,,,,,,,,,,60ea8c3fff09d1cae3f2119c,001,2021-07-19_02h57.15.998,arrow_simon_norep,2021.1.2,Win32,54.2888165,,,,,,,,,,,w,2.686,20,0,20,0,1,,,,,,,,,,,,,,,,,,,,
,,,,,,,,,,,,,,,,,,,,,,60ea8c3fff09d1cae3f2119c,001,2021-07-19_02h57.15.998,arrow_simon_norep,2021.1.2,Win32,54.2888165,,,,,,,,,,,w,2.417,21,0,21,0,1,,,,,,,,,,,,,,,,,,,,
,,,,,,,,,,,,,,,,,,,,,,60ea8c3fff09d1cae3f2119c,001,2021-07-19_02h57.15.998,arrow_simon_norep,2021.1.2,Win32,54.2888165,,,,,,,,,,,w,2.098,22,0,22,0,1,,,,,,,,,,,,,,,,,,,,
,,,,,,,,,,,,,,,,,,,,,,60ea8c3fff09d1cae3f2119c,001,2021-07-19_02h57.15.998,arrow_simon_norep,2021.1.2,Win32,54.2888165,,,,,,,,,,,w,2.627,23,0,23,0,1,,,,,,,,,,,,,,,,,,,,
,,,,,,,,,,,,,,,,,,,,,,60ea8c3fff09d1cae3f2119c,001,2021-07-19_02h57.15.998,arrow_simon_norep,2021.1.2,Win32,54.2888165,,,,,,,,,,,w,2.22,24,0,24,0,1,,,,,,,,,,,,,,,,,,,,
,,,,,,,,,,,,,,,,,,,,,,60ea8c3fff09d1cae3f2119c,001,2021-07-19_02h57.15.998,arrow_simon_norep,2021.1.2,Win32,54.2888165,,,,,,,,,,,w,2.364,25,0,25,0,1,,,,,,,,,,,,,,,,,,,,
,,,,,,,,,,,,,,,,,,,,,,60ea8c3fff09d1cae3f2119c,001,2021-07-19_02h57.15.998,arrow_simon_norep,2021.1.2,Win32,54.2888165,,,,,,,,,,,w,2.44,26,0,26,0,1,,,,,,,,,,,,,,,,,,,,
,,,,,,,,,,,,,,,,,,,,,,60ea8c3fff09d1cae3f2119c,001,2021-07-19_02h57.15.998,arrow_simon_norep,2021.1.2,Win32,54.2888165,,,,,,,,,,,w,2.5,27,0,27,0,1,,,,,,,,,,,,,,,,,,,,
,,,,,,,,,,,,,,,,,,,,,,60ea8c3fff09d1cae3f2119c,001,2021-07-19_02h57.15.998,arrow_simon_norep,2021.1.2,Win32,54.2888165,,,,,,,,,,,w,2.436,28,0,28,0,1,,,,,,,,,,,,,,,,,,,,
,,,,,,,,,,,,,,,,,,,,,,60ea8c3fff09d1cae3f2119c,001,2021-07-19_02h57.15.998,arrow_simon_norep,2021.1.2,Win32,54.2888165,,,,,,,,,,,w,2.404,29,0,29,0,1,,,,,,,,,,,,,,,,,,,,
,,,,,,,,,,,,,,,,,,,,,,60ea8c3fff09d1cae3f2119c,001,2021-07-19_02h57.15.998,arrow_simon_norep,2021.1.2,Win32,54.2888165,,,,,,,,,,,w,2.013,30,0,30,0,1,,,,,,,,,,,,,,,,,,,,
,,,,,,,,,,,,,,,,,,,,,,60ea8c3fff09d1cae3f2119c,001,2021-07-19_02h57.15.998,arrow_simon_norep,2021.1.2,Win32,54.2888165,,,,,,,,,,,w,2.456,31,0,31,0,1,,,,,,,,,,,,,,,,,,,,
,,,,,,,,,,,,,,,,,,,,,,60ea8c3fff09d1cae3f2119c,001,2021-07-19_02h57.15.998,arrow_simon_norep,2021.1.2,Win32,54.2888165,,,,,,,,,,,w,2.396,32,0,32,0,1,,,,,,,,,,,,,,,,,,,,
,,,,,,,,,,,,,,,,,,,,,,60ea8c3fff09d1cae3f2119c,001,2021-07-19_02h57.15.998,arrow_simon_norep,2021.1.2,Win32,54.2888165,,,,,,,,,,,w,2.714,33,0,33,0,1,,,,,,,,,,,,,,,,,,,,
,,,,,,,,,,,,,,,,,,,,,,60ea8c3fff09d1cae3f2119c,001,2021-07-19_02h57.15.998,arrow_simon_norep,2021.1.2,Win32,54.2888165,,,,,,,,,,,w,2.631,34,0,34,0,1,,,,,,,,,,,,,,,,,,,,
,,,,,,,,,,,,,,,,,,,,,,60ea8c3fff09d1cae3f2119c,001,2021-07-19_02h57.15.998,arrow_simon_norep,2021.1.2,Win32,54.2888165,,,,,,,,,,,w,2.27,35,0,35,0,1,,,,,,,,,,,,,,,,,,,,
,,,,,,,,,,,,,,,,,,,,,,60ea8c3fff09d1cae3f2119c,001,2021-07-19_02h57.15.998,arrow_simon_norep,2021.1.2,Win32,54.2888165,,,,,,,,,,,w,2.753,36,0,36,0,1,,,,,,,,,,,,,,,,,,,,
,,,,,,,,,,,,,,,,,,,,,,60ea8c3fff09d1cae3f2119c,001,2021-07-19_02h57.15.998,arrow_simon_norep,2021.1.2,Win32,54.2888165,,,,,,,,,,,w,2.193,37,0,37,0,1,,,,,,,,,,,,,,,,,,,,
,,,,,,,,,,,,,,,,,,,,,,60ea8c3fff09d1cae3f2119c,001,2021-07-19_02h57.15.998,arrow_simon_norep,2021.1.2,Win32,54.2888165,,,,,,,,,,,w,2.46,38,0,38,0,1,,,,,,,,,,,,,,,,,,,,
,,,,,,,,,,,,,,,,,,,,,,60ea8c3fff09d1cae3f2119c,001,2021-07-19_02h57.15.998,arrow_simon_norep,2021.1.2,Win32,54.2888165,,,,,,,,,,,w,2.456,39,0,39,0,1,,,,,,,,,,,,,,,,,,,,
,,,,,,,,,,,,,,,,,,,,,,60ea8c3fff09d1cae3f2119c,001,2021-07-19_02h57.15.998,arrow_simon_norep,2021.1.2,Win32,54.2888165,,,,,,,,,,,w,2.285,40,0,40,0,1,,,,,,,,,,,,,,,,,,,,
,,,,,,,,,,,,,,,,,,,,,,60ea8c3fff09d1cae3f2119c,001,2021-07-19_02h57.15.998,arrow_simon_norep,2021.1.2,Win32,54.2888165,,,,,,,,,,,w,2.44,41,0,41,0,1,,,,,,,,,,,,,,,,,,,,
,,,,,,,,,,,,,,,,,,,,,,60ea8c3fff09d1cae3f2119c,001,2021-07-19_02h57.15.998,arrow_simon_norep,2021.1.2,Win32,54.2888165,,,,,,,,,,,w,2.462,42,0,42,0,1,,,,,,,,,,,,,,,,,,,,
,,,,,,,,,,,,,,,,,,,,,,60ea8c3fff09d1cae3f2119c,001,2021-07-19_02h57.15.998,arrow_simon_norep,2021.1.2,Win32,54.2888165,,,,,,,,,,,w,2.136,43,0,43,0,1,,,,,,,,,,,,,,,,,,,,
,,,,,,,,,,,,,,,,,,,,,,60ea8c3fff09d1cae3f2119c,001,2021-07-19_02h57.15.998,arrow_simon_norep,2021.1.2,Win32,54.2888165,,,,,,,,,,,w,2.375,44,0,44,0,1,,,,,,,,,,,,,,,,,,,,
,,,,,,,,,,,,,,,,,,,,,,60ea8c3fff09d1cae3f2119c,001,2021-07-19_02h57.15.998,arrow_simon_norep,2021.1.2,Win32,54.2888165,,,,,,,,,,,w,2.617,45,0,45,0,1,,,,,,,,,,,,,,,,,,,,
,,,,,,,,,,,,,,,,,,,,,,60ea8c3fff09d1cae3f2119c,001,2021-07-19_02h57.15.998,arrow_simon_norep,2021.1.2,Win32,54.2888165,,,,,,,,,,,w,2.441,46,0,46,0,1,,,,,,,,,,,,,,,,,,,,
,,,,,,,,,,,,,,,,,,,,,,60ea8c3fff09d1cae3f2119c,001,2021-07-19_02h57.15.998,arrow_simon_norep,2021.1.2,Win32,54.2888165,,,,,,,,,,,w,2.685,47,0,47,0,1,,,,,,,,,,,,,,,,,,,,
,,,,,,,,,,,,,,,,,,,,,,60ea8c3fff09d1cae3f2119c,001,2021-07-19_02h57.15.998,arrow_simon_norep,2021.1.2,Win32,54.2888165,,,,,,,,,,,w,2.538,48,0,48,0,1,,,,,,,,,,,,,,,,,,,,
,,,,,,,,,,,,,,,,,,,,,,60ea8c3fff09d1cae3f2119c,001,2021-07-19_02h57.15.998,arrow_simon_norep,2021.1.2,Win32,54.2888165,,,,,,,,,,,w,2.796,49,0,49,0,1,,,,,,,,,,,,,,,,,,,,
,,,,,,,,,,,,,,,,,,,,,,60ea8c3fff09d1cae3f2119c,001,2021-07-19_02h57.15.998,arrow_simon_norep,2021.1.2,Win32,54.2888165,,,,,,,,,,,w,2.426,50,0,50,0,1,,,,,,,,,,,,,,,,,,,,
,,,,,,,,,,,,,,,,,,,,,,60ea8c3fff09d1cae3f2119c,001,2021-07-19_02h57.15.998,arrow_simon_norep,2021.1.2,Win32,54.2888165,,,,,,,,,,,w,2.451,51,0,51,0,1,,,,,,,,,,,,,,,,,,,,
,,,,,,,,,,,,,,,,,,,,,,60ea8c3fff09d1cae3f2119c,001,2021-07-19_02h57.15.998,arrow_simon_norep,2021.1.2,Win32,54.2888165,,,,,,,,,,,w,2.024,52,0,52,0,1,,,,,,,,,,,,,,,,,,,,
,,,,,,,,,,,,,,,,,,,,,,60ea8c3fff09d1cae3f2119c,001,2021-07-19_02h57.15.998,arrow_simon_norep,2021.1.2,Win32,54.2888165,,,,,,,,,,,w,1.972,53,0,53,0,1,,,,,,,,,,,,,,,,,,,,
,,,,,,,,,,,,,,,,,,,,,,60ea8c3fff09d1cae3f2119c,001,2021-07-19_02h57.15.998,arrow_simon_norep,2021.1.2,Win32,54.2888165,,,,,,,,,,,w,2.235,54,0,54,0,1,,,,,,,,,,,,,,,,,,,,
,,,,,,,,,,,,,,,,,,,,,,60ea8c3fff09d1cae3f2119c,001,2021-07-19_02h57.15.998,arrow_simon_norep,2021.1.2,Win32,54.2888165,,,,,,,,,,,w,2.099,55,0,55,0,1,,,,,,,,,,,,,,,,,,,,
,,,,,,,,,,,,,,,,,,,,,,60ea8c3fff09d1cae3f2119c,001,2021-07-19_02h57.15.998,arrow_simon_norep,2021.1.2,Win32,54.2888165,,,,,,,,,,,w,2.377,56,0,56,0,1,,,,,,,,,,,,,,,,,,,,
,,,,,,,,,,,,,,,,,,,,,,60ea8c3fff09d1cae3f2119c,001,2021-07-19_02h57.15.998,arrow_simon_norep,2021.1.2,Win32,54.2888165,,,,,,,,,,,w,2.448,57,0,57,0,1,,,,,,,,,,,,,,,,,,,,
,,,,,,,,,,,,,,,,,,,,,,60ea8c3fff09d1cae3f2119c,001,2021-07-19_02h57.15.998,arrow_simon_norep,2021.1.2,Win32,54.2888165,,,,,,,,,,,w,1.914,58,0,58,0,1,,,,,,,,,,,,,,,,,,,,
,,,,,,,,,,,,,,,,,,,,,,60ea8c3fff09d1cae3f2119c,001,2021-07-19_02h57.15.998,arrow_simon_norep,2021.1.2,Win32,54.2888165,,,,,,,,,,,w,2.465,59,0,59,0,1,,,,,,,,,,,,,,,,,,,,
,,,,,,0,1.501530982,#a3d0fb,,left_blue.png,w,,,,,,w,left_blue.png,left_orange.png,q,right,60ea8c3fff09d1cae3f2119c,001,2021-07-19_02h57.15.998,arrow_simon_norep,2021.1.2,Win32,54.2888165,,,,,,,,,,,,,,,,,,space,0,277.238,w,1,3.892,TRUE,FALSE,0,0,0,3,1,,,,,,,
,,,,,,0,1.627918316,#f3af84,,right_orange.png,p,,,,,,o,right_blue.png,right_orange.png,p,left,60ea8c3fff09d1cae3f2119c,001,2021-07-19_02h57.15.998,arrow_simon_norep,2021.1.2,Win32,54.2888165,,,,,,,,,,,,,,,,,,,,,p,1,1.658,TRUE,FALSE,0,1,1,0,1,,,,,,,
,,,,,,0,1.811805527,#a3d0fb,,right_blue.png,o,,,,,,o,right_blue.png,right_orange.png,p,right,60ea8c3fff09d1cae3f2119c,001,2021-07-19_02h57.15.998,arrow_simon_norep,2021.1.2,Win32,54.2888165,,,,,,,,,,,,,,,,,,,,,w,0,1.723,TRUE,FALSE,0,2,2,1,1,,,,,,,
,,,,,,0,1.663726489,#f3af84,,right_orange.png,p,,,,,,o,right_blue.png,right_orange.png,p,left,60ea8c3fff09d1cae3f2119c,001,2021-07-19_02h57.15.998,arrow_simon_norep,2021.1.2,Win32,54.2888165,,,,,,,,,,,,,,,,,,,,,w,0,1.253,FALSE,TRUE,0,3,3,0,1,,,,,,,
,,,,,,0,1.73647632,#a3d0fb,,right_blue.png,o,,,,,,o,right_blue.png,right_orange.png,p,right,60ea8c3fff09d1cae3f2119c,001,2021-07-19_02h57.15.998,arrow_simon_norep,2021.1.2,Win32,54.2888165,,,,,,,,,,,,,,,,,,,,,o,1,2.066,TRUE,FALSE,1,0,4,1,1,,,,,,,
,,,,,,0,1.501008663,#f3af84,,right_orange.png,p,,,,,,o,right_blue.png,right_orange.png,p,right,60ea8c3fff09d1cae3f2119c,001,2021-07-19_02h57.15.998,arrow_simon_norep,2021.1.2,Win32,54.2888165,,,,,,,,,,,,,,,,,,,,,p,1,1.313,FALSE,TRUE,1,1,5,1,1,,,,,,,
,,,,,,0,2.22274463,#a3d0fb,,right_blue.png,o,,,,,,o,right_blue.png,right_orange.png,p,right,60ea8c3fff09d1cae3f2119c,001,2021-07-19_02h57.15.998,arrow_simon_norep,2021.1.2,Win32,54.2888165,,,,,,,,,,,,,,,,,,,,,w,0,2.266,TRUE,FALSE,1,2,6,1,1,,,,,,,
,,,,,,0,2.45503995,#f3af84,,right_orange.png,p,,,,,,o,right_blue.png,right_orange.png,p,right,60ea8c3fff09d1cae3f2119c,001,2021-07-19_02h57.15.998,arrow_simon_norep,2021.1.2,Win32,54.2888165,,,,,,,,,,,,,,,,,,,,,o,0,2.079,TRUE,FALSE,1,3,7,1,1,,,,,,,
,,,,,,0,2.038784366,#a3d0fb,,left_blue.png,w,,,,,,w,left_blue.png,left_orange.png,q,right,60ea8c3fff09d1cae3f2119c,001,2021-07-19_02h57.15.998,arrow_simon_norep,2021.1.2,Win32,54.2888165,,,,,,,,,,,,,,,,,,,,,w,1,1.577,FALSE,FALSE,2,0,8,3,1,,,,,,,
,,,,,,0,1.612326353,#f3af84,,right_orange.png,p,,,,,,o,right_blue.png,right_orange.png,p,right,60ea8c3fff09d1cae3f2119c,001,2021-07-19_02h57.15.998,arrow_simon_norep,2021.1.2,Win32,54.2888165,,,,,,,,,,,,,,,,,,,,,p,1,1.846,TRUE,FALSE,2,1,9,1,1,,,,,,,
,,,,,,0,2.308169473,#a3d0fb,,left_blue.png,w,,,,,,w,left_blue.png,left_orange.png,q,left,60ea8c3fff09d1cae3f2119c,001,2021-07-19_02h57.15.998,arrow_simon_norep,2021.1.2,Win32,54.2888165,,,,,,,,,,,,,,,,,,,,,q,0,1.944,TRUE,FALSE,2,2,10,2,1,,,,,,,
,,,,,,0,2.444257538,#f3af84,,right_orange.png,p,,,,,,o,right_blue.png,right_orange.png,p,left,60ea8c3fff09d1cae3f2119c,001,2021-07-19_02h57.15.998,arrow_simon_norep,2021.1.2,Win32,54.2888165,,,,,,,,,,,,,,,,,,,,,p,1,2.34,TRUE,FALSE,2,3,11,0,1,,,,,,,
,,,,,,0,2.312444414,#a3d0fb,,left_blue.png,w,,,,,,w,left_blue.png,left_orange.png,q,right,60ea8c3fff09d1cae3f2119c,001,2021-07-19_02h57.15.998,arrow_simon_norep,2021.1.2,Win32,54.2888165,,,,,,,,,,,,,,,,,,,,,w,1,1.912,TRUE,FALSE,3,0,12,3,1,,,,,,,
,,,,,,0,2.487056591,#f3af84,,right_orange.png,p,,,,,,o,right_blue.png,right_orange.png,p,right,60ea8c3fff09d1cae3f2119c,001,2021-07-19_02h57.15.998,arrow_simon_norep,2021.1.2,Win32,54.2888165,,,,,,,,,,,,,,,,,,,,,p,1,1.816,TRUE,FALSE,3,1,13,1,1,,,,,,,
,,,,,,0,2.341015195,#a3d0fb,,right_blue.png,o,,,,,,o,right_blue.png,right_orange.png,p,left,60ea8c3fff09d1cae3f2119c,001,2021-07-19_02h57.15.998,arrow_simon_norep,2021.1.2,Win32,54.2888165,,,,,,,,,,,,,,,,,,,,,w,0,1.769,TRUE,FALSE,3,2,14,0,1,,,,,,,
,,,,,,0,1.5768621,#f3af84,,right_orange.png,p,,,,,,o,right_blue.png,right_orange.png,p,left,60ea8c3fff09d1cae3f2119c,001,2021-07-19_02h57.15.998,arrow_simon_norep,2021.1.2,Win32,54.2888165,,,,,,,,,,,,,,,,,,,,,p,1,3.962,TRUE,FALSE,3,3,15,0,1,,,,,,,
,,,,,,0,2.355424895,#a3d0fb,,right_blue.png,o,,,,,,o,right_blue.png,right_orange.png,p,left,60ea8c3fff09d1cae3f2119c,001,2021-07-19_02h57.15.998,arrow_simon_norep,2021.1.2,Win32,54.2888165,,,,,,,,,,,,,,,,,,,,,q,0,1.895,TRUE,FALSE,4,0,16,0,1,,,,,,,
,,,,,,1,1.617889412,#f3af84,,left_orange.png,q,,,,,,w,left_blue.png,left_orange.png,q,right,60ea8c3fff09d1cae3f2119c,001,2021-07-19_02h57.15.998,arrow_simon_norep,2021.1.2,Win32,54.2888165,,,,,,,,,,,,,,,,,,,,,p,0,1.514,FALSE,FALSE,4,1,17,3,1,,,,,,,
,,,,,,1,2.174698454,#a3d0fb,,left_blue.png,w,,,,,,w,left_blue.png,left_orange.png,q,left,60ea8c3fff09d1cae3f2119c,001,2021-07-19_02h57.15.998,arrow_simon_norep,2021.1.2,Win32,54.2888165,,,,,,,,,,,,,,,,,,,,,w,1,2.11,TRUE,FALSE,4,2,18,2,1,,,,,,,
,,,,,,1,1.512705794,#f3af84,,left_orange.png,q,,,,,,w,left_blue.png,left_orange.png,q,right,60ea8c3fff09d1cae3f2119c,001,2021-07-19_02h57.15.998,arrow_simon_norep,2021.1.2,Win32,54.2888165,,,,,,,,,,,,,,,,,,,,,q,1,1.674,TRUE,FALSE,4,3,19,3,1,,,,,,,
,,,,,,1,1.646198865,#a3d0fb,,left_blue.png,w,,,,,,w,left_blue.png,left_orange.png,q,left,60ea8c3fff09d1cae3f2119c,001,2021-07-19_02h57.15.998,arrow_simon_norep,2021.1.2,Win32,54.2888165,,,,,,,,,,,,,,,,,,,,,w,1,1.304,FALSE,TRUE,5,0,20,2,1,,,,,,,
,,,,,,1,1.87263762,#f3af84,,left_orange.png,q,,,,,,w,left_blue.png,left_orange.png,q,left,60ea8c3fff09d1cae3f2119c,001,2021-07-19_02h57.15.998,arrow_simon_norep,2021.1.2,Win32,54.2888165,,,,,,,,,,,,,,,,,,,,,w,0,1.624,TRUE,FALSE,5,1,21,2,1,,,,,,,
,,,,,,1,1.744258569,#a3d0fb,,right_blue.png,o,,,,,,o,right_blue.png,right_orange.png,p,right,60ea8c3fff09d1cae3f2119c,001,2021-07-19_02h57.15.998,arrow_simon_norep,2021.1.2,Win32,54.2888165,,,,,,,,,,,,,,,,,,,,,o,1,2.066,TRUE,FALSE,5,2,22,1,1,,,,,,,
,,,,,,1,1.748749807,#f3af84,,right_orange.png,p,,,,,,o,right_blue.png,right_orange.png,p,right,60ea8c3fff09d1cae3f2119c,001,2021-07-19_02h57.15.998,arrow_simon_norep,2021.1.2,Win32,54.2888165,,,,,,,,,,,,,,,,,,,,,o,0,1.138,FALSE,TRUE,5,3,23,1,1,,,,,,,
,,,,,,1,1.94359952,#a3d0fb,,right_blue.png,o,,,,,,o,right_blue.png,right_orange.png,p,left,60ea8c3fff09d1cae3f2119c,001,2021-07-19_02h57.15.998,arrow_simon_norep,2021.1.2,Win32,54.2888165,,,,,,,,,,,,,,,,,,,,,w,0,1.692,TRUE,FALSE,6,0,24,0,1,,,,,,,
,,,,,,1,1.875534717,#f3af84,,left_orange.png,q,,,,,,w,left_blue.png,left_orange.png,q,left,60ea8c3fff09d1cae3f2119c,001,2021-07-19_02h57.15.998,arrow_simon_norep,2021.1.2,Win32,54.2888165,,,,,,,,,,,,,,,,,,,,,q,1,1.816,TRUE,FALSE,6,1,25,2,1,,,,,,,
,,,,,,1,2.347947391,#a3d0fb,,left_blue.png,w,,,,,,w,left_blue.png,left_orange.png,q,right,60ea8c3fff09d1cae3f2119c,001,2021-07-19_02h57.15.998,arrow_simon_norep,2021.1.2,Win32,54.2888165,,,,,,,,,,,,,,,,,,,,,p,0,1.875,TRUE,FALSE,6,2,26,3,1,,,,,,,
,,,,,,1,1.727434909,#f3af84,,right_orange.png,p,,,,,,o,right_blue.png,right_orange.png,p,left,60ea8c3fff09d1cae3f2119c,001,2021-07-19_02h57.15.998,arrow_simon_norep,2021.1.2,Win32,54.2888165,,,,,,,,,,,,,,,,,,,,,o,0,2.441,TRUE,FALSE,6,3,27,0,1,,,,,,,
,,,,,,1,1.853308801,#a3d0fb,,right_blue.png,o,,,,,,o,right_blue.png,right_orange.png,p,left,60ea8c3fff09d1cae3f2119c,001,2021-07-19_02h57.15.998,arrow_simon_norep,2021.1.2,Win32,54.2888165,,,,,,,,,,,,,,,,,,,,,o,1,2.336,TRUE,FALSE,7,0,28,0,1,,,,,,,
,,,,,,1,2.445004222,#f3af84,,left_orange.png,q,,,,,,w,left_blue.png,left_orange.png,q,right,60ea8c3fff09d1cae3f2119c,001,2021-07-19_02h57.15.998,arrow_simon_norep,2021.1.2,Win32,54.2888165,,,,,,,,,,,,,,,,,,,,,p,0,1.934,TRUE,FALSE,7,1,29,3,1,,,,,,,
,,,,,,1,1.776906611,#a3d0fb,,left_blue.png,w,,,,,,w,left_blue.png,left_orange.png,q,left,60ea8c3fff09d1cae3f2119c,001,2021-07-19_02h57.15.998,arrow_simon_norep,2021.1.2,Win32,54.2888165,,,,,,,,,,,,,,,,,,,,,w,1,1.935,TRUE,FALSE,7,2,30,2,1,,,,,,,
,,,,,,1,2.475524025,#f3af84,,left_orange.png,q,,,,,,w,left_blue.png,left_orange.png,q,left,60ea8c3fff09d1cae3f2119c,001,2021-07-19_02h57.15.998,arrow_simon_norep,2021.1.2,Win32,54.2888165,,,,,,,,,,,,,,,,,,,,,w,0,1.82,TRUE,FALSE,7,3,31,2,1,,,,,,,
,,,,,,1,1.934603853,#a3d0fb,,right_blue.png,o,,,,,,o,right_blue.png,right_orange.png,p,left,60ea8c3fff09d1cae3f2119c,001,2021-07-19_02h57.15.998,arrow_simon_norep,2021.1.2,Win32,54.2888165,,,,,,,,,,,,,,,,,,,,,o,1,2.315,TRUE,FALSE,8,0,32,0,1,,,,,,,
,,,,,,1,1.902632334,#f3af84,,left_orange.png,q,,,,,,w,left_blue.png,left_orange.png,q,left,60ea8c3fff09d1cae3f2119c,001,2021-07-19_02h57.15.998,arrow_simon_norep,2021.1.2,Win32,54.2888165,,,,,,,,,,,,,,,,,,,,,p,0,1.873,TRUE,FALSE,8,1,33,2,1,,,,,,,
,,,,,,1,2.302910018,#a3d0fb,,left_blue.png,w,,,,,,w,left_blue.png,left_orange.png,q,left,60ea8c3fff09d1cae3f2119c,001,2021-07-19_02h57.15.998,arrow_simon_norep,2021.1.2,Win32,54.2888165,,,,,,,,,,,,,,,,,,,,,q,0,1.886,TRUE,FALSE,8,2,34,2,1,,,,,,,
,,,,,,1,2.233109823,#f3af84,,left_orange.png,q,,,,,,w,left_blue.png,left_orange.png,q,right,60ea8c3fff09d1cae3f2119c,001,2021-07-19_02h57.15.998,arrow_simon_norep,2021.1.2,Win32,54.2888165,,,,,,,,,,,,,,,,,,,,,p,0,2.024,TRUE,FALSE,8,3,35,3,1,,,,,,,
,,,,,,1,1.605345838,#a3d0fb,,right_blue.png,o,,,,,,o,right_blue.png,right_orange.png,p,right,60ea8c3fff09d1cae3f2119c,001,2021-07-19_02h57.15.998,arrow_simon_norep,2021.1.2,Win32,54.2888165,,,,,,,,,,,,,,,,,,,,,w,0,0.064,FALSE,TRUE,9,0,36,1,1,,,,,,,
,,,,,,1,1.851084729,#f3af84,,right_orange.png,p,,,,,,o,right_blue.png,right_orange.png,p,left,60ea8c3fff09d1cae3f2119c,001,2021-07-19_02h57.15.998,arrow_simon_norep,2021.1.2,Win32,54.2888165,,,,,,,,,,,,,,,,,,,,,w,0,0.418,FALSE,TRUE,9,1,37,0,1,,,,,,,
,,,,,,1,1.90440231,#a3d0fb,,right_blue.png,o,,,,,,o,right_blue.png,right_orange.png,p,right,60ea8c3fff09d1cae3f2119c,001,2021-07-19_02h57.15.998,arrow_simon_norep,2021.1.2,Win32,54.2888165,,,,,,,,,,,,,,,,,,,,,w,0,1.302,FALSE,TRUE,9,2,38,1,1,,,,,,,
,,,,,,1,2.007658087,#f3af84,,right_orange.png,p,,,,,,o,right_blue.png,right_orange.png,p,left,60ea8c3fff09d1cae3f2119c,001,2021-07-19_02h57.15.998,arrow_simon_norep,2021.1.2,Win32,54.2888165,,,,,,,,,,,,,,,,,,,,,w,0,1.789,TRUE,FALSE,9,3,39,0,1,,,,,,,
,,,,,,1,2.427303073,#a3d0fb,,right_blue.png,o,,,,,,o,right_blue.png,right_orange.png,p,left,60ea8c3fff09d1cae3f2119c,001,2021-07-19_02h57.15.998,arrow_simon_norep,2021.1.2,Win32,54.2888165,,,,,,,,,,,,,,,,,,,,,w,0,1.979,TRUE,FALSE,10,0,40,0,1,,,,,,,
,,,,,,1,2.465957534,#f3af84,,left_orange.png,q,,,,,,w,left_blue.png,left_orange.png,q,left,60ea8c3fff09d1cae3f2119c,001,2021-07-19_02h57.15.998,arrow_simon_norep,2021.1.2,Win32,54.2888165,,,,,,,,,,,,,,,,,,,,,p,0,1.161,FALSE,TRUE,10,1,41,2,1,,,,,,,
,,,,,,1,2.322556013,#a3d0fb,,left_blue.png,w,,,,,,w,left_blue.png,left_orange.png,q,right,60ea8c3fff09d1cae3f2119c,001,2021-07-19_02h57.15.998,arrow_simon_norep,2021.1.2,Win32,54.2888165,,,,,,,,,,,,,,,,,,,,,o,0,2.18,TRUE,FALSE,10,2,42,3,1,,,,,,,
,,,,,,1,1.738208263,#f3af84,,right_orange.png,p,,,,,,o,right_blue.png,right_orange.png,p,left,60ea8c3fff09d1cae3f2119c,001,2021-07-19_02h57.15.998,arrow_simon_norep,2021.1.2,Win32,54.2888165,,,,,,,,,,,,,,,,,,,,,o,0,2.713,TRUE,FALSE,10,3,43,0,1,,,,,,,
,,,,,,1,1.656019774,#a3d0fb,,right_blue.png,o,,,,,,o,right_blue.png,right_orange.png,p,right,60ea8c3fff09d1cae3f2119c,001,2021-07-19_02h57.15.998,arrow_simon_norep,2021.1.2,Win32,54.2888165,,,,,,,,,,,,,,,,,,,,,p,0,0.522,FALSE,TRUE,11,0,44,1,1,,,,,,,
,,,,,,1,2.489237398,#f3af84,,right_orange.png,p,,,,,,o,right_blue.png,right_orange.png,p,right,60ea8c3fff09d1cae3f2119c,001,2021-07-19_02h57.15.998,arrow_simon_norep,2021.1.2,Win32,54.2888165,,,,,,,,,,,,,,,,,,,,,p,1,0.027,FALSE,TRUE,11,1,45,1,1,,,,,,,
,,,,,,1,1.756925051,#a3d0fb,,left_blue.png,w,,,,,,w,left_blue.png,left_orange.png,q,left,60ea8c3fff09d1cae3f2119c,001,2021-07-19_02h57.15.998,arrow_simon_norep,2021.1.2,Win32,54.2888165,,,,,,,,,,,,,,,,,,,,,p,0,1.084,FALSE,TRUE,11,2,46,2,1,,,,,,,
,,,,,,1,2.154171677,#f3af84,,left_orange.png,q,,,,,,w,left_blue.png,left_orange.png,q,left,60ea8c3fff09d1cae3f2119c,001,2021-07-19_02h57.15.998,arrow_simon_norep,2021.1.2,Win32,54.2888165,,,,,,,,,,,,,,,,,,,,,w,0,1.583,FALSE,FALSE,11,3,47,2,1,,,,,,,
,,,,,,1,2.232394067,#a3d0fb,,left_blue.png,w,,,,,,w,left_blue.png,left_orange.png,q,right,60ea8c3fff09d1cae3f2119c,001,2021-07-19_02h57.15.998,arrow_simon_norep,2021.1.2,Win32,54.2888165,,,,,,,,,,,,,,,,,,,,,q,0,1.57,FALSE,FALSE,12,0,48,3,1,,,,,,,
,,,,,,1,2.438742103,#f3af84,,right_orange.png,p,,,,,,o,right_blue.png,right_orange.png,p,right,60ea8c3fff09d1cae3f2119c,001,2021-07-19_02h57.15.998,arrow_simon_norep,2021.1.2,Win32,54.2888165,,,,,,,,,,,,,,,,,,,,,p,1,2.224,TRUE,FALSE,12,1,49,1,1,,,,,,,
,,,,,,1,1.887127789,#a3d0fb,,right_blue.png,o,,,,,,o,right_blue.png,right_orange.png,p,left,60ea8c3fff09d1cae3f2119c,001,2021-07-19_02h57.15.998,arrow_simon_norep,2021.1.2,Win32,54.2888165,,,,,,,,,,,,,,,,,,,,,w,0,1.566,FALSE,FALSE,12,2,50,0,1,,,,,,,
,,,,,,1,1.80019947,#f3af84,,left_orange.png,q,,,,,,w,left_blue.png,left_orange.png,q,right,60ea8c3fff09d1cae3f2119c,001,2021-07-19_02h57.15.998,arrow_simon_norep,2021.1.2,Win32,54.2888165,,,,,,,,,,,,,,,,,,,,,p,0,1.808,TRUE,FALSE,12,3,51,3,1,,,,,,,
,,,,,,1,1.671676538,#a3d0fb,,left_blue.png,w,,,,,,w,left_blue.png,left_orange.png,q,right,60ea8c3fff09d1cae3f2119c,001,2021-07-19_02h57.15.998,arrow_simon_norep,2021.1.2,Win32,54.2888165,,,,,,,,,,,,,,,,,,,,,w,1,2.004,TRUE,FALSE,13,0,52,3,1,,,,,,,
,,,,,,1,2.296665706,#f3af84,,right_orange.png,p,,,,,,o,right_blue.png,right_orange.png,p,right,60ea8c3fff09d1cae3f2119c,001,2021-07-19_02h57.15.998,arrow_simon_norep,2021.1.2,Win32,54.2888165,,,,,,,,,,,,,,,,,,,,,p,1,1.98,TRUE,FALSE,13,1,53,1,1,,,,,,,
,,,,,,1,1.579162798,#a3d0fb,,left_blue.png,w,,,,,,w,left_blue.png,left_orange.png,q,left,60ea8c3fff09d1cae3f2119c,001,2021-07-19_02h57.15.998,arrow_simon_norep,2021.1.2,Win32,54.2888165,,,,,,,,,,,,,,,,,,,,,q,0,1.288,FALSE,TRUE,13,2,54,2,1,,,,,,,
,,,,,,1,1.659497099,#f3af84,,left_orange.png,q,,,,,,w,left_blue.png,left_orange.png,q,right,60ea8c3fff09d1cae3f2119c,001,2021-07-19_02h57.15.998,arrow_simon_norep,2021.1.2,Win32,54.2888165,,,,,,,,,,,,,,,,,,,,,p,0,1.975,TRUE,FALSE,13,3,55,3,1,,,,,,,
,,,,,,1,2.451280251,#a3d0fb,,left_blue.png,w,,,,,,w,left_blue.png,left_orange.png,q,right,60ea8c3fff09d1cae3f2119c,001,2021-07-19_02h57.15.998,arrow_simon_norep,2021.1.2,Win32,54.2888165,,,,,,,,,,,,,,,,,,,,,w,1,2.206,TRUE,FALSE,14,0,56,3,1,,,,,,,
,,,,,,1,1.820541324,#f3af84,,left_orange.png,q,,,,,,w,left_blue.png,left_orange.png,q,left,60ea8c3fff09d1cae3f2119c,001,2021-07-19_02h57.15.998,arrow_simon_norep,2021.1.2,Win32,54.2888165,,,,,,,,,,,,,,,,,,,,,q,1,1.683,TRUE,FALSE,14,1,57,2,1,,,,,,,
,,,,,,1,2.215640647,#a3d0fb,,left_blue.png,w,,,,,,w,left_blue.png,left_orange.png,q,left,60ea8c3fff09d1cae3f2119c,001,2021-07-19_02h57.15.998,arrow_simon_norep,2021.1.2,Win32,54.2888165,,,,,,,,,,,,,,,,,,,,,q,0,1.657,TRUE,FALSE,14,2,58,2,1,,,,,,,
,,,,,,1,1.731707834,#f3af84,,left_orange.png,q,,,,,,w,left_blue.png,left_orange.png,q,right,60ea8c3fff09d1cae3f2119c,001,2021-07-19_02h57.15.998,arrow_simon_norep,2021.1.2,Win32,54.2888165,,,,,,,,,,,,,,,,,,,,,w,0,1.492,FALSE,FALSE,14,3,59,3,1,,,,,,,
,,,,,,,,,,,,,,,,,,,,,,60ea8c3fff09d1cae3f2119c,001,2021-07-19_02h57.15.998,arrow_simon_norep,2021.1.2,Win32,54.2888165,,,,,,,,,,,,,,,,,,,,,,,,,,,,,,,space,96.261,0,0,0,0,1
,,,,,,1,1.806485995,#a3d0fb,,right_blue.png,o,,,,,,o,right_blue.png,right_orange.png,p,right,60ea8c3fff09d1cae3f2119c,001,2021-07-19_02h57.15.998,arrow_simon_norep,2021.1.2,Win32,54.2888165,,,,,,,,,,,,,,,,,,,,,p,0,1.627,TRUE,FALSE,0,0,0,1,1,,,,,,,
,,,,,,1,2.073451506,#f3af84,,right_orange.png,p,,,,,,o,right_blue.png,right_orange.png,p,left,60ea8c3fff09d1cae3f2119c,001,2021-07-19_02h57.15.998,arrow_simon_norep,2021.1.2,Win32,54.2888165,,,,,,,,,,,,,,,,,,,,,p,1,2.089,TRUE,FALSE,0,1,1,0,1,,,,,,,
,,,,,,1,1.849878593,#a3d0fb,,left_blue.png,w,,,,,,w,left_blue.png,left_orange.png,q,left,60ea8c3fff09d1cae3f2119c,001,2021-07-19_02h57.15.998,arrow_simon_norep,2021.1.2,Win32,54.2888165,,,,,,,,,,,,,,,,,,,,,w,1,1.607,TRUE,FALSE,0,2,2,2,1,,,,,,,
,,,,,,1,2.15239447,#f3af84,,left_orange.png,q,,,,,,w,left_blue.png,left_orange.png,q,right,60ea8c3fff09d1cae3f2119c,001,2021-07-19_02h57.15.998,arrow_simon_norep,2021.1.2,Win32,54.2888165,,,,,,,,,,,,,,,,,,,,,p,0,1.887,TRUE,FALSE,0,3,3,3,1,,,,,,,
,,,,,,1,1.794151708,#a3d0fb,,right_blue.png,o,,,,,,o,right_blue.png,right_orange.png,p,right,60ea8c3fff09d1cae3f2119c,001,2021-07-19_02h57.15.998,arrow_simon_norep,2021.1.2,Win32,54.2888165,,,,,,,,,,,,,,,,,,,,,w,0,0.563,FALSE,TRUE,1,0,4,1,1,,,,,,,
,,,,,,1,1.875559337,#f3af84,,right_orange.png,p,,,,,,o,right_blue.png,right_orange.png,p,left,60ea8c3fff09d1cae3f2119c,001,2021-07-19_02h57.15.998,arrow_simon_norep,2021.1.2,Win32,54.2888165,,,,,,,,,,,,,,,,,,,,,p,1,1.985,TRUE,FALSE,1,1,5,0,1,,,,,,,
,,,,,,1,2.182939924,#a3d0fb,,left_blue.png,w,,,,,,w,left_blue.png,left_orange.png,q,left,60ea8c3fff09d1cae3f2119c,001,2021-07-19_02h57.15.998,arrow_simon_norep,2021.1.2,Win32,54.2888165,,,,,,,,,,,,,,,,,,,,,w,1,1.684,TRUE,FALSE,1,2,6,2,1,,,,,,,
,,,,,,1,2.494396224,#f3af84,,left_orange.png,q,,,,,,w,left_blue.png,left_orange.png,q,left,60ea8c3fff09d1cae3f2119c,001,2021-07-19_02h57.15.998,arrow_simon_norep,2021.1.2,Win32,54.2888165,,,,,,,,,,,,,,,,,,,,,w,0,1.845,TRUE,FALSE,1,3,7,2,1,,,,,,,
,,,,,,1,1.837310648,#a3d0fb,,left_blue.png,w,,,,,,w,left_blue.png,left_orange.png,q,left,60ea8c3fff09d1cae3f2119c,001,2021-07-19_02h57.15.998,arrow_simon_norep,2021.1.2,Win32,54.2888165,,,,,,,,,,,,,,,,,,,,,w,1,1.687,TRUE,FALSE,2,0,8,2,1,,,,,,,
,,,,,,1,1.980724723,#f3af84,,left_orange.png,q,,,,,,w,left_blue.png,left_orange.png,q,right,60ea8c3fff09d1cae3f2119c,001,2021-07-19_02h57.15.998,arrow_simon_norep,2021.1.2,Win32,54.2888165,,,,,,,,,,,,,,,,,,,,,p,0,1.476,FALSE,FALSE,2,1,9,3,1,,,,,,,
,,,,,,0,1.900593895,#a3d0fb,,right_blue.png,o,,,,,,o,right_blue.png,right_orange.png,p,right,60ea8c3fff09d1cae3f2119c,001,2021-07-19_02h57.15.998,arrow_simon_norep,2021.1.2,Win32,54.2888165,,,,,,,,,,,,,,,,,,,,,o,1,1.562,FALSE,FALSE,2,2,10,1,1,,,,,,,
,,,,,,0,1.54337949,#f3af84,,left_orange.png,q,,,,,,w,left_blue.png,left_orange.png,q,right,60ea8c3fff09d1cae3f2119c,001,2021-07-19_02h57.15.998,arrow_simon_norep,2021.1.2,Win32,54.2888165,,,,,,,,,,,,,,,,,,,,,p,0,1.324,FALSE,TRUE,2,3,11,3,1,,,,,,,
,,,,,,1,2.03148671,#a3d0fb,,right_blue.png,o,,,,,,o,right_blue.png,right_orange.png,p,left,60ea8c3fff09d1cae3f2119c,001,2021-07-19_02h57.15.998,arrow_simon_norep,2021.1.2,Win32,54.2888165,,,,,,,,,,,,,,,,,,,,,q,0,1.526,FALSE,FALSE,3,0,12,0,1,,,,,,,
,,,,,,1,2.281751243,#f3af84,,left_orange.png,q,,,,,,w,left_blue.png,left_orange.png,q,right,60ea8c3fff09d1cae3f2119c,001,2021-07-19_02h57.15.998,arrow_simon_norep,2021.1.2,Win32,54.2888165,,,,,,,,,,,,,,,,,,,,,p,0,2.018,TRUE,FALSE,3,1,13,3,1,,,,,,,
,,,,,,1,1.782531086,#a3d0fb,,right_blue.png,o,,,,,,o,right_blue.png,right_orange.png,p,right,60ea8c3fff09d1cae3f2119c,001,2021-07-19_02h57.15.998,arrow_simon_norep,2021.1.2,Win32,54.2888165,,,,,,,,,,,,,,,,,,,,,p,0,1.466,FALSE,FALSE,3,2,14,1,1,,,,,,,
,,,,,,1,1.987267334,#f3af84,,left_orange.png,q,,,,,,w,left_blue.png,left_orange.png,q,left,60ea8c3fff09d1cae3f2119c,001,2021-07-19_02h57.15.998,arrow_simon_norep,2021.1.2,Win32,54.2888165,,,,,,,,,,,,,,,,,,,,,q,1,1.844,TRUE,FALSE,3,3,15,2,1,,,,,,,
,,,,,,1,1.734775399,#a3d0fb,,left_blue.png,w,,,,,,w,left_blue.png,left_orange.png,q,right,60ea8c3fff09d1cae3f2119c,001,2021-07-19_02h57.15.998,arrow_simon_norep,2021.1.2,Win32,54.2888165,,,,,,,,,,,,,,,,,,,,,o,0,1.49,FALSE,FALSE,4,0,16,3,1,,,,,,,
,,,,,,1,2.452667479,#f3af84,,left_orange.png,q,,,,,,w,left_blue.png,left_orange.png,q,left,60ea8c3fff09d1cae3f2119c,001,2021-07-19_02h57.15.998,arrow_simon_norep,2021.1.2,Win32,54.2888165,,,,,,,,,,,,,,,,,,,,,q,1,2.371,TRUE,FALSE,4,1,17,2,1,,,,,,,
,,,,,,1,2.038733345,#a3d0fb,,right_blue.png,o,,,,,,o,right_blue.png,right_orange.png,p,right,60ea8c3fff09d1cae3f2119c,001,2021-07-19_02h57.15.998,arrow_simon_norep,2021.1.2,Win32,54.2888165,,,,,,,,,,,,,,,,,,,,,p,0,1.942,TRUE,FALSE,4,2,18,1,1,,,,,,,
,,,,,,1,2.462589598,#f3af84,,left_orange.png,q,,,,,,w,left_blue.png,left_orange.png,q,left,60ea8c3fff09d1cae3f2119c,001,2021-07-19_02h57.15.998,arrow_simon_norep,2021.1.2,Win32,54.2888165,,,,,,,,,,,,,,,,,,,,,q,1,2.597,TRUE,FALSE,4,3,19,2,1,,,,,,,
,,,,,,1,1.633123988,#a3d0fb,,left_blue.png,w,,,,,,w,left_blue.png,left_orange.png,q,left,60ea8c3fff09d1cae3f2119c,001,2021-07-19_02h57.15.998,arrow_simon_norep,2021.1.2,Win32,54.2888165,,,,,,,,,,,,,,,,,,,,,q,0,1.14,FALSE,TRUE,5,0,20,2,1,,,,,,,
,,,,,,1,1.932870563,#f3af84,,right_orange.png,p,,,,,,o,right_blue.png,right_orange.png,p,left,60ea8c3fff09d1cae3f2119c,001,2021-07-19_02h57.15.998,arrow_simon_norep,2021.1.2,Win32,54.2888165,,,,,,,,,,,,,,,,,,,,,o,0,1.879,TRUE,FALSE,5,1,21,0,1,,,,,,,
,,,,,,1,1.542474492,#a3d0fb,,right_blue.png,o,,,,,,o,right_blue.png,right_orange.png,p,right,60ea8c3fff09d1cae3f2119c,001,2021-07-19_02h57.15.998,arrow_simon_norep,2021.1.2,Win32,54.2888165,,,,,,,,,,,,,,,,,,,,,o,1,1.168,FALSE,TRUE,5,2,22,1,1,,,,,,,
,,,,,,1,1.758405594,#f3af84,,left_orange.png,q,,,,,,w,left_blue.png,left_orange.png,q,right,60ea8c3fff09d1cae3f2119c,001,2021-07-19_02h57.15.998,arrow_simon_norep,2021.1.2,Win32,54.2888165,,,,,,,,,,,,,,,,,,,,,p,0,1.321,FALSE,TRUE,5,3,23,3,1,,,,,,,
,,,,,,1,2.426110597,#a3d0fb,,left_blue.png,w,,,,,,w,left_blue.png,left_orange.png,q,right,60ea8c3fff09d1cae3f2119c,001,2021-07-19_02h57.15.998,arrow_simon_norep,2021.1.2,Win32,54.2888165,,,,,,,,,,,,,,,,,,,,,q,0,1.972,TRUE,FALSE,6,0,24,3,1,,,,,,,
,,,,,,0,1.70871799,#f3af84,,left_orange.png,q,,,,,,w,left_blue.png,left_orange.png,q,left,60ea8c3fff09d1cae3f2119c,001,2021-07-19_02h57.15.998,arrow_simon_norep,2021.1.2,Win32,54.2888165,,,,,,,,,,,,,,,,,,,,,q,1,1.469,FALSE,FALSE,6,1,25,2,1,,,,,,,
,,,,,,0,2.370709662,#a3d0fb,,left_blue.png,w,,,,,,w,left_blue.png,left_orange.png,q,left,60ea8c3fff09d1cae3f2119c,001,2021-07-19_02h57.15.998,arrow_simon_norep,2021.1.2,Win32,54.2888165,,,,,,,,,,,,,,,,,,,,,q,0,1.992,TRUE,FALSE,6,2,26,2,1,,,,,,,
,,,,,,0,2.228252539,#f3af84,,right_orange.png,p,,,,,,o,right_blue.png,right_orange.png,p,left,60ea8c3fff09d1cae3f2119c,001,2021-07-19_02h57.15.998,arrow_simon_norep,2021.1.2,Win32,54.2888165,,,,,,,,,,,,,,,,,,,,,p,1,2.126,TRUE,FALSE,6,3,27,0,1,,,,,,,
,,,,,,0,1.538325085,#a3d0fb,,left_blue.png,w,,,,,,w,left_blue.png,left_orange.png,q,left,60ea8c3fff09d1cae3f2119c,001,2021-07-19_02h57.15.998,arrow_simon_norep,2021.1.2,Win32,54.2888165,,,,,,,,,,,,,,,,,,,,,o,0,1.117,FALSE,TRUE,7,0,28,2,1,,,,,,,
,,,,,,0,2.377322355,#f3af84,,left_orange.png,q,,,,,,w,left_blue.png,left_orange.png,q,right,60ea8c3fff09d1cae3f2119c,001,2021-07-19_02h57.15.998,arrow_simon_norep,2021.1.2,Win32,54.2888165,,,,,,,,,,,,,,,,,,,,,p,0,2.039,TRUE,FALSE,7,1,29,3,1,,,,,,,
,,,,,,0,1.780950878,#a3d0fb,,left_blue.png,w,,,,,,w,left_blue.png,left_orange.png,q,left,60ea8c3fff09d1cae3f2119c,001,2021-07-19_02h57.15.998,arrow_simon_norep,2021.1.2,Win32,54.2888165,,,,,,,,,,,,,,,,,,,,,o,0,1.235,FALSE,TRUE,7,2,30,2,1,,,,,,,
,,,,,,0,2.003234189,#f3af84,,left_orange.png,q,,,,,,w,left_blue.png,left_orange.png,q,right,60ea8c3fff09d1cae3f2119c,001,2021-07-19_02h57.15.998,arrow_simon_norep,2021.1.2,Win32,54.2888165,,,,,,,,,,,,,,,,,,,,,p,0,1.79,TRUE,FALSE,7,3,31,3,1,,,,,,,
,,,,,,0,1.742861398,#a3d0fb,,right_blue.png,o,,,,,,o,right_blue.png,right_orange.png,p,left,60ea8c3fff09d1cae3f2119c,001,2021-07-19_02h57.15.998,arrow_simon_norep,2021.1.2,Win32,54.2888165,,,,,,,,,,,,,,,,,,,,,w,0,1.656,TRUE,FALSE,8,0,32,0,1,,,,,,,
,,,,,,0,2.360922749,#f3af84,,right_orange.png,p,,,,,,o,right_blue.png,right_orange.png,p,right,60ea8c3fff09d1cae3f2119c,001,2021-07-19_02h57.15.998,arrow_simon_norep,2021.1.2,Win32,54.2888165,,,,,,,,,,,,,,,,,,,,,p,1,2.24,TRUE,FALSE,8,1,33,1,1,,,,,,,
,,,,,,1,2.012489716,#a3d0fb,,left_blue.png,w,,,,,,w,left_blue.png,left_orange.png,q,right,60ea8c3fff09d1cae3f2119c,001,2021-07-19_02h57.15.998,arrow_simon_norep,2021.1.2,Win32,54.2888165,,,,,,,,,,,,,,,,,,,,,o,0,1.531,FALSE,FALSE,8,2,34,3,1,,,,,,,
,,,,,,1,1.805027465,#f3af84,,right_orange.png,p,,,,,,o,right_blue.png,right_orange.png,p,right,60ea8c3fff09d1cae3f2119c,001,2021-07-19_02h57.15.998,arrow_simon_norep,2021.1.2,Win32,54.2888165,,,,,,,,,,,,,,,,,,,,,o,0,1.454,FALSE,FALSE,8,3,35,1,1,,,,,,,
,,,,,,0,1.649079824,#a3d0fb,,right_blue.png,o,,,,,,o,right_blue.png,right_orange.png,p,left,60ea8c3fff09d1cae3f2119c,001,2021-07-19_02h57.15.998,arrow_simon_norep,2021.1.2,Win32,54.2888165,,,,,,,,,,,,,,,,,,,,,o,1,1.58,FALSE,FALSE,9,0,36,0,1,,,,,,,
,,,,,,0,2.276290891,#f3af84,,right_orange.png,p,,,,,,o,right_blue.png,right_orange.png,p,left,60ea8c3fff09d1cae3f2119c,001,2021-07-19_02h57.15.998,arrow_simon_norep,2021.1.2,Win32,54.2888165,,,,,,,,,,,,,,,,,,,,,p,1,1.897,TRUE,FALSE,9,1,37,0,1,,,,,,,
,,,,,,0,1.552532381,#a3d0fb,,right_blue.png,o,,,,,,o,right_blue.png,right_orange.png,p,left,60ea8c3fff09d1cae3f2119c,001,2021-07-19_02h57.15.998,arrow_simon_norep,2021.1.2,Win32,54.2888165,,,,,,,,,,,,,,,,,,,,,o,1,1.143,FALSE,TRUE,9,2,38,0,1,,,,,,,
,,,,,,1,1.862605601,#f3af84,,left_orange.png,q,,,,,,w,left_blue.png,left_orange.png,q,left,60ea8c3fff09d1cae3f2119c,001,2021-07-19_02h57.15.998,arrow_simon_norep,2021.1.2,Win32,54.2888165,,,,,,,,,,,,,,,,,,,,,p,0,1.578,FALSE,FALSE,9,3,39,2,1,,,,,,,
,,,,,,1,2.436711853,#a3d0fb,,right_blue.png,o,,,,,,o,right_blue.png,right_orange.png,p,right,60ea8c3fff09d1cae3f2119c,001,2021-07-19_02h57.15.998,arrow_simon_norep,2021.1.2,Win32,54.2888165,,,,,,,,,,,,,,,,,,,,,o,1,2.007,TRUE,FALSE,10,0,40,1,1,,,,,,,
,,,,,,1,2.370068909,#f3af84,,left_orange.png,q,,,,,,w,left_blue.png,left_orange.png,q,right,60ea8c3fff09d1cae3f2119c,001,2021-07-19_02h57.15.998,arrow_simon_norep,2021.1.2,Win32,54.2888165,,,,,,,,,,,,,,,,,,,,,w,0,1.926,TRUE,FALSE,10,1,41,3,1,,,,,,,
,,,,,,1,1.926067801,#a3d0fb,,right_blue.png,o,,,,,,o,right_blue.png,right_orange.png,p,left,60ea8c3fff09d1cae3f2119c,001,2021-07-19_02h57.15.998,arrow_simon_norep,2021.1.2,Win32,54.2888165,,,,,,,,,,,,,,,,,,,,,o,1,1.844,TRUE,FALSE,10,2,42,0,1,,,,,,,
,,,,,,1,2.17049195,#f3af84,,right_orange.png,p,,,,,,o,right_blue.png,right_orange.png,p,right,60ea8c3fff09d1cae3f2119c,001,2021-07-19_02h57.15.998,arrow_simon_norep,2021.1.2,Win32,54.2888165,,,,,,,,,,,,,,,,,,,,,o,0,1.492,FALSE,FALSE,10,3,43,1,1,,,,,,,
,,,,,,1,2.419491167,#a3d0fb,,right_blue.png,o,,,,,,o,right_blue.png,right_orange.png,p,right,60ea8c3fff09d1cae3f2119c,001,2021-07-19_02h57.15.998,arrow_simon_norep,2021.1.2,Win32,54.2888165,,,,,,,,,,,,,,,,,,,,,p,0,1.785,TRUE,FALSE,11,0,44,1,1,,,,,,,
,,,,,,1,2.483566806,#f3af84,,right_orange.png,p,,,,,,o,right_blue.png,right_orange.png,p,right,60ea8c3fff09d1cae3f2119c,001,2021-07-19_02h57.15.998,arrow_simon_norep,2021.1.2,Win32,54.2888165,,,,,,,,,,,,,,,,,,,,,o,0,1.839,TRUE,FALSE,11,1,45,1,1,,,,,,,
,,,,,,1,2.297668739,#a3d0fb,,right_blue.png,o,,,,,,o,right_blue.png,right_orange.png,p,right,60ea8c3fff09d1cae3f2119c,001,2021-07-19_02h57.15.998,arrow_simon_norep,2021.1.2,Win32,54.2888165,,,,,,,,,,,,,,,,,,,,,p,0,1.658,TRUE,FALSE,11,2,46,1,1,,,,,,,
,,,,,,1,2.393150895,#f3af84,,left_orange.png,q,,,,,,w,left_blue.png,left_orange.png,q,left,60ea8c3fff09d1cae3f2119c,001,2021-07-19_02h57.15.998,arrow_simon_norep,2021.1.2,Win32,54.2888165,,,,,,,,,,,,,,,,,,,,,o,0,2.021,TRUE,FALSE,11,3,47,2,1,,,,,,,
,,,,,,1,2.482907111,#a3d0fb,,left_blue.png,w,,,,,,w,left_blue.png,left_orange.png,q,right,60ea8c3fff09d1cae3f2119c,001,2021-07-19_02h57.15.998,arrow_simon_norep,2021.1.2,Win32,54.2888165,,,,,,,,,,,,,,,,,,,,,q,0,2.104,TRUE,FALSE,12,0,48,3,1,,,,,,,
,,,,,,1,2.023703985,#f3af84,,right_orange.png,p,,,,,,o,right_blue.png,right_orange.png,p,left,60ea8c3fff09d1cae3f2119c,001,2021-07-19_02h57.15.998,arrow_simon_norep,2021.1.2,Win32,54.2888165,,,,,,,,,,,,,,,,,,,,,w,0,1.92,TRUE,FALSE,12,1,49,0,1,,,,,,,
,,,,,,1,2.038921065,#a3d0fb,,right_blue.png,o,,,,,,o,right_blue.png,right_orange.png,p,right,60ea8c3fff09d1cae3f2119c,001,2021-07-19_02h57.15.998,arrow_simon_norep,2021.1.2,Win32,54.2888165,,,,,,,,,,,,,,,,,,,,,p,0,1.735,TRUE,FALSE,12,2,50,1,1,,,,,,,
,,,,,,1,2.108844368,#f3af84,,right_orange.png,p,,,,,,o,right_blue.png,right_orange.png,p,left,60ea8c3fff09d1cae3f2119c,001,2021-07-19_02h57.15.998,arrow_simon_norep,2021.1.2,Win32,54.2888165,,,,,,,,,,,,,,,,,,,,,q,0,1.509,FALSE,FALSE,12,3,51,0,1,,,,,,,
,,,,,,1,1.665564853,#a3d0fb,,left_blue.png,w,,,,,,w,left_blue.png,left_orange.png,q,left,60ea8c3fff09d1cae3f2119c,001,2021-07-19_02h57.15.998,arrow_simon_norep,2021.1.2,Win32,54.2888165,,,,,,,,,,,,,,,,,,,,,w,1,1.985,TRUE,FALSE,13,0,52,2,1,,,,,,,
,,,,,,0,2.112873055,#f3af84,,right_orange.png,p,,,,,,o,right_blue.png,right_orange.png,p,right,60ea8c3fff09d1cae3f2119c,001,2021-07-19_02h57.15.998,arrow_simon_norep,2021.1.2,Win32,54.2888165,,,,,,,,,,,,,,,,,,,,,p,1,1.585,FALSE,FALSE,13,1,53,1,1,,,,,,,
,,,,,,0,1.941439812,#a3d0fb,,right_blue.png,o,,,,,,o,right_blue.png,right_orange.png,p,left,60ea8c3fff09d1cae3f2119c,001,2021-07-19_02h57.15.998,arrow_simon_norep,2021.1.2,Win32,54.2888165,,,,,,,,,,,,,,,,,,,,,q,0,1.759,TRUE,FALSE,13,2,54,0,1,,,,,,,
,,,,,,0,2.432460639,#f3af84,,left_orange.png,q,,,,,,w,left_blue.png,left_orange.png,q,right,60ea8c3fff09d1cae3f2119c,001,2021-07-19_02h57.15.998,arrow_simon_norep,2021.1.2,Win32,54.2888165,,,,,,,,,,,,,,,,,,,,,q,1,2.247,TRUE,FALSE,13,3,55,3,1,,,,,,,
,,,,,,0,1.868315234,#a3d0fb,,left_blue.png,w,,,,,,w,left_blue.png,left_orange.png,q,right,60ea8c3fff09d1cae3f2119c,001,2021-07-19_02h57.15.998,arrow_simon_norep,2021.1.2,Win32,54.2888165,,,,,,,,,,,,,,,,,,,,,w,1,1.686,TRUE,FALSE,14,0,56,3,1,,,,,,,
,,,,,,1,1.93442494,#f3af84,,left_orange.png,q,,,,,,w,left_blue.png,left_orange.png,q,right,60ea8c3fff09d1cae3f2119c,001,2021-07-19_02h57.15.998,arrow_simon_norep,2021.1.2,Win32,54.2888165,,,,,,,,,,,,,,,,,,,,,w,0,1.447,FALSE,FALSE,14,1,57,3,1,,,,,,,
,,,,,,1,2.091434468,#a3d0fb,,right_blue.png,o,,,,,,o,right_blue.png,right_orange.png,p,left,60ea8c3fff09d1cae3f2119c,001,2021-07-19_02h57.15.998,arrow_simon_norep,2021.1.2,Win32,54.2888165,,,,,,,,,,,,,,,,,,,,,o,1,1.927,TRUE,FALSE,14,2,58,0,1,,,,,,,
,,,,,,1,1.67555155,#f3af84,,right_orange.png,p,,,,,,o,right_blue.png,right_orange.png,p,left,60ea8c3fff09d1cae3f2119c,001,2021-07-19_02h57.15.998,arrow_simon_norep,2021.1.2,Win32,54.2888165,,,,,,,,,,,,,,,,,,,,,p,1,1.208,FALSE,TRUE,14,3,59,0,1,,,,,,,
,,,,,,,,,,,,,,,,,,,,,,60ea8c3fff09d1cae3f2119c,001,2021-07-19_02h57.15.998,arrow_simon_norep,2021.1.2,Win32,54.2888165,,,,,,,,,,,,,,,,,,,,,,,,,,,,,,,space,5.839,1,0,1,0,1
,,,,,,1,1.598394205,#a3d0fb,,right_blue.png,o,,,,,,o,right_blue.png,right_orange.png,p,right,60ea8c3fff09d1cae3f2119c,001,2021-07-19_02h57.15.998,arrow_simon_norep,2021.1.2,Win32,54.2888165,,,,,,,,,,,,,,,,,,,,,p,0,1.621,TRUE,FALSE,0,0,0,1,1,,,,,,,
,,,,,,1,1.659495077,#f3af84,,right_orange.png,p,,,,,,o,right_blue.png,right_orange.png,p,left,60ea8c3fff09d1cae3f2119c,001,2021-07-19_02h57.15.998,arrow_simon_norep,2021.1.2,Win32,54.2888165,,,,,,,,,,,,,,,,,,,,,w,0,1.323,FALSE,TRUE,0,1,1,0,1,,,,,,,
,,,,,,1,2.227142987,#a3d0fb,,left_blue.png,w,,,,,,w,left_blue.png,left_orange.png,q,left,60ea8c3fff09d1cae3f2119c,001,2021-07-19_02h57.15.998,arrow_simon_norep,2021.1.2,Win32,54.2888165,,,,,,,,,,,,,,,,,,,,,q,0,1.761,TRUE,FALSE,0,2,2,2,1,,,,,,,
,,,,,,1,2.048579281,#f3af84,,left_orange.png,q,,,,,,w,left_blue.png,left_orange.png,q,right,60ea8c3fff09d1cae3f2119c,001,2021-07-19_02h57.15.998,arrow_simon_norep,2021.1.2,Win32,54.2888165,,,,,,,,,,,,,,,,,,,,,o,0,1.51,FALSE,FALSE,0,3,3,3,1,,,,,,,
,,,,,,1,2.35002218,#a3d0fb,,left_blue.png,w,,,,,,w,left_blue.png,left_orange.png,q,left,60ea8c3fff09d1cae3f2119c,001,2021-07-19_02h57.15.998,arrow_simon_norep,2021.1.2,Win32,54.2888165,,,,,,,,,,,,,,,,,,,,,q,0,2.022,TRUE,FALSE,1,0,4,2,1,,,,,,,
,,,,,,0,1.827423677,#f3af84,,left_orange.png,q,,,,,,w,left_blue.png,left_orange.png,q,left,60ea8c3fff09d1cae3f2119c,001,2021-07-19_02h57.15.998,arrow_simon_norep,2021.1.2,Win32,54.2888165,,,,,,,,,,,,,,,,,,,,,q,1,1.517,FALSE,FALSE,1,1,5,2,1,,,,,,,
,,,,,,0,1.814059127,#a3d0fb,,right_blue.png,o,,,,,,o,right_blue.png,right_orange.png,p,right,60ea8c3fff09d1cae3f2119c,001,2021-07-19_02h57.15.998,arrow_simon_norep,2021.1.2,Win32,54.2888165,,,,,,,,,,,,,,,,,,,,,p,0,1.306,FALSE,TRUE,1,2,6,1,1,,,,,,,
,,,,,,0,2.283747486,#f3af84,,right_orange.png,p,,,,,,o,right_blue.png,right_orange.png,p,right,60ea8c3fff09d1cae3f2119c,001,2021-07-19_02h57.15.998,arrow_simon_norep,2021.1.2,Win32,54.2888165,,,,,,,,,,,,,,,,,,,,,p,1,1.855,TRUE,FALSE,1,3,7,1,1,,,,,,,
,,,,,,0,2.319215582,#a3d0fb,,left_blue.png,w,,,,,,w,left_blue.png,left_orange.png,q,left,60ea8c3fff09d1cae3f2119c,001,2021-07-19_02h57.15.998,arrow_simon_norep,2021.1.2,Win32,54.2888165,,,,,,,,,,,,,,,,,,,,,q,0,1.959,TRUE,FALSE,2,0,8,2,1,,,,,,,
,,,,,,0,2.29936833,#f3af84,,right_orange.png,p,,,,,,o,right_blue.png,right_orange.png,p,right,60ea8c3fff09d1cae3f2119c,001,2021-07-19_02h57.15.998,arrow_simon_norep,2021.1.2,Win32,54.2888165,,,,,,,,,,,,,,,,,,,,,w,0,1.604,TRUE,FALSE,2,1,9,1,1,,,,,,,
,,,,,,0,2.174795843,#a3d0fb,,left_blue.png,w,,,,,,w,left_blue.png,left_orange.png,q,left,60ea8c3fff09d1cae3f2119c,001,2021-07-19_02h57.15.998,arrow_simon_norep,2021.1.2,Win32,54.2888165,,,,,,,,,,,,,,,,,,,,,w,1,1.906,TRUE,FALSE,2,2,10,2,1,,,,,,,
,,,,,,1,1.89085221,#f3af84,,right_orange.png,p,,,,,,o,right_blue.png,right_orange.png,p,left,60ea8c3fff09d1cae3f2119c,001,2021-07-19_02h57.15.998,arrow_simon_norep,2021.1.2,Win32,54.2888165,,,,,,,,,,,,,,,,,,,,,q,0,1.54,FALSE,FALSE,2,3,11,0,1,,,,,,,
,,,,,,1,2.040205854,#a3d0fb,,left_blue.png,w,,,,,,w,left_blue.png,left_orange.png,q,left,60ea8c3fff09d1cae3f2119c,001,2021-07-19_02h57.15.998,arrow_simon_norep,2021.1.2,Win32,54.2888165,,,,,,,,,,,,,,,,,,,,,q,0,1.572,FALSE,FALSE,3,0,12,2,1,,,,,,,
,,,,,,1,2.38478419,#f3af84,,right_orange.png,p,,,,,,o,right_blue.png,right_orange.png,p,right,60ea8c3fff09d1cae3f2119c,001,2021-07-19_02h57.15.998,arrow_simon_norep,2021.1.2,Win32,54.2888165,,,,,,,,,,,,,,,,,,,,,p,1,1.868,TRUE,FALSE,3,1,13,1,1,,,,,,,
,,,,,,1,1.617180747,#a3d0fb,,left_blue.png,w,,,,,,w,left_blue.png,left_orange.png,q,right,60ea8c3fff09d1cae3f2119c,001,2021-07-19_02h57.15.998,arrow_simon_norep,2021.1.2,Win32,54.2888165,,,,,,,,,,,,,,,,,,,,,w,1,1.719,TRUE,FALSE,3,2,14,3,1,,,,,,,
,,,,,,1,1.923476428,#f3af84,,right_orange.png,p,,,,,,o,right_blue.png,right_orange.png,p,right,60ea8c3fff09d1cae3f2119c,001,2021-07-19_02h57.15.998,arrow_simon_norep,2021.1.2,Win32,54.2888165,,,,,,,,,,,,,,,,,,,,,p,1,1.684,TRUE,FALSE,3,3,15,1,1,,,,,,,
,,,,,,0,1.971323323,#a3d0fb,,left_blue.png,w,,,,,,w,left_blue.png,left_orange.png,q,left,60ea8c3fff09d1cae3f2119c,001,2021-07-19_02h57.15.998,arrow_simon_norep,2021.1.2,Win32,54.2888165,,,,,,,,,,,,,,,,,,,,,w,1,1.465,FALSE,FALSE,4,0,16,2,1,,,,,,,
,,,,,,0,1.814542177,#f3af84,,left_orange.png,q,,,,,,w,left_blue.png,left_orange.png,q,left,60ea8c3fff09d1cae3f2119c,001,2021-07-19_02h57.15.998,arrow_simon_norep,2021.1.2,Win32,54.2888165,,,,,,,,,,,,,,,,,,,,,w,0,1.279,FALSE,TRUE,4,1,17,2,1,,,,,,,
,,,,,,0,1.819531656,#a3d0fb,,right_blue.png,o,,,,,,o,right_blue.png,right_orange.png,p,right,60ea8c3fff09d1cae3f2119c,001,2021-07-19_02h57.15.998,arrow_simon_norep,2021.1.2,Win32,54.2888165,,,,,,,,,,,,,,,,,,,,,o,1,1.375,FALSE,TRUE,4,2,18,1,1,,,,,,,
,,,,,,0,2.262988646,#f3af84,,right_orange.png,p,,,,,,o,right_blue.png,right_orange.png,p,left,60ea8c3fff09d1cae3f2119c,001,2021-07-19_02h57.15.998,arrow_simon_norep,2021.1.2,Win32,54.2888165,,,,,,,,,,,,,,,,,,,,,p,1,1.958,TRUE,FALSE,4,3,19,0,1,,,,,,,
,,,,,,0,2.28774217,#a3d0fb,,left_blue.png,w,,,,,,w,left_blue.png,left_orange.png,q,right,60ea8c3fff09d1cae3f2119c,001,2021-07-19_02h57.15.998,arrow_simon_norep,2021.1.2,Win32,54.2888165,,,,,,,,,,,,,,,,,,,,,p,0,1.641,TRUE,FALSE,5,0,20,3,1,,,,,,,
,,,,,,0,2.244095028,#f3af84,,right_orange.png,p,,,,,,o,right_blue.png,right_orange.png,p,left,60ea8c3fff09d1cae3f2119c,001,2021-07-19_02h57.15.998,arrow_simon_norep,2021.1.2,Win32,54.2888165,,,,,,,,,,,,,,,,,,,,,o,0,1.756,TRUE,FALSE,5,1,21,0,1,,,,,,,
,,,,,,0,1.978896095,#a3d0fb,,right_blue.png,o,,,,,,o,right_blue.png,right_orange.png,p,right,60ea8c3fff09d1cae3f2119c,001,2021-07-19_02h57.15.998,arrow_simon_norep,2021.1.2,Win32,54.2888165,,,,,,,,,,,,,,,,,,,,,p,0,1.391,FALSE,TRUE,5,2,22,1,1,,,,,,,
,,,,,,0,1.711287095,#f3af84,,right_orange.png,p,,,,,,o,right_blue.png,right_orange.png,p,left,60ea8c3fff09d1cae3f2119c,001,2021-07-19_02h57.15.998,arrow_simon_norep,2021.1.2,Win32,54.2888165,,,,,,,,,,,,,,,,,,,,,p,1,1.301,FALSE,TRUE,5,3,23,0,1,,,,,,,
,,,,,,0,1.601145083,#a3d0fb,,right_blue.png,o,,,,,,o,right_blue.png,right_orange.png,p,left,60ea8c3fff09d1cae3f2119c,001,2021-07-19_02h57.15.998,arrow_simon_norep,2021.1.2,Win32,54.2888165,,,,,,,,,,,,,,,,,,,,,o,1,1.668,TRUE,FALSE,6,0,24,0,1,,,,,,,
,,,,,,0,1.624235998,#f3af84,,right_orange.png,p,,,,,,o,right_blue.png,right_orange.png,p,right,60ea8c3fff09d1cae3f2119c,001,2021-07-19_02h57.15.998,arrow_simon_norep,2021.1.2,Win32,54.2888165,,,,,,,,,,,,,,,,,,,,,p,1,1.194,FALSE,TRUE,6,1,25,1,1,,,,,,,
,,,,,,0,2.081454488,#a3d0fb,,right_blue.png,o,,,,,,o,right_blue.png,right_orange.png,p,left,60ea8c3fff09d1cae3f2119c,001,2021-07-19_02h57.15.998,arrow_simon_norep,2021.1.2,Win32,54.2888165,,,,,,,,,,,,,,,,,,,,,o,1,1.406,FALSE,FALSE,6,2,26,0,1,,,,,,,
,,,,,,0,2.292696829,#f3af84,,left_orange.png,q,,,,,,w,left_blue.png,left_orange.png,q,left,60ea8c3fff09d1cae3f2119c,001,2021-07-19_02h57.15.998,arrow_simon_norep,2021.1.2,Win32,54.2888165,,,,,,,,,,,,,,,,,,,,,q,1,1.801,TRUE,FALSE,6,3,27,2,1,,,,,,,
,,,,,,0,2.05373841,#a3d0fb,,left_blue.png,w,,,,,,w,left_blue.png,left_orange.png,q,right,60ea8c3fff09d1cae3f2119c,001,2021-07-19_02h57.15.998,arrow_simon_norep,2021.1.2,Win32,54.2888165,,,,,,,,,,,,,,,,,,,,,w,1,1.458,FALSE,FALSE,7,0,28,3,1,,,,,,,
,,,,,,0,2.124622959,#f3af84,,right_orange.png,p,,,,,,o,right_blue.png,right_orange.png,p,left,60ea8c3fff09d1cae3f2119c,001,2021-07-19_02h57.15.998,arrow_simon_norep,2021.1.2,Win32,54.2888165,,,,,,,,,,,,,,,,,,,,,q,0,1.779,TRUE,FALSE,7,1,29,0,1,,,,,,,
,,,,,,0,1.737288761,#a3d0fb,,right_blue.png,o,,,,,,o,right_blue.png,right_orange.png,p,right,60ea8c3fff09d1cae3f2119c,001,2021-07-19_02h57.15.998,arrow_simon_norep,2021.1.2,Win32,54.2888165,,,,,,,,,,,,,,,,,,,,,p,0,1.286,FALSE,TRUE,7,2,30,1,1,,,,,,,
,,,,,,0,1.757672178,#f3af84,,left_orange.png,q,,,,,,w,left_blue.png,left_orange.png,q,left,60ea8c3fff09d1cae3f2119c,001,2021-07-19_02h57.15.998,arrow_simon_norep,2021.1.2,Win32,54.2888165,,,,,,,,,,,,,,,,,,,,,o,0,1.355,FALSE,TRUE,7,3,31,2,1,,,,,,,
,,,,,,0,2.218466103,#a3d0fb,,left_blue.png,w,,,,,,w,left_blue.png,left_orange.png,q,right,60ea8c3fff09d1cae3f2119c,001,2021-07-19_02h57.15.998,arrow_simon_norep,2021.1.2,Win32,54.2888165,,,,,,,,,,,,,,,,,,,,,w,1,1.549,FALSE,FALSE,8,0,32,3,1,,,,,,,
,,,,,,0,1.628127226,#f3af84,,right_orange.png,p,,,,,,o,right_blue.png,right_orange.png,p,left,60ea8c3fff09d1cae3f2119c,001,2021-07-19_02h57.15.998,arrow_simon_norep,2021.1.2,Win32,54.2888165,,,,,,,,,,,,,,,,,,,,,p,1,1.424,FALSE,FALSE,8,1,33,0,1,,,,,,,
,,,,,,1,1.850530374,#a3d0fb,,right_blue.png,o,,,,,,o,right_blue.png,right_orange.png,p,left,60ea8c3fff09d1cae3f2119c,001,2021-07-19_02h57.15.998,arrow_simon_norep,2021.1.2,Win32,54.2888165,,,,,,,,,,,,,,,,,,,,,w,0,1.472,FALSE,FALSE,8,2,34,0,1,,,,,,,
,,,,,,1,2.449117243,#f3af84,,left_orange.png,q,,,,,,w,left_blue.png,left_orange.png,q,right,60ea8c3fff09d1cae3f2119c,001,2021-07-19_02h57.15.998,arrow_simon_norep,2021.1.2,Win32,54.2888165,,,,,,,,,,,,,,,,,,,,,p,0,2.246,TRUE,FALSE,8,3,35,3,1,,,,,,,
,,,,,,1,2.493793615,#a3d0fb,,left_blue.png,w,,,,,,w,left_blue.png,left_orange.png,q,left,60ea8c3fff09d1cae3f2119c,001,2021-07-19_02h57.15.998,arrow_simon_norep,2021.1.2,Win32,54.2888165,,,,,,,,,,,,,,,,,,,,,q,0,2.11,TRUE,FALSE,9,0,36,2,1,,,,,,,
,,,,,,1,2.239659157,#f3af84,,right_orange.png,p,,,,,,o,right_blue.png,right_orange.png,p,left,60ea8c3fff09d1cae3f2119c,001,2021-07-19_02h57.15.998,arrow_simon_norep,2021.1.2,Win32,54.2888165,,,,,,,,,,,,,,,,,,,,,p,1,2.049,TRUE,FALSE,9,1,37,0,1,,,,,,,
,,,,,,1,1.557484779,#a3d0fb,,right_blue.png,o,,,,,,o,right_blue.png,right_orange.png,p,right,60ea8c3fff09d1cae3f2119c,001,2021-07-19_02h57.15.998,arrow_simon_norep,2021.1.2,Win32,54.2888165,,,,,,,,,,,,,,,,,,,,,p,0,1.23,FALSE,TRUE,9,2,38,1,1,,,,,,,
,,,,,,1,1.690576528,#f3af84,,left_orange.png,q,,,,,,w,left_blue.png,left_orange.png,q,right,60ea8c3fff09d1cae3f2119c,001,2021-07-19_02h57.15.998,arrow_simon_norep,2021.1.2,Win32,54.2888165,,,,,,,,,,,,,,,,,,,,,q,1,1.603,TRUE,FALSE,9,3,39,3,1,,,,,,,
,,,,,,1,1.553696816,#a3d0fb,,left_blue.png,w,,,,,,w,left_blue.png,left_orange.png,q,right,60ea8c3fff09d1cae3f2119c,001,2021-07-19_02h57.15.998,arrow_simon_norep,2021.1.2,Win32,54.2888165,,,,,,,,,,,,,,,,,,,,,w,1,1.085,FALSE,TRUE,10,0,40,3,1,,,,,,,
,,,,,,1,1.636411118,#f3af84,,left_orange.png,q,,,,,,w,left_blue.png,left_orange.png,q,right,60ea8c3fff09d1cae3f2119c,001,2021-07-19_02h57.15.998,arrow_simon_norep,2021.1.2,Win32,54.2888165,,,,,,,,,,,,,,,,,,,,,o,0,1.585,FALSE,FALSE,10,1,41,3,1,,,,,,,
,,,,,,1,2.047143593,#a3d0fb,,left_blue.png,w,,,,,,w,left_blue.png,left_orange.png,q,left,60ea8c3fff09d1cae3f2119c,001,2021-07-19_02h57.15.998,arrow_simon_norep,2021.1.2,Win32,54.2888165,,,,,,,,,,,,,,,,,,,,,w,1,1.989,TRUE,FALSE,10,2,42,2,1,,,,,,,
,,,,,,1,2.412165614,#f3af84,,right_orange.png,p,,,,,,o,right_blue.png,right_orange.png,p,left,60ea8c3fff09d1cae3f2119c,001,2021-07-19_02h57.15.998,arrow_simon_norep,2021.1.2,Win32,54.2888165,,,,,,,,,,,,,,,,,,,,,p,1,2.041,TRUE,FALSE,10,3,43,0,1,,,,,,,
,,,,,,1,2.071708887,#a3d0fb,,right_blue.png,o,,,,,,o,right_blue.png,right_orange.png,p,right,60ea8c3fff09d1cae3f2119c,001,2021-07-19_02h57.15.998,arrow_simon_norep,2021.1.2,Win32,54.2888165,,,,,,,,,,,,,,,,,,,,,o,1,1.914,TRUE,FALSE,11,0,44,1,1,,,,,,,
,,,,,,1,1.877971549,#f3af84,,right_orange.png,p,,,,,,o,right_blue.png,right_orange.png,p,right,60ea8c3fff09d1cae3f2119c,001,2021-07-19_02h57.15.998,arrow_simon_norep,2021.1.2,Win32,54.2888165,,,,,,,,,,,,,,,,,,,,,p,1,1.626,TRUE,FALSE,11,1,45,1,1,,,,,,,
,,,,,,1,1.510840808,#a3d0fb,,left_blue.png,w,,,,,,w,left_blue.png,left_orange.png,q,right,60ea8c3fff09d1cae3f2119c,001,2021-07-19_02h57.15.998,arrow_simon_norep,2021.1.2,Win32,54.2888165,,,,,,,,,,,,,,,,,,,,,q,0,1.088,FALSE,TRUE,11,2,46,3,1,,,,,,,
,,,,,,1,1.958665458,#f3af84,,left_orange.png,q,,,,,,w,left_blue.png,left_orange.png,q,left,60ea8c3fff09d1cae3f2119c,001,2021-07-19_02h57.15.998,arrow_simon_norep,2021.1.2,Win32,54.2888165,,,,,,,,,,,,,,,,,,,,,q,1,1.671,TRUE,FALSE,11,3,47,2,1,,,,,,,
,,,,,,1,1.78227678,#a3d0fb,,left_blue.png,w,,,,,,w,left_blue.png,left_orange.png,q,right,60ea8c3fff09d1cae3f2119c,001,2021-07-19_02h57.15.998,arrow_simon_norep,2021.1.2,Win32,54.2888165,,,,,,,,,,,,,,,,,,,,,q,0,1.28,FALSE,TRUE,12,0,48,3,1,,,,,,,
,,,,,,1,2.347284714,#f3af84,,left_orange.png,q,,,,,,w,left_blue.png,left_orange.png,q,left,60ea8c3fff09d1cae3f2119c,001,2021-07-19_02h57.15.998,arrow_simon_norep,2021.1.2,Win32,54.2888165,,,,,,,,,,,,,,,,,,,,,q,1,1.907,TRUE,FALSE,12,1,49,2,1,,,,,,,
,,,,,,1,2.282012777,#a3d0fb,,right_blue.png,o,,,,,,o,right_blue.png,right_orange.png,p,right,60ea8c3fff09d1cae3f2119c,001,2021-07-19_02h57.15.998,arrow_simon_norep,2021.1.2,Win32,54.2888165,,,,,,,,,,,,,,,,,,,,,p,0,1.954,TRUE,FALSE,12,2,50,1,1,,,,,,,
,,,,,,0,1.742125687,#f3af84,,right_orange.png,p,,,,,,o,right_blue.png,right_orange.png,p,left,60ea8c3fff09d1cae3f2119c,001,2021-07-19_02h57.15.998,arrow_simon_norep,2021.1.2,Win32,54.2888165,,,,,,,,,,,,,,,,,,,,,p,1,1.47,FALSE,FALSE,12,3,51,0,1,,,,,,,
,,,,,,0,2.069594799,#a3d0fb,,left_blue.png,w,,,,,,w,left_blue.png,left_orange.png,q,right,60ea8c3fff09d1cae3f2119c,001,2021-07-19_02h57.15.998,arrow_simon_norep,2021.1.2,Win32,54.2888165,,,,,,,,,,,,,,,,,,,,,o,0,1.782,TRUE,FALSE,13,0,52,3,1,,,,,,,
,,,,,,0,1.751508477,#f3af84,,right_orange.png,p,,,,,,o,right_blue.png,right_orange.png,p,left,60ea8c3fff09d1cae3f2119c,001,2021-07-19_02h57.15.998,arrow_simon_norep,2021.1.2,Win32,54.2888165,,,,,,,,,,,,,,,,,,,,,p,1,1.671,TRUE,FALSE,13,1,53,0,1,,,,,,,
,,,,,,1,1.962696001,#a3d0fb,,left_blue.png,w,,,,,,w,left_blue.png,left_orange.png,q,right,60ea8c3fff09d1cae3f2119c,001,2021-07-19_02h57.15.998,arrow_simon_norep,2021.1.2,Win32,54.2888165,,,,,,,,,,,,,,,,,,,,,o,0,1.522,FALSE,FALSE,13,2,54,3,1,,,,,,,
,,,,,,1,1.786495986,#f3af84,,left_orange.png,q,,,,,,w,left_blue.png,left_orange.png,q,right,60ea8c3fff09d1cae3f2119c,001,2021-07-19_02h57.15.998,arrow_simon_norep,2021.1.2,Win32,54.2888165,,,,,,,,,,,,,,,,,,,,,p,0,1.707,TRUE,FALSE,13,3,55,3,1,,,,,,,
,,,,,,1,2.383648724,#a3d0fb,,right_blue.png,o,,,,,,o,right_blue.png,right_orange.png,p,left,60ea8c3fff09d1cae3f2119c,001,2021-07-19_02h57.15.998,arrow_simon_norep,2021.1.2,Win32,54.2888165,,,,,,,,,,,,,,,,,,,,,o,1,1.949,TRUE,FALSE,14,0,56,0,1,,,,,,,
,,,,,,1,1.968990474,#f3af84,,left_orange.png,q,,,,,,w,left_blue.png,left_orange.png,q,left,60ea8c3fff09d1cae3f2119c,001,2021-07-19_02h57.15.998,arrow_simon_norep,2021.1.2,Win32,54.2888165,,,,,,,,,,,,,,,,,,,,,p,0,1.448,FALSE,FALSE,14,1,57,2,1,,,,,,,
,,,,,,1,1.750657083,#a3d0fb,,left_blue.png,w,,,,,,w,left_blue.png,left_orange.png,q,right,60ea8c3fff09d1cae3f2119c,001,2021-07-19_02h57.15.998,arrow_simon_norep,2021.1.2,Win32,54.2888165,,,,,,,,,,,,,,,,,,,,,o,0,1.572,FALSE,FALSE,14,2,58,3,1,,,,,,,
,,,,,,1,2.460730454,#f3af84,,right_orange.png,p,,,,,,o,right_blue.png,right_orange.png,p,right,60ea8c3fff09d1cae3f2119c,001,2021-07-19_02h57.15.998,arrow_simon_norep,2021.1.2,Win32,54.2888165,,,,,,,,,,,,,,,,,,,,,p,1,2.023,TRUE,FALSE,14,3,59,1,1,,,,,,,
,,,,,,,,,,,,,,,,,,,,,,60ea8c3fff09d1cae3f2119c,001,2021-07-19_02h57.15.998,arrow_simon_norep,2021.1.2,Win32,54.2888165,,,,,,,,,,,,,,,,,,,,,,,,,,,,,,,space,53.005,2,0,2,0,1
,,,,,,1,2.308832485,#a3d0fb,,left_blue.png,w,,,,,,w,left_blue.png,left_orange.png,q,left,60ea8c3fff09d1cae3f2119c,001,2021-07-19_02h57.15.998,arrow_simon_norep,2021.1.2,Win32,54.2888165,,,,,,,,,,,,,,,,,,,,,o,0,1.95,TRUE,FALSE,0,0,0,2,1,,,,,,,
,,,,,,0,2.056248736,#f3af84,,right_orange.png,p,,,,,,o,right_blue.png,right_orange.png,p,right,60ea8c3fff09d1cae3f2119c,001,2021-07-19_02h57.15.998,arrow_simon_norep,2021.1.2,Win32,54.2888165,,,,,,,,,,,,,,,,,,,,,p,1,1.556,FALSE,FALSE,0,1,1,1,1,,,,,,,
,,,,,,0,2.206300571,#a3d0fb,,right_blue.png,o,,,,,,o,right_blue.png,right_orange.png,p,left,60ea8c3fff09d1cae3f2119c,001,2021-07-19_02h57.15.998,arrow_simon_norep,2021.1.2,Win32,54.2888165,,,,,,,,,,,,,,,,,,,,,w,0,1.889,TRUE,FALSE,0,2,2,0,1,,,,,,,
,,,,,,0,2.22357266,#f3af84,,right_orange.png,p,,,,,,o,right_blue.png,right_orange.png,p,right,60ea8c3fff09d1cae3f2119c,001,2021-07-19_02h57.15.998,arrow_simon_norep,2021.1.2,Win32,54.2888165,,,,,,,,,,,,,,,,,,,,,p,1,1.919,TRUE,FALSE,0,3,3,1,1,,,,,,,
,,,,,,0,2.046802687,#a3d0fb,,right_blue.png,o,,,,,,o,right_blue.png,right_orange.png,p,left,60ea8c3fff09d1cae3f2119c,001,2021-07-19_02h57.15.998,arrow_simon_norep,2021.1.2,Win32,54.2888165,,,,,,,,,,,,,,,,,,,,,o,1,1.687,TRUE,FALSE,1,0,4,0,1,,,,,,,
,,,,,,0,2.165815842,#f3af84,,right_orange.png,p,,,,,,o,right_blue.png,right_orange.png,p,right,60ea8c3fff09d1cae3f2119c,001,2021-07-19_02h57.15.998,arrow_simon_norep,2021.1.2,Win32,54.2888165,,,,,,,,,,,,,,,,,,,,,p,1,1.72,TRUE,FALSE,1,1,5,1,1,,,,,,,
,,,,,,0,2.422646098,#a3d0fb,,left_blue.png,w,,,,,,w,left_blue.png,left_orange.png,q,right,60ea8c3fff09d1cae3f2119c,001,2021-07-19_02h57.15.998,arrow_simon_norep,2021.1.2,Win32,54.2888165,,,,,,,,,,,,,,,,,,,,,o,0,1.735,TRUE,FALSE,1,2,6,3,1,,,,,,,
,,,,,,0,2.264975748,#f3af84,,left_orange.png,q,,,,,,w,left_blue.png,left_orange.png,q,left,60ea8c3fff09d1cae3f2119c,001,2021-07-19_02h57.15.998,arrow_simon_norep,2021.1.2,Win32,54.2888165,,,,,,,,,,,,,,,,,,,,,q,1,1.725,TRUE,FALSE,1,3,7,2,1,,,,,,,
,,,,,,1,2.023970761,#a3d0fb,,right_blue.png,o,,,,,,o,right_blue.png,right_orange.png,p,right,60ea8c3fff09d1cae3f2119c,001,2021-07-19_02h57.15.998,arrow_simon_norep,2021.1.2,Win32,54.2888165,,,,,,,,,,,,,,,,,,,,,p,0,1.524,FALSE,FALSE,2,0,8,1,1,,,,,,,
,,,,,,1,2.322976089,#f3af84,,left_orange.png,q,,,,,,w,left_blue.png,left_orange.png,q,right,60ea8c3fff09d1cae3f2119c,001,2021-07-19_02h57.15.998,arrow_simon_norep,2021.1.2,Win32,54.2888165,,,,,,,,,,,,,,,,,,,,,o,0,2.735,TRUE,FALSE,2,1,9,3,1,,,,,,,
,,,,,,1,1.88108615,#a3d0fb,,left_blue.png,w,,,,,,w,left_blue.png,left_orange.png,q,right,60ea8c3fff09d1cae3f2119c,001,2021-07-19_02h57.15.998,arrow_simon_norep,2021.1.2,Win32,54.2888165,,,,,,,,,,,,,,,,,,,,,o,0,1.621,TRUE,FALSE,2,2,10,3,1,,,,,,,
,,,,,,1,2.124238392,#f3af84,,right_orange.png,p,,,,,,o,right_blue.png,right_orange.png,p,right,60ea8c3fff09d1cae3f2119c,001,2021-07-19_02h57.15.998,arrow_simon_norep,2021.1.2,Win32,54.2888165,,,,,,,,,,,,,,,,,,,,,o,0,1.786,TRUE,FALSE,2,3,11,1,1,,,,,,,
,,,,,,1,1.573629708,#a3d0fb,,right_blue.png,o,,,,,,o,right_blue.png,right_orange.png,p,right,60ea8c3fff09d1cae3f2119c,001,2021-07-19_02h57.15.998,arrow_simon_norep,2021.1.2,Win32,54.2888165,,,,,,,,,,,,,,,,,,,,,p,0,1.117,FALSE,TRUE,3,0,12,1,1,,,,,,,
,,,,,,1,1.77390651,#f3af84,,right_orange.png,p,,,,,,o,right_blue.png,right_orange.png,p,left,60ea8c3fff09d1cae3f2119c,001,2021-07-19_02h57.15.998,arrow_simon_norep,2021.1.2,Win32,54.2888165,,,,,,,,,,,,,,,,,,,,,p,1,1.989,TRUE,FALSE,3,1,13,0,1,,,,,,,
,,,,,,1,2.392734625,#a3d0fb,,right_blue.png,o,,,,,,o,right_blue.png,right_orange.png,p,right,60ea8c3fff09d1cae3f2119c,001,2021-07-19_02h57.15.998,arrow_simon_norep,2021.1.2,Win32,54.2888165,,,,,,,,,,,,,,,,,,,,,o,1,2.086,TRUE,FALSE,3,2,14,1,1,,,,,,,
,,,,,,1,1.533370959,#f3af84,,left_orange.png,q,,,,,,w,left_blue.png,left_orange.png,q,right,60ea8c3fff09d1cae3f2119c,001,2021-07-19_02h57.15.998,arrow_simon_norep,2021.1.2,Win32,54.2888165,,,,,,,,,,,,,,,,,,,,,q,1,1.221,FALSE,TRUE,3,3,15,3,1,,,,,,,
,,,,,,1,1.975950359,#a3d0fb,,left_blue.png,w,,,,,,w,left_blue.png,left_orange.png,q,left,60ea8c3fff09d1cae3f2119c,001,2021-07-19_02h57.15.998,arrow_simon_norep,2021.1.2,Win32,54.2888165,,,,,,,,,,,,,,,,,,,,,q,0,1.703,TRUE,FALSE,4,0,16,2,1,,,,,,,
,,,,,,1,2.138574409,#f3af84,,left_orange.png,q,,,,,,w,left_blue.png,left_orange.png,q,left,60ea8c3fff09d1cae3f2119c,001,2021-07-19_02h57.15.998,arrow_simon_norep,2021.1.2,Win32,54.2888165,,,,,,,,,,,,,,,,,,,,,q,1,1.935,TRUE,FALSE,4,1,17,2,1,,,,,,,
,,,,,,1,2.365211747,#a3d0fb,,left_blue.png,w,,,,,,w,left_blue.png,left_orange.png,q,right,60ea8c3fff09d1cae3f2119c,001,2021-07-19_02h57.15.998,arrow_simon_norep,2021.1.2,Win32,54.2888165,,,,,,,,,,,,,,,,,,,,,q,0,2.344,TRUE,FALSE,4,2,18,3,1,,,,,,,
,,,,,,1,2.294711648,#f3af84,,right_orange.png,p,,,,,,o,right_blue.png,right_orange.png,p,right,60ea8c3fff09d1cae3f2119c,001,2021-07-19_02h57.15.998,arrow_simon_norep,2021.1.2,Win32,54.2888165,,,,,,,,,,,,,,,,,,,,,p,1,2.252,TRUE,FALSE,4,3,19,1,1,,,,,,,
,,,,,,1,2.014542515,#a3d0fb,,left_blue.png,w,,,,,,w,left_blue.png,left_orange.png,q,right,60ea8c3fff09d1cae3f2119c,001,2021-07-19_02h57.15.998,arrow_simon_norep,2021.1.2,Win32,54.2888165,,,,,,,,,,,,,,,,,,,,,q,0,2.086,TRUE,FALSE,5,0,20,3,1,,,,,,,
,,,,,,1,2.392176769,#f3af84,,left_orange.png,q,,,,,,w,left_blue.png,left_orange.png,q,right,60ea8c3fff09d1cae3f2119c,001,2021-07-19_02h57.15.998,arrow_simon_norep,2021.1.2,Win32,54.2888165,,,,,,,,,,,,,,,,,,,,,o,0,2.306,TRUE,FALSE,5,1,21,3,1,,,,,,,
,,,,,,1,1.567269272,#a3d0fb,,left_blue.png,w,,,,,,w,left_blue.png,left_orange.png,q,right,60ea8c3fff09d1cae3f2119c,001,2021-07-19_02h57.15.998,arrow_simon_norep,2021.1.2,Win32,54.2888165,,,,,,,,,,,,,,,,,,,,,w,1,1.153,FALSE,TRUE,5,2,22,3,1,,,,,,,
,,,,,,1,2.323419694,#f3af84,,left_orange.png,q,,,,,,w,left_blue.png,left_orange.png,q,left,60ea8c3fff09d1cae3f2119c,001,2021-07-19_02h57.15.998,arrow_simon_norep,2021.1.2,Win32,54.2888165,,,,,,,,,,,,,,,,,,,,,q,1,1.886,TRUE,FALSE,5,3,23,2,1,,,,,,,
,,,,,,1,2.314349284,#a3d0fb,,left_blue.png,w,,,,,,w,left_blue.png,left_orange.png,q,left,60ea8c3fff09d1cae3f2119c,001,2021-07-19_02h57.15.998,arrow_simon_norep,2021.1.2,Win32,54.2888165,,,,,,,,,,,,,,,,,,,,,w,1,1.907,TRUE,FALSE,6,0,24,2,1,,,,,,,
,,,,,,1,2.310248855,#f3af84,,left_orange.png,q,,,,,,w,left_blue.png,left_orange.png,q,right,60ea8c3fff09d1cae3f2119c,001,2021-07-19_02h57.15.998,arrow_simon_norep,2021.1.2,Win32,54.2888165,,,,,,,,,,,,,,,,,,,,,w,0,3.321,TRUE,FALSE,6,1,25,3,1,,,,,,,
,,,,,,1,1.731494019,#a3d0fb,,right_blue.png,o,,,,,,o,right_blue.png,right_orange.png,p,right,60ea8c3fff09d1cae3f2119c,001,2021-07-19_02h57.15.998,arrow_simon_norep,2021.1.2,Win32,54.2888165,,,,,,,,,,,,,,,,,,,,,w,0,1.103,FALSE,TRUE,6,2,26,1,1,,,,,,,
,,,,,,1,2.390407956,#f3af84,,right_orange.png,p,,,,,,o,right_blue.png,right_orange.png,p,left,60ea8c3fff09d1cae3f2119c,001,2021-07-19_02h57.15.998,arrow_simon_norep,2021.1.2,Win32,54.2888165,,,,,,,,,,,,,,,,,,,,,p,1,2.671,TRUE,FALSE,6,3,27,0,1,,,,,,,
,,,,,,1,2.210769285,#a3d0fb,,right_blue.png,o,,,,,,o,right_blue.png,right_orange.png,p,left,60ea8c3fff09d1cae3f2119c,001,2021-07-19_02h57.15.998,arrow_simon_norep,2021.1.2,Win32,54.2888165,,,,,,,,,,,,,,,,,,,,,o,1,1.865,TRUE,FALSE,7,0,28,0,1,,,,,,,
,,,,,,1,1.537101615,#f3af84,,right_orange.png,p,,,,,,o,right_blue.png,right_orange.png,p,left,60ea8c3fff09d1cae3f2119c,001,2021-07-19_02h57.15.998,arrow_simon_norep,2021.1.2,Win32,54.2888165,,,,,,,,,,,,,,,,,,,,,p,1,1.003,FALSE,TRUE,7,1,29,0,1,,,,,,,
,,,,,,1,2.344618338,#a3d0fb,,right_blue.png,o,,,,,,o,right_blue.png,right_orange.png,p,right,60ea8c3fff09d1cae3f2119c,001,2021-07-19_02h57.15.998,arrow_simon_norep,2021.1.2,Win32,54.2888165,,,,,,,,,,,,,,,,,,,,,p,0,1.868,TRUE,FALSE,7,2,30,1,1,,,,,,,
,,,,,,1,2.189093882,#f3af84,,left_orange.png,q,,,,,,w,left_blue.png,left_orange.png,q,left,60ea8c3fff09d1cae3f2119c,001,2021-07-19_02h57.15.998,arrow_simon_norep,2021.1.2,Win32,54.2888165,,,,,,,,,,,,,,,,,,,,,o,0,1.459,FALSE,FALSE,7,3,31,2,1,,,,,,,
,,,,,,1,1.865122863,#a3d0fb,,right_blue.png,o,,,,,,o,right_blue.png,right_orange.png,p,right,60ea8c3fff09d1cae3f2119c,001,2021-07-19_02h57.15.998,arrow_simon_norep,2021.1.2,Win32,54.2888165,,,,,,,,,,,,,,,,,,,,,o,1,1.245,FALSE,TRUE,8,0,32,1,1,,,,,,,
,,,,,,1,2.079712443,#f3af84,,left_orange.png,q,,,,,,w,left_blue.png,left_orange.png,q,right,60ea8c3fff09d1cae3f2119c,001,2021-07-19_02h57.15.998,arrow_simon_norep,2021.1.2,Win32,54.2888165,,,,,,,,,,,,,,,,,,,,,o,0,1.49,FALSE,FALSE,8,1,33,3,1,,,,,,,
,,,,,,1,1.749163331,#a3d0fb,,left_blue.png,w,,,,,,w,left_blue.png,left_orange.png,q,right,60ea8c3fff09d1cae3f2119c,001,2021-07-19_02h57.15.998,arrow_simon_norep,2021.1.2,Win32,54.2888165,,,,,,,,,,,,,,,,,,,,,o,0,1.388,FALSE,TRUE,8,2,34,3,1,,,,,,,
,,,,,,1,2.31222634,#f3af84,,right_orange.png,p,,,,,,o,right_blue.png,right_orange.png,p,left,60ea8c3fff09d1cae3f2119c,001,2021-07-19_02h57.15.998,arrow_simon_norep,2021.1.2,Win32,54.2888165,,,,,,,,,,,,,,,,,,,,,w,0,2.185,TRUE,FALSE,8,3,35,0,1,,,,,,,
,,,,,,1,2.071015635,#a3d0fb,,right_blue.png,o,,,,,,o,right_blue.png,right_orange.png,p,right,60ea8c3fff09d1cae3f2119c,001,2021-07-19_02h57.15.998,arrow_simon_norep,2021.1.2,Win32,54.2888165,,,,,,,,,,,,,,,,,,,,,p,0,1.605,TRUE,FALSE,9,0,36,1,1,,,,,,,
,,,,,,1,2.048642641,#f3af84,,right_orange.png,p,,,,,,o,right_blue.png,right_orange.png,p,left,60ea8c3fff09d1cae3f2119c,001,2021-07-19_02h57.15.998,arrow_simon_norep,2021.1.2,Win32,54.2888165,,,,,,,,,,,,,,,,,,,,,p,1,1.688,TRUE,FALSE,9,1,37,0,1,,,,,,,
,,,,,,1,1.561524302,#a3d0fb,,left_blue.png,w,,,,,,w,left_blue.png,left_orange.png,q,left,60ea8c3fff09d1cae3f2119c,001,2021-07-19_02h57.15.998,arrow_simon_norep,2021.1.2,Win32,54.2888165,,,,,,,,,,,,,,,,,,,,,o,0,1.271,FALSE,TRUE,9,2,38,2,1,,,,,,,
,,,,,,1,2.204919163,#f3af84,,right_orange.png,p,,,,,,o,right_blue.png,right_orange.png,p,right,60ea8c3fff09d1cae3f2119c,001,2021-07-19_02h57.15.998,arrow_simon_norep,2021.1.2,Win32,54.2888165,,,,,,,,,,,,,,,,,,,,,p,1,1.836,TRUE,FALSE,9,3,39,1,1,,,,,,,
,,,,,,1,1.540029548,#a3d0fb,,left_blue.png,w,,,,,,w,left_blue.png,left_orange.png,q,left,60ea8c3fff09d1cae3f2119c,001,2021-07-19_02h57.15.998,arrow_simon_norep,2021.1.2,Win32,54.2888165,,,,,,,,,,,,,,,,,,,,,q,0,0.92,FALSE,TRUE,10,0,40,2,1,,,,,,,
,,,,,,1,2.126030579,#f3af84,,left_orange.png,q,,,,,,w,left_blue.png,left_orange.png,q,right,60ea8c3fff09d1cae3f2119c,001,2021-07-19_02h57.15.998,arrow_simon_norep,2021.1.2,Win32,54.2888165,,,,,,,,,,,,,,,,,,,,,o,0,1.537,FALSE,FALSE,10,1,41,3,1,,,,,,,
,,,,,,1,1.710213442,#a3d0fb,,right_blue.png,o,,,,,,o,right_blue.png,right_orange.png,p,left,60ea8c3fff09d1cae3f2119c,001,2021-07-19_02h57.15.998,arrow_simon_norep,2021.1.2,Win32,54.2888165,,,,,,,,,,,,,,,,,,,,,w,0,1.403,FALSE,FALSE,10,2,42,0,1,,,,,,,
,,,,,,1,2.361033453,#f3af84,,left_orange.png,q,,,,,,w,left_blue.png,left_orange.png,q,right,60ea8c3fff09d1cae3f2119c,001,2021-07-19_02h57.15.998,arrow_simon_norep,2021.1.2,Win32,54.2888165,,,,,,,,,,,,,,,,,,,,,p,0,1.902,TRUE,FALSE,10,3,43,3,1,,,,,,,
,,,,,,1,2.442450141,#a3d0fb,,left_blue.png,w,,,,,,w,left_blue.png,left_orange.png,q,left,60ea8c3fff09d1cae3f2119c,001,2021-07-19_02h57.15.998,arrow_simon_norep,2021.1.2,Win32,54.2888165,,,,,,,,,,,,,,,,,,,,,q,0,2.103,TRUE,FALSE,11,0,44,2,1,,,,,,,
,,,,,,1,2.16781541,#f3af84,,right_orange.png,p,,,,,,o,right_blue.png,right_orange.png,p,left,60ea8c3fff09d1cae3f2119c,001,2021-07-19_02h57.15.998,arrow_simon_norep,2021.1.2,Win32,54.2888165,,,,,,,,,,,,,,,,,,,,,p,1,2.039,TRUE,FALSE,11,1,45,0,1,,,,,,,
,,,,,,1,1.952385833,#a3d0fb,,left_blue.png,w,,,,,,w,left_blue.png,left_orange.png,q,left,60ea8c3fff09d1cae3f2119c,001,2021-07-19_02h57.15.998,arrow_simon_norep,2021.1.2,Win32,54.2888165,,,,,,,,,,,,,,,,,,,,,o,0,1.519,FALSE,FALSE,11,2,46,2,1,,,,,,,
,,,,,,1,2.470977861,#f3af84,,right_orange.png,p,,,,,,o,right_blue.png,right_orange.png,p,left,60ea8c3fff09d1cae3f2119c,001,2021-07-19_02h57.15.998,arrow_simon_norep,2021.1.2,Win32,54.2888165,,,,,,,,,,,,,,,,,,,,,p,1,2.486,TRUE,FALSE,11,3,47,0,1,,,,,,,
,,,,,,1,2.157380422,#a3d0fb,,right_blue.png,o,,,,,,o,right_blue.png,right_orange.png,p,left,60ea8c3fff09d1cae3f2119c,001,2021-07-19_02h57.15.998,arrow_simon_norep,2021.1.2,Win32,54.2888165,,,,,,,,,,,,,,,,,,,,,o,1,2.487,TRUE,FALSE,12,0,48,0,1,,,,,,,
,,,,,,1,1.946549243,#f3af84,,left_orange.png,q,,,,,,w,left_blue.png,left_orange.png,q,left,60ea8c3fff09d1cae3f2119c,001,2021-07-19_02h57.15.998,arrow_simon_norep,2021.1.2,Win32,54.2888165,,,,,,,,,,,,,,,,,,,,,w,0,2.289,TRUE,FALSE,12,1,49,2,1,,,,,,,
,,,,,,1,1.864626361,#a3d0fb,,left_blue.png,w,,,,,,w,left_blue.png,left_orange.png,q,right,60ea8c3fff09d1cae3f2119c,001,2021-07-19_02h57.15.998,arrow_simon_norep,2021.1.2,Win32,54.2888165,,,,,,,,,,,,,,,,,,,,,q,0,3.137,TRUE,FALSE,12,2,50,3,1,,,,,,,
,,,,,,1,2.278515727,#f3af84,,right_orange.png,p,,,,,,o,right_blue.png,right_orange.png,p,left,60ea8c3fff09d1cae3f2119c,001,2021-07-19_02h57.15.998,arrow_simon_norep,2021.1.2,Win32,54.2888165,,,,,,,,,,,,,,,,,,,,,p,1,2.42,TRUE,FALSE,12,3,51,0,1,,,,,,,
,,,,,,1,2.494453623,#a3d0fb,,left_blue.png,w,,,,,,w,left_blue.png,left_orange.png,q,left,60ea8c3fff09d1cae3f2119c,001,2021-07-19_02h57.15.998,arrow_simon_norep,2021.1.2,Win32,54.2888165,,,,,,,,,,,,,,,,,,,,,w,1,2.238,TRUE,FALSE,13,0,52,2,1,,,,,,,
,,,,,,1,1.768069759,#f3af84,,right_orange.png,p,,,,,,o,right_blue.png,right_orange.png,p,left,60ea8c3fff09d1cae3f2119c,001,2021-07-19_02h57.15.998,arrow_simon_norep,2021.1.2,Win32,54.2888165,,,,,,,,,,,,,,,,,,,,,p,1,2.387,TRUE,FALSE,13,1,53,0,1,,,,,,,
,,,,,,1,1.631631044,#a3d0fb,,right_blue.png,o,,,,,,o,right_blue.png,right_orange.png,p,left,60ea8c3fff09d1cae3f2119c,001,2021-07-19_02h57.15.998,arrow_simon_norep,2021.1.2,Win32,54.2888165,,,,,,,,,,,,,,,,,,,,,o,1,1.689,TRUE,FALSE,13,2,54,0,1,,,,,,,
,,,,,,1,1.657557461,#f3af84,,left_orange.png,q,,,,,,w,left_blue.png,left_orange.png,q,right,60ea8c3fff09d1cae3f2119c,001,2021-07-19_02h57.15.998,arrow_simon_norep,2021.1.2,Win32,54.2888165,,,,,,,,,,,,,,,,,,,,,p,0,1.206,FALSE,TRUE,13,3,55,3,1,,,,,,,
,,,,,,1,1.842384815,#a3d0fb,,right_blue.png,o,,,,,,o,right_blue.png,right_orange.png,p,right,60ea8c3fff09d1cae3f2119c,001,2021-07-19_02h57.15.998,arrow_simon_norep,2021.1.2,Win32,54.2888165,,,,,,,,,,,,,,,,,,,,,p,0,1.868,TRUE,FALSE,14,0,56,1,1,,,,,,,
,,,,,,1,2.222326497,#f3af84,,right_orange.png,p,,,,,,o,right_blue.png,right_orange.png,p,right,60ea8c3fff09d1cae3f2119c,001,2021-07-19_02h57.15.998,arrow_simon_norep,2021.1.2,Win32,54.2888165,,,,,,,,,,,,,,,,,,,,,o,0,1.989,TRUE,FALSE,14,1,57,1,1,,,,,,,
