instruct_resp_simon.keys,instruct_resp_simon.corr,instruct_resp_simon.rt,trial_resp_simon.keys,trial_resp_simon.corr,trial_resp_simon.rt,kerr,target_onset,target_color,target_pos,target_file,target_resp,trials_train_simon.thisRepN,trials_train_simon.thisTrialN,trials_train_simon.thisN,trials_train_simon.thisIndex,trials_train_simon.ran,odd_target_resp,odd_target_file,even_target_file,even_target_resp,participant,session,date,expName,psychopyVersion,OS,frameRate,train_block_note_resp.keys,train_block_note_resp.rt,blocks_train.thisRepN,blocks_train.thisTrialN,blocks_train.thisN,blocks_train.thisIndex,blocks_train.ran,instruct_resp_timing.keys,instruct_resp_timing.corr,instruct_resp_timing.rt,trial_resp_timing.keys,trial_resp_timing.rt,trials_train_timing.thisRepN,trials_train_timing.thisTrialN,trials_train_timing.thisN,trials_train_timing.thisIndex,trials_train_timing.ran,instruct_resp.keys,instruct_resp.corr,instruct_resp.rt,trial_resp.keys,trial_resp.corr,trial_resp.rt,too_slow,too_soon,trials.thisRepN,trials.thisTrialN,trials.thisN,trials.thisIndex,trials.ran,block_note_resp.keys,block_note_resp.rt,blocks.thisRepN,blocks.thisTrialN,blocks.thisN,blocks.thisIndex,blocks.ran
space,0,369.603,w,1,4.254,0,0.15246279,#a3d0fb,,left_blue.png,w,0,0,0,2,1,w,left_blue.png,left_orange.png,q,60ef1280d72bd6dd52ad6006,001,2021-07-18_16h16.15.245,arrow_simon_norep,2021.1.2,Win32,60.0240096,,,,,,,,,,,,,,,,,,,,,,,,,,,,,,,,,,,,,
,,,q,1,4.106,0,0.731624954,#f3af84,,left_orange.png,q,0,1,1,2,1,w,left_blue.png,left_orange.png,q,60ef1280d72bd6dd52ad6006,001,2021-07-18_16h16.15.245,arrow_simon_norep,2021.1.2,Win32,60.0240096,,,,,,,,,,,,,,,,,,,,,,,,,,,,,,,,,,,,,
,,,w,1,2.447,0,0.368901762,#a3d0fb,,left_blue.png,w,0,2,2,2,1,w,left_blue.png,left_orange.png,q,60ef1280d72bd6dd52ad6006,001,2021-07-18_16h16.15.245,arrow_simon_norep,2021.1.2,Win32,60.0240096,,,,,,,,,,,,,,,,,,,,,,,,,,,,,,,,,,,,,
,,,p,0,3.994,1,0.033834149,#f3af84,,left_orange.png,q,0,3,3,3,1,w,left_blue.png,left_orange.png,q,60ef1280d72bd6dd52ad6006,001,2021-07-18_16h16.15.245,arrow_simon_norep,2021.1.2,Win32,60.0240096,,,,,,,,,,,,,,,,,,,,,,,,,,,,,,,,,,,,,
,,,q,0,2.719,1,0.152394017,#a3d0fb,,right_blue.png,o,1,0,4,0,1,o,right_blue.png,right_orange.png,p,60ef1280d72bd6dd52ad6006,001,2021-07-18_16h16.15.245,arrow_simon_norep,2021.1.2,Win32,60.0240096,,,,,,,,,,,,,,,,,,,,,,,,,,,,,,,,,,,,,
,,,q,1,4.013,0,0.6236828,#f3af84,,left_orange.png,q,1,1,5,3,1,w,left_blue.png,left_orange.png,q,60ef1280d72bd6dd52ad6006,001,2021-07-18_16h16.15.245,arrow_simon_norep,2021.1.2,Win32,60.0240096,,,,,,,,,,,,,,,,,,,,,,,,,,,,,,,,,,,,,
,,,w,1,1.8,0,0.403543841,#a3d0fb,,left_blue.png,w,1,2,6,2,1,w,left_blue.png,left_orange.png,q,60ef1280d72bd6dd52ad6006,001,2021-07-18_16h16.15.245,arrow_simon_norep,2021.1.2,Win32,60.0240096,,,,,,,,,,,,,,,,,,,,,,,,,,,,,,,,,,,,,
,,,o,0,2.494,1,0.707559675,#f3af84,,right_orange.png,p,1,3,7,0,1,o,right_blue.png,right_orange.png,p,60ef1280d72bd6dd52ad6006,001,2021-07-18_16h16.15.245,arrow_simon_norep,2021.1.2,Win32,60.0240096,,,,,,,,,,,,,,,,,,,,,,,,,,,,,,,,,,,,,
,,,w,1,2.85,0,0.546385253,#a3d0fb,,left_blue.png,w,2,0,8,2,1,w,left_blue.png,left_orange.png,q,60ef1280d72bd6dd52ad6006,001,2021-07-18_16h16.15.245,arrow_simon_norep,2021.1.2,Win32,60.0240096,,,,,,,,,,,,,,,,,,,,,,,,,,,,,,,,,,,,,
,,,q,1,3.197,0,0.91179682,#f3af84,,left_orange.png,q,2,1,9,3,1,w,left_blue.png,left_orange.png,q,60ef1280d72bd6dd52ad6006,001,2021-07-18_16h16.15.245,arrow_simon_norep,2021.1.2,Win32,60.0240096,,,,,,,,,,,,,,,,,,,,,,,,,,,,,,,,,,,,,
,,,w,0,2.132,1,0.568400145,#a3d0fb,,right_blue.png,o,2,2,10,0,1,o,right_blue.png,right_orange.png,p,60ef1280d72bd6dd52ad6006,001,2021-07-18_16h16.15.245,arrow_simon_norep,2021.1.2,Win32,60.0240096,,,,,,,,,,,,,,,,,,,,,,,,,,,,,,,,,,,,,
,,,o,0,2.997,1,0.624342998,#f3af84,,right_orange.png,p,2,3,11,1,1,o,right_blue.png,right_orange.png,p,60ef1280d72bd6dd52ad6006,001,2021-07-18_16h16.15.245,arrow_simon_norep,2021.1.2,Win32,60.0240096,,,,,,,,,,,,,,,,,,,,,,,,,,,,,,,,,,,,,
,,,w,1,2.581,0,0.685317387,#a3d0fb,,left_blue.png,w,3,0,12,3,1,w,left_blue.png,left_orange.png,q,60ef1280d72bd6dd52ad6006,001,2021-07-18_16h16.15.245,arrow_simon_norep,2021.1.2,Win32,60.0240096,,,,,,,,,,,,,,,,,,,,,,,,,,,,,,,,,,,,,
,,,q,1,2.281,0,0.226122078,#f3af84,,left_orange.png,q,3,1,13,2,1,w,left_blue.png,left_orange.png,q,60ef1280d72bd6dd52ad6006,001,2021-07-18_16h16.15.245,arrow_simon_norep,2021.1.2,Win32,60.0240096,,,,,,,,,,,,,,,,,,,,,,,,,,,,,,,,,,,,,
,,,w,1,2.551,0,0.659429865,#a3d0fb,,left_blue.png,w,3,2,14,3,1,w,left_blue.png,left_orange.png,q,60ef1280d72bd6dd52ad6006,001,2021-07-18_16h16.15.245,arrow_simon_norep,2021.1.2,Win32,60.0240096,,,,,,,,,,,,,,,,,,,,,,,,,,,,,,,,,,,,,
,,,q,1,2.596,0,0.961377728,#f3af84,,left_orange.png,q,3,3,15,2,1,w,left_blue.png,left_orange.png,q,60ef1280d72bd6dd52ad6006,001,2021-07-18_16h16.15.245,arrow_simon_norep,2021.1.2,Win32,60.0240096,,,,,,,,,,,,,,,,,,,,,,,,,,,,,,,,,,,,,
,,,w,1,2.149,0,0.144094989,#a3d0fb,,left_blue.png,w,4,0,16,3,1,w,left_blue.png,left_orange.png,q,60ef1280d72bd6dd52ad6006,001,2021-07-18_16h16.15.245,arrow_simon_norep,2021.1.2,Win32,60.0240096,,,,,,,,,,,,,,,,,,,,,,,,,,,,,,,,,,,,,
,,,q,1,2.185,0,0.458202564,#f3af84,,left_orange.png,q,4,1,17,2,1,w,left_blue.png,left_orange.png,q,60ef1280d72bd6dd52ad6006,001,2021-07-18_16h16.15.245,arrow_simon_norep,2021.1.2,Win32,60.0240096,,,,,,,,,,,,,,,,,,,,,,,,,,,,,,,,,,,,,
,,,o,1,4.494,0,0.749502059,#a3d0fb,,right_blue.png,o,4,2,18,1,1,o,right_blue.png,right_orange.png,p,60ef1280d72bd6dd52ad6006,001,2021-07-18_16h16.15.245,arrow_simon_norep,2021.1.2,Win32,60.0240096,,,,,,,,,,,,,,,,,,,,,,,,,,,,,,,,,,,,,
,,,q,1,3.834,0,0.771025456,#f3af84,,left_orange.png,q,4,3,19,3,1,w,left_blue.png,left_orange.png,q,60ef1280d72bd6dd52ad6006,001,2021-07-18_16h16.15.245,arrow_simon_norep,2021.1.2,Win32,60.0240096,,,,,,,,,,,,,,,,,,,,,,,,,,,,,,,,,,,,,
,,,o,1,3.614,0,0.892837596,#a3d0fb,,right_blue.png,o,5,0,20,0,1,o,right_blue.png,right_orange.png,p,60ef1280d72bd6dd52ad6006,001,2021-07-18_16h16.15.245,arrow_simon_norep,2021.1.2,Win32,60.0240096,,,,,,,,,,,,,,,,,,,,,,,,,,,,,,,,,,,,,
,,,p,1,2.779,0,0.520802181,#f3af84,,right_orange.png,p,5,1,21,1,1,o,right_blue.png,right_orange.png,p,60ef1280d72bd6dd52ad6006,001,2021-07-18_16h16.15.245,arrow_simon_norep,2021.1.2,Win32,60.0240096,,,,,,,,,,,,,,,,,,,,,,,,,,,,,,,,,,,,,
,,,w,1,2.264,0,0.778460037,#a3d0fb,,left_blue.png,w,5,2,22,3,1,w,left_blue.png,left_orange.png,q,60ef1280d72bd6dd52ad6006,001,2021-07-18_16h16.15.245,arrow_simon_norep,2021.1.2,Win32,60.0240096,,,,,,,,,,,,,,,,,,,,,,,,,,,,,,,,,,,,,
,,,p,1,6.392,0,0.67245048,#f3af84,,right_orange.png,p,5,3,23,1,1,o,right_blue.png,right_orange.png,p,60ef1280d72bd6dd52ad6006,001,2021-07-18_16h16.15.245,arrow_simon_norep,2021.1.2,Win32,60.0240096,,,,,,,,,,,,,,,,,,,,,,,,,,,,,,,,,,,,,
,,,w,0,2.404,1,0.218184446,#a3d0fb,,right_blue.png,o,6,0,24,1,1,o,right_blue.png,right_orange.png,p,60ef1280d72bd6dd52ad6006,001,2021-07-18_16h16.15.245,arrow_simon_norep,2021.1.2,Win32,60.0240096,,,,,,,,,,,,,,,,,,,,,,,,,,,,,,,,,,,,,
,,,q,1,2.534,0,0.66714837,#f3af84,,left_orange.png,q,6,1,25,3,1,w,left_blue.png,left_orange.png,q,60ef1280d72bd6dd52ad6006,001,2021-07-18_16h16.15.245,arrow_simon_norep,2021.1.2,Win32,60.0240096,,,,,,,,,,,,,,,,,,,,,,,,,,,,,,,,,,,,,
,,,o,1,2.533,0,0.073118434,#a3d0fb,,right_blue.png,o,6,2,26,1,1,o,right_blue.png,right_orange.png,p,60ef1280d72bd6dd52ad6006,001,2021-07-18_16h16.15.245,arrow_simon_norep,2021.1.2,Win32,60.0240096,,,,,,,,,,,,,,,,,,,,,,,,,,,,,,,,,,,,,
,,,p,1,3.789,0,0.455588841,#f3af84,,right_orange.png,p,6,3,27,0,1,o,right_blue.png,right_orange.png,p,60ef1280d72bd6dd52ad6006,001,2021-07-18_16h16.15.245,arrow_simon_norep,2021.1.2,Win32,60.0240096,,,,,,,,,,,,,,,,,,,,,,,,,,,,,,,,,,,,,
,,,o,1,3.697,0,0.202776276,#a3d0fb,,right_blue.png,o,7,0,28,1,1,o,right_blue.png,right_orange.png,p,60ef1280d72bd6dd52ad6006,001,2021-07-18_16h16.15.245,arrow_simon_norep,2021.1.2,Win32,60.0240096,,,,,,,,,,,,,,,,,,,,,,,,,,,,,,,,,,,,,
,,,p,1,3.33,0,0.042765326,#f3af84,,right_orange.png,p,7,1,29,0,1,o,right_blue.png,right_orange.png,p,60ef1280d72bd6dd52ad6006,001,2021-07-18_16h16.15.245,arrow_simon_norep,2021.1.2,Win32,60.0240096,,,,,,,,,,,,,,,,,,,,,,,,,,,,,,,,,,,,,
,,,o,1,2.748,0,0.438931403,#a3d0fb,,right_blue.png,o,7,2,30,0,1,o,right_blue.png,right_orange.png,p,60ef1280d72bd6dd52ad6006,001,2021-07-18_16h16.15.245,arrow_simon_norep,2021.1.2,Win32,60.0240096,,,,,,,,,,,,,,,,,,,,,,,,,,,,,,,,,,,,,
,,,p,1,3.241,0,0.149181221,#f3af84,,right_orange.png,p,7,3,31,1,1,o,right_blue.png,right_orange.png,p,60ef1280d72bd6dd52ad6006,001,2021-07-18_16h16.15.245,arrow_simon_norep,2021.1.2,Win32,60.0240096,,,,,,,,,,,,,,,,,,,,,,,,,,,,,,,,,,,,,
,,,w,1,1.712,0,0.286212072,#a3d0fb,,left_blue.png,w,8,0,32,3,1,w,left_blue.png,left_orange.png,q,60ef1280d72bd6dd52ad6006,001,2021-07-18_16h16.15.245,arrow_simon_norep,2021.1.2,Win32,60.0240096,,,,,,,,,,,,,,,,,,,,,,,,,,,,,,,,,,,,,
,,,q,1,3.071,0,0.880059886,#f3af84,,left_orange.png,q,8,1,33,3,1,w,left_blue.png,left_orange.png,q,60ef1280d72bd6dd52ad6006,001,2021-07-18_16h16.15.245,arrow_simon_norep,2021.1.2,Win32,60.0240096,,,,,,,,,,,,,,,,,,,,,,,,,,,,,,,,,,,,,
,,,o,1,5.208,0,0.10630245,#a3d0fb,,right_blue.png,o,8,2,34,1,1,o,right_blue.png,right_orange.png,p,60ef1280d72bd6dd52ad6006,001,2021-07-18_16h16.15.245,arrow_simon_norep,2021.1.2,Win32,60.0240096,,,,,,,,,,,,,,,,,,,,,,,,,,,,,,,,,,,,,
,,,p,1,2.994,0,0.990883628,#f3af84,,right_orange.png,p,8,3,35,0,1,o,right_blue.png,right_orange.png,p,60ef1280d72bd6dd52ad6006,001,2021-07-18_16h16.15.245,arrow_simon_norep,2021.1.2,Win32,60.0240096,,,,,,,,,,,,,,,,,,,,,,,,,,,,,,,,,,,,,
,,,w,1,2.326,0,0.850743056,#a3d0fb,,left_blue.png,w,9,0,36,2,1,w,left_blue.png,left_orange.png,q,60ef1280d72bd6dd52ad6006,001,2021-07-18_16h16.15.245,arrow_simon_norep,2021.1.2,Win32,60.0240096,,,,,,,,,,,,,,,,,,,,,,,,,,,,,,,,,,,,,
,,,q,0,3.415,1,0.685223377,#f3af84,,right_orange.png,p,9,1,37,1,1,o,right_blue.png,right_orange.png,p,60ef1280d72bd6dd52ad6006,001,2021-07-18_16h16.15.245,arrow_simon_norep,2021.1.2,Win32,60.0240096,,,,,,,,,,,,,,,,,,,,,,,,,,,,,,,,,,,,,
,,,w,0,1.104,1,0.19716161,#a3d0fb,,right_blue.png,o,9,2,38,1,1,o,right_blue.png,right_orange.png,p,60ef1280d72bd6dd52ad6006,001,2021-07-18_16h16.15.245,arrow_simon_norep,2021.1.2,Win32,60.0240096,,,,,,,,,,,,,,,,,,,,,,,,,,,,,,,,,,,,,
,,,p,1,3.311,0,0.736209315,#f3af84,,right_orange.png,p,9,3,39,1,1,o,right_blue.png,right_orange.png,p,60ef1280d72bd6dd52ad6006,001,2021-07-18_16h16.15.245,arrow_simon_norep,2021.1.2,Win32,60.0240096,,,,,,,,,,,,,,,,,,,,,,,,,,,,,,,,,,,,,
,,,w,0,1.548,1,0.001988514,#a3d0fb,,right_blue.png,o,10,0,40,1,1,o,right_blue.png,right_orange.png,p,60ef1280d72bd6dd52ad6006,001,2021-07-18_16h16.15.245,arrow_simon_norep,2021.1.2,Win32,60.0240096,,,,,,,,,,,,,,,,,,,,,,,,,,,,,,,,,,,,,
,,,p,1,4.583,0,0.858602786,#f3af84,,right_orange.png,p,10,1,41,0,1,o,right_blue.png,right_orange.png,p,60ef1280d72bd6dd52ad6006,001,2021-07-18_16h16.15.245,arrow_simon_norep,2021.1.2,Win32,60.0240096,,,,,,,,,,,,,,,,,,,,,,,,,,,,,,,,,,,,,
,,,w,1,3.528,0,0.906642823,#a3d0fb,,left_blue.png,w,10,2,42,3,1,w,left_blue.png,left_orange.png,q,60ef1280d72bd6dd52ad6006,001,2021-07-18_16h16.15.245,arrow_simon_norep,2021.1.2,Win32,60.0240096,,,,,,,,,,,,,,,,,,,,,,,,,,,,,,,,,,,,,
,,,p,1,2.7,0,0.23036287,#f3af84,,right_orange.png,p,10,3,43,0,1,o,right_blue.png,right_orange.png,p,60ef1280d72bd6dd52ad6006,001,2021-07-18_16h16.15.245,arrow_simon_norep,2021.1.2,Win32,60.0240096,,,,,,,,,,,,,,,,,,,,,,,,,,,,,,,,,,,,,
,,,o,1,2.014,0,0.098311014,#a3d0fb,,right_blue.png,o,11,0,44,1,1,o,right_blue.png,right_orange.png,p,60ef1280d72bd6dd52ad6006,001,2021-07-18_16h16.15.245,arrow_simon_norep,2021.1.2,Win32,60.0240096,,,,,,,,,,,,,,,,,,,,,,,,,,,,,,,,,,,,,
,,,q,1,2.432,0,0.262256486,#f3af84,,left_orange.png,q,11,1,45,2,1,w,left_blue.png,left_orange.png,q,60ef1280d72bd6dd52ad6006,001,2021-07-18_16h16.15.245,arrow_simon_norep,2021.1.2,Win32,60.0240096,,,,,,,,,,,,,,,,,,,,,,,,,,,,,,,,,,,,,
,,,o,1,3.03,0,0.681950069,#a3d0fb,,right_blue.png,o,11,2,46,0,1,o,right_blue.png,right_orange.png,p,60ef1280d72bd6dd52ad6006,001,2021-07-18_16h16.15.245,arrow_simon_norep,2021.1.2,Win32,60.0240096,,,,,,,,,,,,,,,,,,,,,,,,,,,,,,,,,,,,,
,,,p,1,2.944,0,0.368822047,#f3af84,,right_orange.png,p,11,3,47,0,1,o,right_blue.png,right_orange.png,p,60ef1280d72bd6dd52ad6006,001,2021-07-18_16h16.15.245,arrow_simon_norep,2021.1.2,Win32,60.0240096,,,,,,,,,,,,,,,,,,,,,,,,,,,,,,,,,,,,,
,,,w,1,2.266,0,0.050380306,#a3d0fb,,left_blue.png,w,12,0,48,3,1,w,left_blue.png,left_orange.png,q,60ef1280d72bd6dd52ad6006,001,2021-07-18_16h16.15.245,arrow_simon_norep,2021.1.2,Win32,60.0240096,,,,,,,,,,,,,,,,,,,,,,,,,,,,,,,,,,,,,
,,,q,1,5.991,0,0.761906221,#f3af84,,left_orange.png,q,12,1,49,3,1,w,left_blue.png,left_orange.png,q,60ef1280d72bd6dd52ad6006,001,2021-07-18_16h16.15.245,arrow_simon_norep,2021.1.2,Win32,60.0240096,,,,,,,,,,,,,,,,,,,,,,,,,,,,,,,,,,,,,
,,,w,1,1.585,0,0.255365297,#a3d0fb,,left_blue.png,w,12,2,50,2,1,w,left_blue.png,left_orange.png,q,60ef1280d72bd6dd52ad6006,001,2021-07-18_16h16.15.245,arrow_simon_norep,2021.1.2,Win32,60.0240096,,,,,,,,,,,,,,,,,,,,,,,,,,,,,,,,,,,,,
,,,q,1,1.648,0,0.251699386,#f3af84,,left_orange.png,q,12,3,51,2,1,w,left_blue.png,left_orange.png,q,60ef1280d72bd6dd52ad6006,001,2021-07-18_16h16.15.245,arrow_simon_norep,2021.1.2,Win32,60.0240096,,,,,,,,,,,,,,,,,,,,,,,,,,,,,,,,,,,,,
,,,o,1,3.144,0,0.365672291,#a3d0fb,,right_blue.png,o,13,0,52,0,1,o,right_blue.png,right_orange.png,p,60ef1280d72bd6dd52ad6006,001,2021-07-18_16h16.15.245,arrow_simon_norep,2021.1.2,Win32,60.0240096,,,,,,,,,,,,,,,,,,,,,,,,,,,,,,,,,,,,,
,,,q,1,4.865,0,0.811303084,#f3af84,,left_orange.png,q,13,1,53,3,1,w,left_blue.png,left_orange.png,q,60ef1280d72bd6dd52ad6006,001,2021-07-18_16h16.15.245,arrow_simon_norep,2021.1.2,Win32,60.0240096,,,,,,,,,,,,,,,,,,,,,,,,,,,,,,,,,,,,,
,,,w,0,2.824,1,0.432762547,#a3d0fb,,right_blue.png,o,13,2,54,0,1,o,right_blue.png,right_orange.png,p,60ef1280d72bd6dd52ad6006,001,2021-07-18_16h16.15.245,arrow_simon_norep,2021.1.2,Win32,60.0240096,,,,,,,,,,,,,,,,,,,,,,,,,,,,,,,,,,,,,
,,,p,1,4.012,0,0.880204182,#f3af84,,right_orange.png,p,13,3,55,0,1,o,right_blue.png,right_orange.png,p,60ef1280d72bd6dd52ad6006,001,2021-07-18_16h16.15.245,arrow_simon_norep,2021.1.2,Win32,60.0240096,,,,,,,,,,,,,,,,,,,,,,,,,,,,,,,,,,,,,
,,,w,1,4.578,0,0.494047411,#a3d0fb,,left_blue.png,w,14,0,56,2,1,w,left_blue.png,left_orange.png,q,60ef1280d72bd6dd52ad6006,001,2021-07-18_16h16.15.245,arrow_simon_norep,2021.1.2,Win32,60.0240096,,,,,,,,,,,,,,,,,,,,,,,,,,,,,,,,,,,,,
,,,p,1,3.73,0,0.235290706,#f3af84,,right_orange.png,p,14,1,57,1,1,o,right_blue.png,right_orange.png,p,60ef1280d72bd6dd52ad6006,001,2021-07-18_16h16.15.245,arrow_simon_norep,2021.1.2,Win32,60.0240096,,,,,,,,,,,,,,,,,,,,,,,,,,,,,,,,,,,,,
,,,w,1,3.249,0,0.064449768,#a3d0fb,,left_blue.png,w,14,2,58,2,1,w,left_blue.png,left_orange.png,q,60ef1280d72bd6dd52ad6006,001,2021-07-18_16h16.15.245,arrow_simon_norep,2021.1.2,Win32,60.0240096,,,,,,,,,,,,,,,,,,,,,,,,,,,,,,,,,,,,,
,,,q,1,3.427,0,0.842785949,#f3af84,,left_orange.png,q,14,3,59,2,1,w,left_blue.png,left_orange.png,q,60ef1280d72bd6dd52ad6006,001,2021-07-18_16h16.15.245,arrow_simon_norep,2021.1.2,Win32,60.0240096,,,,,,,,,,,,,,,,,,,,,,,,,,,,,,,,,,,,,
,,,,,,,,,,,,,,,,,,,,,60ef1280d72bd6dd52ad6006,001,2021-07-18_16h16.15.245,arrow_simon_norep,2021.1.2,Win32,60.0240096,space,64.486,0,0,0,0,1,,,,,,,,,,,,,,,,,,,,,,,,,,,,,,
,,,w,1,3.661,0,0.884176427,#a3d0fb,,left_blue.png,w,0,0,0,3,1,w,left_blue.png,left_orange.png,q,60ef1280d72bd6dd52ad6006,001,2021-07-18_16h16.15.245,arrow_simon_norep,2021.1.2,Win32,60.0240096,,,,,,,,,,,,,,,,,,,,,,,,,,,,,,,,,,,,,
,,,p,1,5.776,0,0.420733486,#f3af84,,right_orange.png,p,0,1,1,1,1,o,right_blue.png,right_orange.png,p,60ef1280d72bd6dd52ad6006,001,2021-07-18_16h16.15.245,arrow_simon_norep,2021.1.2,Win32,60.0240096,,,,,,,,,,,,,,,,,,,,,,,,,,,,,,,,,,,,,
,,,w,1,2.381,0,0.373841535,#a3d0fb,,left_blue.png,w,0,2,2,3,1,w,left_blue.png,left_orange.png,q,60ef1280d72bd6dd52ad6006,001,2021-07-18_16h16.15.245,arrow_simon_norep,2021.1.2,Win32,60.0240096,,,,,,,,,,,,,,,,,,,,,,,,,,,,,,,,,,,,,
,,,p,1,4.611,0,0.658688201,#f3af84,,right_orange.png,p,0,3,3,0,1,o,right_blue.png,right_orange.png,p,60ef1280d72bd6dd52ad6006,001,2021-07-18_16h16.15.245,arrow_simon_norep,2021.1.2,Win32,60.0240096,,,,,,,,,,,,,,,,,,,,,,,,,,,,,,,,,,,,,
,,,o,1,3.349,0,0.787569818,#a3d0fb,,right_blue.png,o,1,0,4,0,1,o,right_blue.png,right_orange.png,p,60ef1280d72bd6dd52ad6006,001,2021-07-18_16h16.15.245,arrow_simon_norep,2021.1.2,Win32,60.0240096,,,,,,,,,,,,,,,,,,,,,,,,,,,,,,,,,,,,,
,,,q,1,3.481,0,0.851629911,#f3af84,,left_orange.png,q,1,1,5,2,1,w,left_blue.png,left_orange.png,q,60ef1280d72bd6dd52ad6006,001,2021-07-18_16h16.15.245,arrow_simon_norep,2021.1.2,Win32,60.0240096,,,,,,,,,,,,,,,,,,,,,,,,,,,,,,,,,,,,,
,,,w,1,2.4,0,0.201070896,#a3d0fb,,left_blue.png,w,1,2,6,2,1,w,left_blue.png,left_orange.png,q,60ef1280d72bd6dd52ad6006,001,2021-07-18_16h16.15.245,arrow_simon_norep,2021.1.2,Win32,60.0240096,,,,,,,,,,,,,,,,,,,,,,,,,,,,,,,,,,,,,
,,,p,1,2.987,0,0.650135107,#f3af84,,right_orange.png,p,1,3,7,0,1,o,right_blue.png,right_orange.png,p,60ef1280d72bd6dd52ad6006,001,2021-07-18_16h16.15.245,arrow_simon_norep,2021.1.2,Win32,60.0240096,,,,,,,,,,,,,,,,,,,,,,,,,,,,,,,,,,,,,
,,,o,1,3.09,0,0.416362532,#a3d0fb,,right_blue.png,o,2,0,8,1,1,o,right_blue.png,right_orange.png,p,60ef1280d72bd6dd52ad6006,001,2021-07-18_16h16.15.245,arrow_simon_norep,2021.1.2,Win32,60.0240096,,,,,,,,,,,,,,,,,,,,,,,,,,,,,,,,,,,,,
,,,p,1,3.563,0,0.243761105,#f3af84,,right_orange.png,p,2,1,9,0,1,o,right_blue.png,right_orange.png,p,60ef1280d72bd6dd52ad6006,001,2021-07-18_16h16.15.245,arrow_simon_norep,2021.1.2,Win32,60.0240096,,,,,,,,,,,,,,,,,,,,,,,,,,,,,,,,,,,,,
,,,w,1,2.815,0,0.570961953,#a3d0fb,,left_blue.png,w,2,2,10,2,1,w,left_blue.png,left_orange.png,q,60ef1280d72bd6dd52ad6006,001,2021-07-18_16h16.15.245,arrow_simon_norep,2021.1.2,Win32,60.0240096,,,,,,,,,,,,,,,,,,,,,,,,,,,,,,,,,,,,,
,,,p,1,3.829,0,0.409787473,#f3af84,,right_orange.png,p,2,3,11,0,1,o,right_blue.png,right_orange.png,p,60ef1280d72bd6dd52ad6006,001,2021-07-18_16h16.15.245,arrow_simon_norep,2021.1.2,Win32,60.0240096,,,,,,,,,,,,,,,,,,,,,,,,,,,,,,,,,,,,,
,,,o,1,3.396,0,0.72611292,#a3d0fb,,right_blue.png,o,3,0,12,0,1,o,right_blue.png,right_orange.png,p,60ef1280d72bd6dd52ad6006,001,2021-07-18_16h16.15.245,arrow_simon_norep,2021.1.2,Win32,60.0240096,,,,,,,,,,,,,,,,,,,,,,,,,,,,,,,,,,,,,
,,,q,1,2.922,0,0.367398576,#f3af84,,left_orange.png,q,3,1,13,2,1,w,left_blue.png,left_orange.png,q,60ef1280d72bd6dd52ad6006,001,2021-07-18_16h16.15.245,arrow_simon_norep,2021.1.2,Win32,60.0240096,,,,,,,,,,,,,,,,,,,,,,,,,,,,,,,,,,,,,
,,,o,1,2.916,0,0.006062638,#a3d0fb,,right_blue.png,o,3,2,14,0,1,o,right_blue.png,right_orange.png,p,60ef1280d72bd6dd52ad6006,001,2021-07-18_16h16.15.245,arrow_simon_norep,2021.1.2,Win32,60.0240096,,,,,,,,,,,,,,,,,,,,,,,,,,,,,,,,,,,,,
,,,q,1,3.126,0,0.397907103,#f3af84,,left_orange.png,q,3,3,15,3,1,w,left_blue.png,left_orange.png,q,60ef1280d72bd6dd52ad6006,001,2021-07-18_16h16.15.245,arrow_simon_norep,2021.1.2,Win32,60.0240096,,,,,,,,,,,,,,,,,,,,,,,,,,,,,,,,,,,,,
,,,o,1,3.712,0,0.935511366,#a3d0fb,,right_blue.png,o,4,0,16,1,1,o,right_blue.png,right_orange.png,p,60ef1280d72bd6dd52ad6006,001,2021-07-18_16h16.15.245,arrow_simon_norep,2021.1.2,Win32,60.0240096,,,,,,,,,,,,,,,,,,,,,,,,,,,,,,,,,,,,,
,,,q,1,2.926,0,0.056599802,#f3af84,,left_orange.png,q,4,1,17,2,1,w,left_blue.png,left_orange.png,q,60ef1280d72bd6dd52ad6006,001,2021-07-18_16h16.15.245,arrow_simon_norep,2021.1.2,Win32,60.0240096,,,,,,,,,,,,,,,,,,,,,,,,,,,,,,,,,,,,,
,,,w,1,2.4,0,0.318146238,#a3d0fb,,left_blue.png,w,4,2,18,2,1,w,left_blue.png,left_orange.png,q,60ef1280d72bd6dd52ad6006,001,2021-07-18_16h16.15.245,arrow_simon_norep,2021.1.2,Win32,60.0240096,,,,,,,,,,,,,,,,,,,,,,,,,,,,,,,,,,,,,
,,,p,1,3.228,0,0.558112431,#f3af84,,right_orange.png,p,4,3,19,1,1,o,right_blue.png,right_orange.png,p,60ef1280d72bd6dd52ad6006,001,2021-07-18_16h16.15.245,arrow_simon_norep,2021.1.2,Win32,60.0240096,,,,,,,,,,,,,,,,,,,,,,,,,,,,,,,,,,,,,
,,,o,1,3.643,0,0.895537102,#a3d0fb,,right_blue.png,o,5,0,20,1,1,o,right_blue.png,right_orange.png,p,60ef1280d72bd6dd52ad6006,001,2021-07-18_16h16.15.245,arrow_simon_norep,2021.1.2,Win32,60.0240096,,,,,,,,,,,,,,,,,,,,,,,,,,,,,,,,,,,,,
,,,q,1,2.979,0,0.533978749,#f3af84,,left_orange.png,q,5,1,21,3,1,w,left_blue.png,left_orange.png,q,60ef1280d72bd6dd52ad6006,001,2021-07-18_16h16.15.245,arrow_simon_norep,2021.1.2,Win32,60.0240096,,,,,,,,,,,,,,,,,,,,,,,,,,,,,,,,,,,,,
,,,o,1,3.06,0,0.328707562,#a3d0fb,,right_blue.png,o,5,2,22,0,1,o,right_blue.png,right_orange.png,p,60ef1280d72bd6dd52ad6006,001,2021-07-18_16h16.15.245,arrow_simon_norep,2021.1.2,Win32,60.0240096,,,,,,,,,,,,,,,,,,,,,,,,,,,,,,,,,,,,,
,,,q,1,3.195,0,0.339621786,#f3af84,,left_orange.png,q,5,3,23,3,1,w,left_blue.png,left_orange.png,q,60ef1280d72bd6dd52ad6006,001,2021-07-18_16h16.15.245,arrow_simon_norep,2021.1.2,Win32,60.0240096,,,,,,,,,,,,,,,,,,,,,,,,,,,,,,,,,,,,,
,,,o,1,3.077,0,0.750041934,#a3d0fb,,right_blue.png,o,6,0,24,0,1,o,right_blue.png,right_orange.png,p,60ef1280d72bd6dd52ad6006,001,2021-07-18_16h16.15.245,arrow_simon_norep,2021.1.2,Win32,60.0240096,,,,,,,,,,,,,,,,,,,,,,,,,,,,,,,,,,,,,
,,,p,1,3.812,0,0.774782472,#f3af84,,right_orange.png,p,6,1,25,1,1,o,right_blue.png,right_orange.png,p,60ef1280d72bd6dd52ad6006,001,2021-07-18_16h16.15.245,arrow_simon_norep,2021.1.2,Win32,60.0240096,,,,,,,,,,,,,,,,,,,,,,,,,,,,,,,,,,,,,
,,,w,1,2.629,0,0.040945673,#a3d0fb,,left_blue.png,w,6,2,26,2,1,w,left_blue.png,left_orange.png,q,60ef1280d72bd6dd52ad6006,001,2021-07-18_16h16.15.245,arrow_simon_norep,2021.1.2,Win32,60.0240096,,,,,,,,,,,,,,,,,,,,,,,,,,,,,,,,,,,,,
,,,p,1,4.077,0,0.902940549,#f3af84,,right_orange.png,p,6,3,27,0,1,o,right_blue.png,right_orange.png,p,60ef1280d72bd6dd52ad6006,001,2021-07-18_16h16.15.245,arrow_simon_norep,2021.1.2,Win32,60.0240096,,,,,,,,,,,,,,,,,,,,,,,,,,,,,,,,,,,,,
,,,w,1,2.997,0,0.514794765,#a3d0fb,,left_blue.png,w,7,0,28,2,1,w,left_blue.png,left_orange.png,q,60ef1280d72bd6dd52ad6006,001,2021-07-18_16h16.15.245,arrow_simon_norep,2021.1.2,Win32,60.0240096,,,,,,,,,,,,,,,,,,,,,,,,,,,,,,,,,,,,,
,,,q,1,3.115,0,0.241351662,#f3af84,,left_orange.png,q,7,1,29,3,1,w,left_blue.png,left_orange.png,q,60ef1280d72bd6dd52ad6006,001,2021-07-18_16h16.15.245,arrow_simon_norep,2021.1.2,Win32,60.0240096,,,,,,,,,,,,,,,,,,,,,,,,,,,,,,,,,,,,,
,,,w,1,2.954,0,0.532435702,#a3d0fb,,left_blue.png,w,7,2,30,2,1,w,left_blue.png,left_orange.png,q,60ef1280d72bd6dd52ad6006,001,2021-07-18_16h16.15.245,arrow_simon_norep,2021.1.2,Win32,60.0240096,,,,,,,,,,,,,,,,,,,,,,,,,,,,,,,,,,,,,
,,,p,1,3.518,0,0.250987776,#f3af84,,right_orange.png,p,7,3,31,1,1,o,right_blue.png,right_orange.png,p,60ef1280d72bd6dd52ad6006,001,2021-07-18_16h16.15.245,arrow_simon_norep,2021.1.2,Win32,60.0240096,,,,,,,,,,,,,,,,,,,,,,,,,,,,,,,,,,,,,
,,,w,1,2.372,0,0.191427782,#a3d0fb,,left_blue.png,w,8,0,32,3,1,w,left_blue.png,left_orange.png,q,60ef1280d72bd6dd52ad6006,001,2021-07-18_16h16.15.245,arrow_simon_norep,2021.1.2,Win32,60.0240096,,,,,,,,,,,,,,,,,,,,,,,,,,,,,,,,,,,,,
,,,p,1,3.91,0,0.352314147,#f3af84,,right_orange.png,p,8,1,33,0,1,o,right_blue.png,right_orange.png,p,60ef1280d72bd6dd52ad6006,001,2021-07-18_16h16.15.245,arrow_simon_norep,2021.1.2,Win32,60.0240096,,,,,,,,,,,,,,,,,,,,,,,,,,,,,,,,,,,,,
,,,o,1,4.271,0,0.82410703,#a3d0fb,,right_blue.png,o,8,2,34,1,1,o,right_blue.png,right_orange.png,p,60ef1280d72bd6dd52ad6006,001,2021-07-18_16h16.15.245,arrow_simon_norep,2021.1.2,Win32,60.0240096,,,,,,,,,,,,,,,,,,,,,,,,,,,,,,,,,,,,,
,,,q,1,3.196,0,0.37151831,#f3af84,,left_orange.png,q,8,3,35,3,1,w,left_blue.png,left_orange.png,q,60ef1280d72bd6dd52ad6006,001,2021-07-18_16h16.15.245,arrow_simon_norep,2021.1.2,Win32,60.0240096,,,,,,,,,,,,,,,,,,,,,,,,,,,,,,,,,,,,,
,,,w,1,2.649,0,0.091300505,#a3d0fb,,left_blue.png,w,9,0,36,2,1,w,left_blue.png,left_orange.png,q,60ef1280d72bd6dd52ad6006,001,2021-07-18_16h16.15.245,arrow_simon_norep,2021.1.2,Win32,60.0240096,,,,,,,,,,,,,,,,,,,,,,,,,,,,,,,,,,,,,
,,,p,1,3.059,0,0.066233578,#f3af84,,right_orange.png,p,9,1,37,1,1,o,right_blue.png,right_orange.png,p,60ef1280d72bd6dd52ad6006,001,2021-07-18_16h16.15.245,arrow_simon_norep,2021.1.2,Win32,60.0240096,,,,,,,,,,,,,,,,,,,,,,,,,,,,,,,,,,,,,
,,,o,1,3.23,0,0.766008951,#a3d0fb,,right_blue.png,o,9,2,38,0,1,o,right_blue.png,right_orange.png,p,60ef1280d72bd6dd52ad6006,001,2021-07-18_16h16.15.245,arrow_simon_norep,2021.1.2,Win32,60.0240096,,,,,,,,,,,,,,,,,,,,,,,,,,,,,,,,,,,,,
,,,q,1,2.88,0,0.302025091,#f3af84,,left_orange.png,q,9,3,39,2,1,w,left_blue.png,left_orange.png,q,60ef1280d72bd6dd52ad6006,001,2021-07-18_16h16.15.245,arrow_simon_norep,2021.1.2,Win32,60.0240096,,,,,,,,,,,,,,,,,,,,,,,,,,,,,,,,,,,,,
,,,w,1,3.311,0,0.834568301,#a3d0fb,,left_blue.png,w,10,0,40,3,1,w,left_blue.png,left_orange.png,q,60ef1280d72bd6dd52ad6006,001,2021-07-18_16h16.15.245,arrow_simon_norep,2021.1.2,Win32,60.0240096,,,,,,,,,,,,,,,,,,,,,,,,,,,,,,,,,,,,,
,,,q,1,3.932,0,0.575741951,#f3af84,,left_orange.png,q,10,1,41,3,1,w,left_blue.png,left_orange.png,q,60ef1280d72bd6dd52ad6006,001,2021-07-18_16h16.15.245,arrow_simon_norep,2021.1.2,Win32,60.0240096,,,,,,,,,,,,,,,,,,,,,,,,,,,,,,,,,,,,,
,,,o,1,3.362,0,0.420896236,#a3d0fb,,right_blue.png,o,10,2,42,0,1,o,right_blue.png,right_orange.png,p,60ef1280d72bd6dd52ad6006,001,2021-07-18_16h16.15.245,arrow_simon_norep,2021.1.2,Win32,60.0240096,,,,,,,,,,,,,,,,,,,,,,,,,,,,,,,,,,,,,
,,,q,1,4.393,0,0.728498226,#f3af84,,left_orange.png,q,10,3,43,2,1,w,left_blue.png,left_orange.png,q,60ef1280d72bd6dd52ad6006,001,2021-07-18_16h16.15.245,arrow_simon_norep,2021.1.2,Win32,60.0240096,,,,,,,,,,,,,,,,,,,,,,,,,,,,,,,,,,,,,
,,,o,1,5.027,0,0.282525839,#a3d0fb,,right_blue.png,o,11,0,44,1,1,o,right_blue.png,right_orange.png,p,60ef1280d72bd6dd52ad6006,001,2021-07-18_16h16.15.245,arrow_simon_norep,2021.1.2,Win32,60.0240096,,,,,,,,,,,,,,,,,,,,,,,,,,,,,,,,,,,,,
,,,q,1,3.31,0,0.227129967,#f3af84,,left_orange.png,q,11,1,45,3,1,w,left_blue.png,left_orange.png,q,60ef1280d72bd6dd52ad6006,001,2021-07-18_16h16.15.245,arrow_simon_norep,2021.1.2,Win32,60.0240096,,,,,,,,,,,,,,,,,,,,,,,,,,,,,,,,,,,,,
,,,w,1,3.311,0,0.836334721,#a3d0fb,,left_blue.png,w,11,2,46,3,1,w,left_blue.png,left_orange.png,q,60ef1280d72bd6dd52ad6006,001,2021-07-18_16h16.15.245,arrow_simon_norep,2021.1.2,Win32,60.0240096,,,,,,,,,,,,,,,,,,,,,,,,,,,,,,,,,,,,,
,,,p,1,4.095,0,0.970248647,#f3af84,,right_orange.png,p,11,3,47,0,1,o,right_blue.png,right_orange.png,p,60ef1280d72bd6dd52ad6006,001,2021-07-18_16h16.15.245,arrow_simon_norep,2021.1.2,Win32,60.0240096,,,,,,,,,,,,,,,,,,,,,,,,,,,,,,,,,,,,,
,,,w,1,3.992,0,0.990402856,#a3d0fb,,left_blue.png,w,12,0,48,3,1,w,left_blue.png,left_orange.png,q,60ef1280d72bd6dd52ad6006,001,2021-07-18_16h16.15.245,arrow_simon_norep,2021.1.2,Win32,60.0240096,,,,,,,,,,,,,,,,,,,,,,,,,,,,,,,,,,,,,
,,,p,1,3.66,0,0.779422337,#f3af84,,right_orange.png,p,12,1,49,1,1,o,right_blue.png,right_orange.png,p,60ef1280d72bd6dd52ad6006,001,2021-07-18_16h16.15.245,arrow_simon_norep,2021.1.2,Win32,60.0240096,,,,,,,,,,,,,,,,,,,,,,,,,,,,,,,,,,,,,
,,,o,1,3.763,0,0.934023704,#a3d0fb,,right_blue.png,o,12,2,50,1,1,o,right_blue.png,right_orange.png,p,60ef1280d72bd6dd52ad6006,001,2021-07-18_16h16.15.245,arrow_simon_norep,2021.1.2,Win32,60.0240096,,,,,,,,,,,,,,,,,,,,,,,,,,,,,,,,,,,,,
,,,p,1,3.447,0,0.962218577,#f3af84,,right_orange.png,p,12,3,51,1,1,o,right_blue.png,right_orange.png,p,60ef1280d72bd6dd52ad6006,001,2021-07-18_16h16.15.245,arrow_simon_norep,2021.1.2,Win32,60.0240096,,,,,,,,,,,,,,,,,,,,,,,,,,,,,,,,,,,,,
,,,o,1,4.392,0,0.794556931,#a3d0fb,,right_blue.png,o,13,0,52,1,1,o,right_blue.png,right_orange.png,p,60ef1280d72bd6dd52ad6006,001,2021-07-18_16h16.15.245,arrow_simon_norep,2021.1.2,Win32,60.0240096,,,,,,,,,,,,,,,,,,,,,,,,,,,,,,,,,,,,,
,,,q,1,4.132,0,0.000532403,#f3af84,,left_orange.png,q,13,1,53,3,1,w,left_blue.png,left_orange.png,q,60ef1280d72bd6dd52ad6006,001,2021-07-18_16h16.15.245,arrow_simon_norep,2021.1.2,Win32,60.0240096,,,,,,,,,,,,,,,,,,,,,,,,,,,,,,,,,,,,,
,,,w,1,3.743,0,0.592416195,#a3d0fb,,left_blue.png,w,13,2,54,2,1,w,left_blue.png,left_orange.png,q,60ef1280d72bd6dd52ad6006,001,2021-07-18_16h16.15.245,arrow_simon_norep,2021.1.2,Win32,60.0240096,,,,,,,,,,,,,,,,,,,,,,,,,,,,,,,,,,,,,
,,,q,1,3.724,0,0.991796494,#f3af84,,left_orange.png,q,13,3,55,2,1,w,left_blue.png,left_orange.png,q,60ef1280d72bd6dd52ad6006,001,2021-07-18_16h16.15.245,arrow_simon_norep,2021.1.2,Win32,60.0240096,,,,,,,,,,,,,,,,,,,,,,,,,,,,,,,,,,,,,
,,,w,1,2.695,0,0.255503477,#a3d0fb,,left_blue.png,w,14,0,56,3,1,w,left_blue.png,left_orange.png,q,60ef1280d72bd6dd52ad6006,001,2021-07-18_16h16.15.245,arrow_simon_norep,2021.1.2,Win32,60.0240096,,,,,,,,,,,,,,,,,,,,,,,,,,,,,,,,,,,,,
,,,q,1,3.498,0,0.49195143,#f3af84,,left_orange.png,q,14,1,57,2,1,w,left_blue.png,left_orange.png,q,60ef1280d72bd6dd52ad6006,001,2021-07-18_16h16.15.245,arrow_simon_norep,2021.1.2,Win32,60.0240096,,,,,,,,,,,,,,,,,,,,,,,,,,,,,,,,,,,,,
,,,o,1,3.398,0,0.560311629,#a3d0fb,,right_blue.png,o,14,2,58,0,1,o,right_blue.png,right_orange.png,p,60ef1280d72bd6dd52ad6006,001,2021-07-18_16h16.15.245,arrow_simon_norep,2021.1.2,Win32,60.0240096,,,,,,,,,,,,,,,,,,,,,,,,,,,,,,,,,,,,,
,,,p,1,2.48,0,0.213873368,#f3af84,,right_orange.png,p,14,3,59,1,1,o,right_blue.png,right_orange.png,p,60ef1280d72bd6dd52ad6006,001,2021-07-18_16h16.15.245,arrow_simon_norep,2021.1.2,Win32,60.0240096,,,,,,,,,,,,,,,,,,,,,,,,,,,,,,,,,,,,,
,,,,,,,,,,,,,,,,,,,,,60ef1280d72bd6dd52ad6006,001,2021-07-18_16h16.15.245,arrow_simon_norep,2021.1.2,Win32,60.0240096,space,31.952,1,0,1,0,1,,,,,,,,,,,,,,,,,,,,,,,,,,,,,,
,,,,,,,,,,,,,,,,,,,,,60ef1280d72bd6dd52ad6006,001,2021-07-18_16h16.15.245,arrow_simon_norep,2021.1.2,Win32,60.0240096,,,,,,,,space,0,323.68,q,5.969,0,0,0,0,1,,,,,,,,,,,,,,,,,,,,
,,,,,,,,,,,,,,,,,,,,,60ef1280d72bd6dd52ad6006,001,2021-07-18_16h16.15.245,arrow_simon_norep,2021.1.2,Win32,60.0240096,,,,,,,,,,,q,8.551,1,0,1,0,1,,,,,,,,,,,,,,,,,,,,
,,,,,,,,,,,,,,,,,,,,,60ef1280d72bd6dd52ad6006,001,2021-07-18_16h16.15.245,arrow_simon_norep,2021.1.2,Win32,60.0240096,,,,,,,,,,,p,0.004,2,0,2,0,1,,,,,,,,,,,,,,,,,,,,
,,,,,,,,,,,,,,,,,,,,,60ef1280d72bd6dd52ad6006,001,2021-07-18_16h16.15.245,arrow_simon_norep,2021.1.2,Win32,60.0240096,,,,,,,,,,,w,3.065,3,0,3,0,1,,,,,,,,,,,,,,,,,,,,
,,,,,,,,,,,,,,,,,,,,,60ef1280d72bd6dd52ad6006,001,2021-07-18_16h16.15.245,arrow_simon_norep,2021.1.2,Win32,60.0240096,,,,,,,,,,,q,3.096,4,0,4,0,1,,,,,,,,,,,,,,,,,,,,
,,,,,,,,,,,,,,,,,,,,,60ef1280d72bd6dd52ad6006,001,2021-07-18_16h16.15.245,arrow_simon_norep,2021.1.2,Win32,60.0240096,,,,,,,,,,,q,1.512,5,0,5,0,1,,,,,,,,,,,,,,,,,,,,
,,,,,,,,,,,,,,,,,,,,,60ef1280d72bd6dd52ad6006,001,2021-07-18_16h16.15.245,arrow_simon_norep,2021.1.2,Win32,60.0240096,,,,,,,,,,,w,2.983,6,0,6,0,1,,,,,,,,,,,,,,,,,,,,
,,,,,,,,,,,,,,,,,,,,,60ef1280d72bd6dd52ad6006,001,2021-07-18_16h16.15.245,arrow_simon_norep,2021.1.2,Win32,60.0240096,,,,,,,,,,,q,3.196,7,0,7,0,1,,,,,,,,,,,,,,,,,,,,
,,,,,,,,,,,,,,,,,,,,,60ef1280d72bd6dd52ad6006,001,2021-07-18_16h16.15.245,arrow_simon_norep,2021.1.2,Win32,60.0240096,,,,,,,,,,,w,2.912,8,0,8,0,1,,,,,,,,,,,,,,,,,,,,
,,,,,,,,,,,,,,,,,,,,,60ef1280d72bd6dd52ad6006,001,2021-07-18_16h16.15.245,arrow_simon_norep,2021.1.2,Win32,60.0240096,,,,,,,,,,,q,3.139,9,0,9,0,1,,,,,,,,,,,,,,,,,,,,
,,,,,,,,,,,,,,,,,,,,,60ef1280d72bd6dd52ad6006,001,2021-07-18_16h16.15.245,arrow_simon_norep,2021.1.2,Win32,60.0240096,,,,,,,,,,,q,3.236,10,0,10,0,1,,,,,,,,,,,,,,,,,,,,
,,,,,,,,,,,,,,,,,,,,,60ef1280d72bd6dd52ad6006,001,2021-07-18_16h16.15.245,arrow_simon_norep,2021.1.2,Win32,60.0240096,,,,,,,,,,,q,2.882,11,0,11,0,1,,,,,,,,,,,,,,,,,,,,
,,,,,,,,,,,,,,,,,,,,,60ef1280d72bd6dd52ad6006,001,2021-07-18_16h16.15.245,arrow_simon_norep,2021.1.2,Win32,60.0240096,,,,,,,,,,,q,2.965,12,0,12,0,1,,,,,,,,,,,,,,,,,,,,
,,,,,,,,,,,,,,,,,,,,,60ef1280d72bd6dd52ad6006,001,2021-07-18_16h16.15.245,arrow_simon_norep,2021.1.2,Win32,60.0240096,,,,,,,,,,,q,2.948,13,0,13,0,1,,,,,,,,,,,,,,,,,,,,
,,,,,,,,,,,,,,,,,,,,,60ef1280d72bd6dd52ad6006,001,2021-07-18_16h16.15.245,arrow_simon_norep,2021.1.2,Win32,60.0240096,,,,,,,,,,,q,2.783,14,0,14,0,1,,,,,,,,,,,,,,,,,,,,
,,,,,,,,,,,,,,,,,,,,,60ef1280d72bd6dd52ad6006,001,2021-07-18_16h16.15.245,arrow_simon_norep,2021.1.2,Win32,60.0240096,,,,,,,,,,,q,2.77,15,0,15,0,1,,,,,,,,,,,,,,,,,,,,
,,,,,,,,,,,,,,,,,,,,,60ef1280d72bd6dd52ad6006,001,2021-07-18_16h16.15.245,arrow_simon_norep,2021.1.2,Win32,60.0240096,,,,,,,,,,,q,2.266,16,0,16,0,1,,,,,,,,,,,,,,,,,,,,
,,,,,,,,,,,,,,,,,,,,,60ef1280d72bd6dd52ad6006,001,2021-07-18_16h16.15.245,arrow_simon_norep,2021.1.2,Win32,60.0240096,,,,,,,,,,,q,2.382,17,0,17,0,1,,,,,,,,,,,,,,,,,,,,
,,,,,,,,,,,,,,,,,,,,,60ef1280d72bd6dd52ad6006,001,2021-07-18_16h16.15.245,arrow_simon_norep,2021.1.2,Win32,60.0240096,,,,,,,,,,,q,2.647,18,0,18,0,1,,,,,,,,,,,,,,,,,,,,
,,,,,,,,,,,,,,,,,,,,,60ef1280d72bd6dd52ad6006,001,2021-07-18_16h16.15.245,arrow_simon_norep,2021.1.2,Win32,60.0240096,,,,,,,,,,,q,2.301,19,0,19,0,1,,,,,,,,,,,,,,,,,,,,
,,,,,,,,,,,,,,,,,,,,,60ef1280d72bd6dd52ad6006,001,2021-07-18_16h16.15.245,arrow_simon_norep,2021.1.2,Win32,60.0240096,,,,,,,,,,,q,2.765,20,0,20,0,1,,,,,,,,,,,,,,,,,,,,
,,,,,,,,,,,,,,,,,,,,,60ef1280d72bd6dd52ad6006,001,2021-07-18_16h16.15.245,arrow_simon_norep,2021.1.2,Win32,60.0240096,,,,,,,,,,,p,2.893,21,0,21,0,1,,,,,,,,,,,,,,,,,,,,
,,,,,,,,,,,,,,,,,,,,,60ef1280d72bd6dd52ad6006,001,2021-07-18_16h16.15.245,arrow_simon_norep,2021.1.2,Win32,60.0240096,,,,,,,,,,,p,2.798,22,0,22,0,1,,,,,,,,,,,,,,,,,,,,
,,,,,,,,,,,,,,,,,,,,,60ef1280d72bd6dd52ad6006,001,2021-07-18_16h16.15.245,arrow_simon_norep,2021.1.2,Win32,60.0240096,,,,,,,,,,,p,2.266,23,0,23,0,1,,,,,,,,,,,,,,,,,,,,
,,,,,,,,,,,,,,,,,,,,,60ef1280d72bd6dd52ad6006,001,2021-07-18_16h16.15.245,arrow_simon_norep,2021.1.2,Win32,60.0240096,,,,,,,,,,,p,2.365,24,0,24,0,1,,,,,,,,,,,,,,,,,,,,
,,,,,,,,,,,,,,,,,,,,,60ef1280d72bd6dd52ad6006,001,2021-07-18_16h16.15.245,arrow_simon_norep,2021.1.2,Win32,60.0240096,,,,,,,,,,,p,2.551,25,0,25,0,1,,,,,,,,,,,,,,,,,,,,
,,,,,,,,,,,,,,,,,,,,,60ef1280d72bd6dd52ad6006,001,2021-07-18_16h16.15.245,arrow_simon_norep,2021.1.2,Win32,60.0240096,,,,,,,,,,,p,2.665,26,0,26,0,1,,,,,,,,,,,,,,,,,,,,
,,,,,,,,,,,,,,,,,,,,,60ef1280d72bd6dd52ad6006,001,2021-07-18_16h16.15.245,arrow_simon_norep,2021.1.2,Win32,60.0240096,,,,,,,,,,,p,2.611,27,0,27,0,1,,,,,,,,,,,,,,,,,,,,
,,,,,,,,,,,,,,,,,,,,,60ef1280d72bd6dd52ad6006,001,2021-07-18_16h16.15.245,arrow_simon_norep,2021.1.2,Win32,60.0240096,,,,,,,,,,,p,2.544,28,0,28,0,1,,,,,,,,,,,,,,,,,,,,
,,,,,,,,,,,,,,,,,,,,,60ef1280d72bd6dd52ad6006,001,2021-07-18_16h16.15.245,arrow_simon_norep,2021.1.2,Win32,60.0240096,,,,,,,,,,,p,2.603,29,0,29,0,1,,,,,,,,,,,,,,,,,,,,
,,,,,,,,,,,,,,,,,,,,,60ef1280d72bd6dd52ad6006,001,2021-07-18_16h16.15.245,arrow_simon_norep,2021.1.2,Win32,60.0240096,,,,,,,,,,,p,2.316,30,0,30,0,1,,,,,,,,,,,,,,,,,,,,
,,,,,,,,,,,,,,,,,,,,,60ef1280d72bd6dd52ad6006,001,2021-07-18_16h16.15.245,arrow_simon_norep,2021.1.2,Win32,60.0240096,,,,,,,,,,,p,2.65,31,0,31,0,1,,,,,,,,,,,,,,,,,,,,
,,,,,,,,,,,,,,,,,,,,,60ef1280d72bd6dd52ad6006,001,2021-07-18_16h16.15.245,arrow_simon_norep,2021.1.2,Win32,60.0240096,,,,,,,,,,,p,2.452,32,0,32,0,1,,,,,,,,,,,,,,,,,,,,
,,,,,,,,,,,,,,,,,,,,,60ef1280d72bd6dd52ad6006,001,2021-07-18_16h16.15.245,arrow_simon_norep,2021.1.2,Win32,60.0240096,,,,,,,,,,,p,2.316,33,0,33,0,1,,,,,,,,,,,,,,,,,,,,
,,,,,,,,,,,,,,,,,,,,,60ef1280d72bd6dd52ad6006,001,2021-07-18_16h16.15.245,arrow_simon_norep,2021.1.2,Win32,60.0240096,,,,,,,,,,,p,2.333,34,0,34,0,1,,,,,,,,,,,,,,,,,,,,
,,,,,,,,,,,,,,,,,,,,,60ef1280d72bd6dd52ad6006,001,2021-07-18_16h16.15.245,arrow_simon_norep,2021.1.2,Win32,60.0240096,,,,,,,,,,,p,2.514,35,0,35,0,1,,,,,,,,,,,,,,,,,,,,
,,,,,,,,,,,,,,,,,,,,,60ef1280d72bd6dd52ad6006,001,2021-07-18_16h16.15.245,arrow_simon_norep,2021.1.2,Win32,60.0240096,,,,,,,,,,,p,2.501,36,0,36,0,1,,,,,,,,,,,,,,,,,,,,
,,,,,,,,,,,,,,,,,,,,,60ef1280d72bd6dd52ad6006,001,2021-07-18_16h16.15.245,arrow_simon_norep,2021.1.2,Win32,60.0240096,,,,,,,,,,,p,2.58,37,0,37,0,1,,,,,,,,,,,,,,,,,,,,
,,,,,,,,,,,,,,,,,,,,,60ef1280d72bd6dd52ad6006,001,2021-07-18_16h16.15.245,arrow_simon_norep,2021.1.2,Win32,60.0240096,,,,,,,,,,,p,2.581,38,0,38,0,1,,,,,,,,,,,,,,,,,,,,
,,,,,,,,,,,,,,,,,,,,,60ef1280d72bd6dd52ad6006,001,2021-07-18_16h16.15.245,arrow_simon_norep,2021.1.2,Win32,60.0240096,,,,,,,,,,,p,2.571,39,0,39,0,1,,,,,,,,,,,,,,,,,,,,
,,,,,,,,,,,,,,,,,,,,,60ef1280d72bd6dd52ad6006,001,2021-07-18_16h16.15.245,arrow_simon_norep,2021.1.2,Win32,60.0240096,,,,,,,,,,,p,2.533,40,0,40,0,1,,,,,,,,,,,,,,,,,,,,
,,,,,,,,,,,,,,,,,,,,,60ef1280d72bd6dd52ad6006,001,2021-07-18_16h16.15.245,arrow_simon_norep,2021.1.2,Win32,60.0240096,,,,,,,,,,,p,2.408,41,0,41,0,1,,,,,,,,,,,,,,,,,,,,
,,,,,,,,,,,,,,,,,,,,,60ef1280d72bd6dd52ad6006,001,2021-07-18_16h16.15.245,arrow_simon_norep,2021.1.2,Win32,60.0240096,,,,,,,,,,,p,2.399,42,0,42,0,1,,,,,,,,,,,,,,,,,,,,
,,,,,,,,,,,,,,,,,,,,,60ef1280d72bd6dd52ad6006,001,2021-07-18_16h16.15.245,arrow_simon_norep,2021.1.2,Win32,60.0240096,,,,,,,,,,,p,2.299,43,0,43,0,1,,,,,,,,,,,,,,,,,,,,
,,,,,,,,,,,,,,,,,,,,,60ef1280d72bd6dd52ad6006,001,2021-07-18_16h16.15.245,arrow_simon_norep,2021.1.2,Win32,60.0240096,,,,,,,,,,,p,2.4,44,0,44,0,1,,,,,,,,,,,,,,,,,,,,
,,,,,,,,,,,,,,,,,,,,,60ef1280d72bd6dd52ad6006,001,2021-07-18_16h16.15.245,arrow_simon_norep,2021.1.2,Win32,60.0240096,,,,,,,,,,,p,2.465,45,0,45,0,1,,,,,,,,,,,,,,,,,,,,
,,,,,,,,,,,,,,,,,,,,,60ef1280d72bd6dd52ad6006,001,2021-07-18_16h16.15.245,arrow_simon_norep,2021.1.2,Win32,60.0240096,,,,,,,,,,,p,2.533,46,0,46,0,1,,,,,,,,,,,,,,,,,,,,
,,,,,,,,,,,,,,,,,,,,,60ef1280d72bd6dd52ad6006,001,2021-07-18_16h16.15.245,arrow_simon_norep,2021.1.2,Win32,60.0240096,,,,,,,,,,,p,2.713,47,0,47,0,1,,,,,,,,,,,,,,,,,,,,
,,,,,,,,,,,,,,,,,,,,,60ef1280d72bd6dd52ad6006,001,2021-07-18_16h16.15.245,arrow_simon_norep,2021.1.2,Win32,60.0240096,,,,,,,,,,,p,2.052,48,0,48,0,1,,,,,,,,,,,,,,,,,,,,
,,,,,,,,,,,,,,,,,,,,,60ef1280d72bd6dd52ad6006,001,2021-07-18_16h16.15.245,arrow_simon_norep,2021.1.2,Win32,60.0240096,,,,,,,,,,,p,2.306,49,0,49,0,1,,,,,,,,,,,,,,,,,,,,
,,,,,,,,,,,,,,,,,,,,,60ef1280d72bd6dd52ad6006,001,2021-07-18_16h16.15.245,arrow_simon_norep,2021.1.2,Win32,60.0240096,,,,,,,,,,,p,2.595,50,0,50,0,1,,,,,,,,,,,,,,,,,,,,
,,,,,,,,,,,,,,,,,,,,,60ef1280d72bd6dd52ad6006,001,2021-07-18_16h16.15.245,arrow_simon_norep,2021.1.2,Win32,60.0240096,,,,,,,,,,,p,2.451,51,0,51,0,1,,,,,,,,,,,,,,,,,,,,
,,,,,,,,,,,,,,,,,,,,,60ef1280d72bd6dd52ad6006,001,2021-07-18_16h16.15.245,arrow_simon_norep,2021.1.2,Win32,60.0240096,,,,,,,,,,,p,2.535,52,0,52,0,1,,,,,,,,,,,,,,,,,,,,
,,,,,,,,,,,,,,,,,,,,,60ef1280d72bd6dd52ad6006,001,2021-07-18_16h16.15.245,arrow_simon_norep,2021.1.2,Win32,60.0240096,,,,,,,,,,,p,2.631,53,0,53,0,1,,,,,,,,,,,,,,,,,,,,
,,,,,,,,,,,,,,,,,,,,,60ef1280d72bd6dd52ad6006,001,2021-07-18_16h16.15.245,arrow_simon_norep,2021.1.2,Win32,60.0240096,,,,,,,,,,,p,2.616,54,0,54,0,1,,,,,,,,,,,,,,,,,,,,
,,,,,,,,,,,,,,,,,,,,,60ef1280d72bd6dd52ad6006,001,2021-07-18_16h16.15.245,arrow_simon_norep,2021.1.2,Win32,60.0240096,,,,,,,,,,,p,1.49,55,0,55,0,1,,,,,,,,,,,,,,,,,,,,
,,,,,,,,,,,,,,,,,,,,,60ef1280d72bd6dd52ad6006,001,2021-07-18_16h16.15.245,arrow_simon_norep,2021.1.2,Win32,60.0240096,,,,,,,,,,,p,1.386,56,0,56,0,1,,,,,,,,,,,,,,,,,,,,
,,,,,,,,,,,,,,,,,,,,,60ef1280d72bd6dd52ad6006,001,2021-07-18_16h16.15.245,arrow_simon_norep,2021.1.2,Win32,60.0240096,,,,,,,,,,,p,1.835,57,0,57,0,1,,,,,,,,,,,,,,,,,,,,
,,,,,,,,,,,,,,,,,,,,,60ef1280d72bd6dd52ad6006,001,2021-07-18_16h16.15.245,arrow_simon_norep,2021.1.2,Win32,60.0240096,,,,,,,,,,,p,1.75,58,0,58,0,1,,,,,,,,,,,,,,,,,,,,
,,,,,,,,,,,,,,,,,,,,,60ef1280d72bd6dd52ad6006,001,2021-07-18_16h16.15.245,arrow_simon_norep,2021.1.2,Win32,60.0240096,,,,,,,,,,,p,2.8,59,0,59,0,1,,,,,,,,,,,,,,,,,,,,
,,,,,,0,2.112403797,#a3d0fb,,left_blue.png,w,,,,,,w,left_blue.png,left_orange.png,q,60ef1280d72bd6dd52ad6006,001,2021-07-18_16h16.15.245,arrow_simon_norep,2021.1.2,Win32,60.0240096,,,,,,,,,,,,,,,,,,space,0,78.307,w,1,3.195,TRUE,FALSE,0,0,0,3,1,,,,,,,
,,,,,,0,2.49867351,#f3af84,,left_orange.png,q,,,,,,w,left_blue.png,left_orange.png,q,60ef1280d72bd6dd52ad6006,001,2021-07-18_16h16.15.245,arrow_simon_norep,2021.1.2,Win32,60.0240096,,,,,,,,,,,,,,,,,,,,,w,0,1.884,TRUE,FALSE,0,1,1,3,1,,,,,,,
,,,,,,0,1.934195913,#a3d0fb,,right_blue.png,o,,,,,,o,right_blue.png,right_orange.png,p,60ef1280d72bd6dd52ad6006,001,2021-07-18_16h16.15.245,arrow_simon_norep,2021.1.2,Win32,60.0240096,,,,,,,,,,,,,,,,,,,,,q,0,1.269,FALSE,TRUE,0,2,2,1,1,,,,,,,
,,,,,,0,2.210819739,#f3af84,,left_orange.png,q,,,,,,w,left_blue.png,left_orange.png,q,60ef1280d72bd6dd52ad6006,001,2021-07-18_16h16.15.245,arrow_simon_norep,2021.1.2,Win32,60.0240096,,,,,,,,,,,,,,,,,,,,,q,1,3.178,TRUE,FALSE,0,3,3,2,1,,,,,,,
,,,,,,0,1.76143258,#a3d0fb,,left_blue.png,w,,,,,,w,left_blue.png,left_orange.png,q,60ef1280d72bd6dd52ad6006,001,2021-07-18_16h16.15.245,arrow_simon_norep,2021.1.2,Win32,60.0240096,,,,,,,,,,,,,,,,,,,,,w,1,7.888,TRUE,FALSE,1,0,4,2,1,,,,,,,
,,,,,,0,2.12577536,#f3af84,,left_orange.png,q,,,,,,w,left_blue.png,left_orange.png,q,60ef1280d72bd6dd52ad6006,001,2021-07-18_16h16.15.245,arrow_simon_norep,2021.1.2,Win32,60.0240096,,,,,,,,,,,,,,,,,,,,,q,1,2.432,TRUE,FALSE,1,1,5,2,1,,,,,,,
,,,,,,0,1.788064062,#a3d0fb,,right_blue.png,o,,,,,,o,right_blue.png,right_orange.png,p,60ef1280d72bd6dd52ad6006,001,2021-07-18_16h16.15.245,arrow_simon_norep,2021.1.2,Win32,60.0240096,,,,,,,,,,,,,,,,,,,,,w,0,2.087,TRUE,FALSE,1,2,6,1,1,,,,,,,
,,,,,,0,2.271103217,#f3af84,,left_orange.png,q,,,,,,w,left_blue.png,left_orange.png,q,60ef1280d72bd6dd52ad6006,001,2021-07-18_16h16.15.245,arrow_simon_norep,2021.1.2,Win32,60.0240096,,,,,,,,,,,,,,,,,,,,,q,1,2.898,TRUE,FALSE,1,3,7,3,1,,,,,,,
,,,,,,0,1.509276725,#a3d0fb,,left_blue.png,w,,,,,,w,left_blue.png,left_orange.png,q,60ef1280d72bd6dd52ad6006,001,2021-07-18_16h16.15.245,arrow_simon_norep,2021.1.2,Win32,60.0240096,,,,,,,,,,,,,,,,,,,,,w,1,9.634,TRUE,FALSE,2,0,8,2,1,,,,,,,
,,,,,,0,1.514655112,#f3af84,,right_orange.png,p,,,,,,o,right_blue.png,right_orange.png,p,60ef1280d72bd6dd52ad6006,001,2021-07-18_16h16.15.245,arrow_simon_norep,2021.1.2,Win32,60.0240096,,,,,,,,,,,,,,,,,,,,,p,1,1.268,FALSE,TRUE,2,1,9,0,1,,,,,,,
,,,,,,1,1.727746432,#a3d0fb,,right_blue.png,o,,,,,,o,right_blue.png,right_orange.png,p,60ef1280d72bd6dd52ad6006,001,2021-07-18_16h16.15.245,arrow_simon_norep,2021.1.2,Win32,60.0240096,,,,,,,,,,,,,,,,,,,,,p,0,1.422,FALSE,FALSE,2,2,10,0,1,,,,,,,
,,,,,,1,1.888983097,#f3af84,,right_orange.png,p,,,,,,o,right_blue.png,right_orange.png,p,60ef1280d72bd6dd52ad6006,001,2021-07-18_16h16.15.245,arrow_simon_norep,2021.1.2,Win32,60.0240096,,,,,,,,,,,,,,,,,,,,,o,0,2.104,TRUE,FALSE,2,3,11,0,1,,,,,,,
,,,,,,1,2.091052668,#a3d0fb,,left_blue.png,w,,,,,,w,left_blue.png,left_orange.png,q,60ef1280d72bd6dd52ad6006,001,2021-07-18_16h16.15.245,arrow_simon_norep,2021.1.2,Win32,60.0240096,,,,,,,,,,,,,,,,,,,,,q,0,1.715,TRUE,FALSE,3,0,12,2,1,,,,,,,
,,,,,,1,1.550319277,#f3af84,,right_orange.png,p,,,,,,o,right_blue.png,right_orange.png,p,60ef1280d72bd6dd52ad6006,001,2021-07-18_16h16.15.245,arrow_simon_norep,2021.1.2,Win32,60.0240096,,,,,,,,,,,,,,,,,,,,,w,0,1.021,FALSE,TRUE,3,1,13,0,1,,,,,,,
,,,,,,1,2.12940824,#a3d0fb,,left_blue.png,w,,,,,,w,left_blue.png,left_orange.png,q,60ef1280d72bd6dd52ad6006,001,2021-07-18_16h16.15.245,arrow_simon_norep,2021.1.2,Win32,60.0240096,,,,,,,,,,,,,,,,,,,,,q,0,1.885,TRUE,FALSE,3,2,14,2,1,,,,,,,
,,,,,,1,2.404669578,#f3af84,,left_orange.png,q,,,,,,w,left_blue.png,left_orange.png,q,60ef1280d72bd6dd52ad6006,001,2021-07-18_16h16.15.245,arrow_simon_norep,2021.1.2,Win32,60.0240096,,,,,,,,,,,,,,,,,,,,,o,0,2.153,TRUE,FALSE,3,3,15,3,1,,,,,,,
,,,,,,1,2.017799372,#a3d0fb,,left_blue.png,w,,,,,,w,left_blue.png,left_orange.png,q,60ef1280d72bd6dd52ad6006,001,2021-07-18_16h16.15.245,arrow_simon_norep,2021.1.2,Win32,60.0240096,,,,,,,,,,,,,,,,,,,,,w,1,1.705,TRUE,FALSE,4,0,16,3,1,,,,,,,
,,,,,,1,2.321028627,#f3af84,,left_orange.png,q,,,,,,w,left_blue.png,left_orange.png,q,60ef1280d72bd6dd52ad6006,001,2021-07-18_16h16.15.245,arrow_simon_norep,2021.1.2,Win32,60.0240096,,,,,,,,,,,,,,,,,,,,,o,0,2.047,TRUE,FALSE,4,1,17,2,1,,,,,,,
,,,,,,1,2.479068385,#a3d0fb,,left_blue.png,w,,,,,,w,left_blue.png,left_orange.png,q,60ef1280d72bd6dd52ad6006,001,2021-07-18_16h16.15.245,arrow_simon_norep,2021.1.2,Win32,60.0240096,,,,,,,,,,,,,,,,,,,,,w,1,1.961,TRUE,FALSE,4,2,18,3,1,,,,,,,
,,,,,,1,1.89937317,#f3af84,,right_orange.png,p,,,,,,o,right_blue.png,right_orange.png,p,60ef1280d72bd6dd52ad6006,001,2021-07-18_16h16.15.245,arrow_simon_norep,2021.1.2,Win32,60.0240096,,,,,,,,,,,,,,,,,,,,,w,0,2.216,TRUE,FALSE,4,3,19,1,1,,,,,,,
,,,,,,1,2.273669918,#a3d0fb,,left_blue.png,w,,,,,,w,left_blue.png,left_orange.png,q,60ef1280d72bd6dd52ad6006,001,2021-07-18_16h16.15.245,arrow_simon_norep,2021.1.2,Win32,60.0240096,,,,,,,,,,,,,,,,,,,,,w,1,2.136,TRUE,FALSE,5,0,20,3,1,,,,,,,
,,,,,,1,1.534346585,#f3af84,,right_orange.png,p,,,,,,o,right_blue.png,right_orange.png,p,60ef1280d72bd6dd52ad6006,001,2021-07-18_16h16.15.245,arrow_simon_norep,2021.1.2,Win32,60.0240096,,,,,,,,,,,,,,,,,,,,,p,1,1.302,FALSE,TRUE,5,1,21,1,1,,,,,,,
,,,,,,1,2.381778906,#a3d0fb,,right_blue.png,o,,,,,,o,right_blue.png,right_orange.png,p,60ef1280d72bd6dd52ad6006,001,2021-07-18_16h16.15.245,arrow_simon_norep,2021.1.2,Win32,60.0240096,,,,,,,,,,,,,,,,,,,,,w,0,2.036,TRUE,FALSE,5,2,22,0,1,,,,,,,
,,,,,,1,2.011167574,#f3af84,,right_orange.png,p,,,,,,o,right_blue.png,right_orange.png,p,60ef1280d72bd6dd52ad6006,001,2021-07-18_16h16.15.245,arrow_simon_norep,2021.1.2,Win32,60.0240096,,,,,,,,,,,,,,,,,,,,,o,0,1.871,TRUE,FALSE,5,3,23,0,1,,,,,,,
,,,,,,1,1.638405885,#a3d0fb,,left_blue.png,w,,,,,,w,left_blue.png,left_orange.png,q,60ef1280d72bd6dd52ad6006,001,2021-07-18_16h16.15.245,arrow_simon_norep,2021.1.2,Win32,60.0240096,,,,,,,,,,,,,,,,,,,,,q,0,1.455,FALSE,FALSE,6,0,24,3,1,,,,,,,
,,,,,,1,1.684098369,#f3af84,,left_orange.png,q,,,,,,w,left_blue.png,left_orange.png,q,60ef1280d72bd6dd52ad6006,001,2021-07-18_16h16.15.245,arrow_simon_norep,2021.1.2,Win32,60.0240096,,,,,,,,,,,,,,,,,,,,,q,1,1.85,TRUE,FALSE,6,1,25,3,1,,,,,,,
,,,,,,1,1.642107977,#a3d0fb,,right_blue.png,o,,,,,,o,right_blue.png,right_orange.png,p,60ef1280d72bd6dd52ad6006,001,2021-07-18_16h16.15.245,arrow_simon_norep,2021.1.2,Win32,60.0240096,,,,,,,,,,,,,,,,,,,,,q,0,1.934,TRUE,FALSE,6,2,26,1,1,,,,,,,
,,,,,,1,1.692314669,#f3af84,,right_orange.png,p,,,,,,o,right_blue.png,right_orange.png,p,60ef1280d72bd6dd52ad6006,001,2021-07-18_16h16.15.245,arrow_simon_norep,2021.1.2,Win32,60.0240096,,,,,,,,,,,,,,,,,,,,,p,1,1.671,TRUE,FALSE,6,3,27,1,1,,,,,,,
,,,,,,1,2.187558647,#a3d0fb,,left_blue.png,w,,,,,,w,left_blue.png,left_orange.png,q,60ef1280d72bd6dd52ad6006,001,2021-07-18_16h16.15.245,arrow_simon_norep,2021.1.2,Win32,60.0240096,,,,,,,,,,,,,,,,,,,,,q,0,1.885,TRUE,FALSE,7,0,28,3,1,,,,,,,
,,,,,,0,1.562407969,#f3af84,,right_orange.png,p,,,,,,o,right_blue.png,right_orange.png,p,60ef1280d72bd6dd52ad6006,001,2021-07-18_16h16.15.245,arrow_simon_norep,2021.1.2,Win32,60.0240096,,,,,,,,,,,,,,,,,,,,,p,1,1.405,FALSE,FALSE,7,1,29,1,1,,,,,,,
,,,,,,0,2.278062859,#a3d0fb,,left_blue.png,w,,,,,,w,left_blue.png,left_orange.png,q,60ef1280d72bd6dd52ad6006,001,2021-07-18_16h16.15.245,arrow_simon_norep,2021.1.2,Win32,60.0240096,,,,,,,,,,,,,,,,,,,,,q,0,1.63,TRUE,FALSE,7,2,30,2,1,,,,,,,
,,,,,,0,2.473073076,#f3af84,,right_orange.png,p,,,,,,o,right_blue.png,right_orange.png,p,60ef1280d72bd6dd52ad6006,001,2021-07-18_16h16.15.245,arrow_simon_norep,2021.1.2,Win32,60.0240096,,,,,,,,,,,,,,,,,,,,,q,0,2.031,TRUE,FALSE,7,3,31,0,1,,,,,,,
,,,,,,0,2.310199696,#a3d0fb,,left_blue.png,w,,,,,,w,left_blue.png,left_orange.png,q,60ef1280d72bd6dd52ad6006,001,2021-07-18_16h16.15.245,arrow_simon_norep,2021.1.2,Win32,60.0240096,,,,,,,,,,,,,,,,,,,,,q,0,1.797,TRUE,FALSE,8,0,32,3,1,,,,,,,
,,,,,,0,1.956673473,#f3af84,,right_orange.png,p,,,,,,o,right_blue.png,right_orange.png,p,60ef1280d72bd6dd52ad6006,001,2021-07-18_16h16.15.245,arrow_simon_norep,2021.1.2,Win32,60.0240096,,,,,,,,,,,,,,,,,,,,,p,1,1.646,TRUE,FALSE,8,1,33,0,1,,,,,,,
,,,,,,0,2.419752458,#a3d0fb,,right_blue.png,o,,,,,,o,right_blue.png,right_orange.png,p,60ef1280d72bd6dd52ad6006,001,2021-07-18_16h16.15.245,arrow_simon_norep,2021.1.2,Win32,60.0240096,,,,,,,,,,,,,,,,,,,,,p,0,1.951,TRUE,FALSE,8,2,34,1,1,,,,,,,
,,,,,,0,1.775505087,#f3af84,,right_orange.png,p,,,,,,o,right_blue.png,right_orange.png,p,60ef1280d72bd6dd52ad6006,001,2021-07-18_16h16.15.245,arrow_simon_norep,2021.1.2,Win32,60.0240096,,,,,,,,,,,,,,,,,,,,,p,1,1.634,TRUE,FALSE,8,3,35,0,1,,,,,,,
,,,,,,0,2.191335781,#a3d0fb,,left_blue.png,w,,,,,,w,left_blue.png,left_orange.png,q,60ef1280d72bd6dd52ad6006,001,2021-07-18_16h16.15.245,arrow_simon_norep,2021.1.2,Win32,60.0240096,,,,,,,,,,,,,,,,,,,,,w,1,1.862,TRUE,FALSE,9,0,36,2,1,,,,,,,
,,,,,,0,2.21805337,#f3af84,,left_orange.png,q,,,,,,w,left_blue.png,left_orange.png,q,60ef1280d72bd6dd52ad6006,001,2021-07-18_16h16.15.245,arrow_simon_norep,2021.1.2,Win32,60.0240096,,,,,,,,,,,,,,,,,,,,,w,0,2.051,TRUE,FALSE,9,1,37,3,1,,,,,,,
,,,,,,0,1.665235775,#a3d0fb,,left_blue.png,w,,,,,,w,left_blue.png,left_orange.png,q,60ef1280d72bd6dd52ad6006,001,2021-07-18_16h16.15.245,arrow_simon_norep,2021.1.2,Win32,60.0240096,,,,,,,,,,,,,,,,,,,,,w,1,1.517,FALSE,FALSE,9,2,38,2,1,,,,,,,
,,,,,,0,2.163597168,#f3af84,,right_orange.png,p,,,,,,o,right_blue.png,right_orange.png,p,60ef1280d72bd6dd52ad6006,001,2021-07-18_16h16.15.245,arrow_simon_norep,2021.1.2,Win32,60.0240096,,,,,,,,,,,,,,,,,,,,,w,0,1.782,TRUE,FALSE,9,3,39,1,1,,,,,,,
,,,,,,0,1.617979159,#a3d0fb,,left_blue.png,w,,,,,,w,left_blue.png,left_orange.png,q,60ef1280d72bd6dd52ad6006,001,2021-07-18_16h16.15.245,arrow_simon_norep,2021.1.2,Win32,60.0240096,,,,,,,,,,,,,,,,,,,,,w,1,1.531,FALSE,FALSE,10,0,40,2,1,,,,,,,
,,,,,,0,2.100710915,#f3af84,,left_orange.png,q,,,,,,w,left_blue.png,left_orange.png,q,60ef1280d72bd6dd52ad6006,001,2021-07-18_16h16.15.245,arrow_simon_norep,2021.1.2,Win32,60.0240096,,,,,,,,,,,,,,,,,,,,,q,1,2.099,TRUE,FALSE,10,1,41,3,1,,,,,,,
,,,,,,0,2.16776362,#a3d0fb,,right_blue.png,o,,,,,,o,right_blue.png,right_orange.png,p,60ef1280d72bd6dd52ad6006,001,2021-07-18_16h16.15.245,arrow_simon_norep,2021.1.2,Win32,60.0240096,,,,,,,,,,,,,,,,,,,,,w,0,1.837,TRUE,FALSE,10,2,42,1,1,,,,,,,
,,,,,,0,2.383521392,#f3af84,,left_orange.png,q,,,,,,w,left_blue.png,left_orange.png,q,60ef1280d72bd6dd52ad6006,001,2021-07-18_16h16.15.245,arrow_simon_norep,2021.1.2,Win32,60.0240096,,,,,,,,,,,,,,,,,,,,,q,1,2.113,TRUE,FALSE,10,3,43,3,1,,,,,,,
,,,,,,0,2.447910976,#a3d0fb,,right_blue.png,o,,,,,,o,right_blue.png,right_orange.png,p,60ef1280d72bd6dd52ad6006,001,2021-07-18_16h16.15.245,arrow_simon_norep,2021.1.2,Win32,60.0240096,,,,,,,,,,,,,,,,,,,,,w,0,2.005,TRUE,FALSE,11,0,44,1,1,,,,,,,
,,,,,,0,1.938335564,#f3af84,,right_orange.png,p,,,,,,o,right_blue.png,right_orange.png,p,60ef1280d72bd6dd52ad6006,001,2021-07-18_16h16.15.245,arrow_simon_norep,2021.1.2,Win32,60.0240096,,,,,,,,,,,,,,,,,,,,,w,0,1.764,TRUE,FALSE,11,1,45,0,1,,,,,,,
,,,,,,0,2.007152502,#a3d0fb,,left_blue.png,w,,,,,,w,left_blue.png,left_orange.png,q,60ef1280d72bd6dd52ad6006,001,2021-07-18_16h16.15.245,arrow_simon_norep,2021.1.2,Win32,60.0240096,,,,,,,,,,,,,,,,,,,,,q,0,1.683,TRUE,FALSE,11,2,46,2,1,,,,,,,
,,,,,,0,1.920498241,#f3af84,,right_orange.png,p,,,,,,o,right_blue.png,right_orange.png,p,60ef1280d72bd6dd52ad6006,001,2021-07-18_16h16.15.245,arrow_simon_norep,2021.1.2,Win32,60.0240096,,,,,,,,,,,,,,,,,,,,,w,0,1.224,FALSE,TRUE,11,3,47,1,1,,,,,,,
,,,,,,0,1.6725493,#a3d0fb,,left_blue.png,w,,,,,,w,left_blue.png,left_orange.png,q,60ef1280d72bd6dd52ad6006,001,2021-07-18_16h16.15.245,arrow_simon_norep,2021.1.2,Win32,60.0240096,,,,,,,,,,,,,,,,,,,,,q,0,2.282,TRUE,FALSE,12,0,48,2,1,,,,,,,
,,,,,,0,2.060347584,#f3af84,,right_orange.png,p,,,,,,o,right_blue.png,right_orange.png,p,60ef1280d72bd6dd52ad6006,001,2021-07-18_16h16.15.245,arrow_simon_norep,2021.1.2,Win32,60.0240096,,,,,,,,,,,,,,,,,,,,,p,1,46.265,TRUE,FALSE,12,1,49,0,1,,,,,,,
,,,,,,0,2.452250439,#a3d0fb,,left_blue.png,w,,,,,,w,left_blue.png,left_orange.png,q,60ef1280d72bd6dd52ad6006,001,2021-07-18_16h16.15.245,arrow_simon_norep,2021.1.2,Win32,60.0240096,,,,,,,,,,,,,,,,,,,,,w,1,2.084,TRUE,FALSE,12,2,50,2,1,,,,,,,
,,,,,,0,1.881301365,#f3af84,,right_orange.png,p,,,,,,o,right_blue.png,right_orange.png,p,60ef1280d72bd6dd52ad6006,001,2021-07-18_16h16.15.245,arrow_simon_norep,2021.1.2,Win32,60.0240096,,,,,,,,,,,,,,,,,,,,,p,1,1.6,TRUE,FALSE,12,3,51,1,1,,,,,,,
,,,,,,0,1.618320227,#a3d0fb,,right_blue.png,o,,,,,,o,right_blue.png,right_orange.png,p,60ef1280d72bd6dd52ad6006,001,2021-07-18_16h16.15.245,arrow_simon_norep,2021.1.2,Win32,60.0240096,,,,,,,,,,,,,,,,,,,,,w,0,1.222,FALSE,TRUE,13,0,52,0,1,,,,,,,
,,,,,,0,2.189867477,#f3af84,,right_orange.png,p,,,,,,o,right_blue.png,right_orange.png,p,60ef1280d72bd6dd52ad6006,001,2021-07-18_16h16.15.245,arrow_simon_norep,2021.1.2,Win32,60.0240096,,,,,,,,,,,,,,,,,,,,,w,0,1.868,TRUE,FALSE,13,1,53,0,1,,,,,,,
,,,,,,0,1.614259826,#a3d0fb,,right_blue.png,o,,,,,,o,right_blue.png,right_orange.png,p,60ef1280d72bd6dd52ad6006,001,2021-07-18_16h16.15.245,arrow_simon_norep,2021.1.2,Win32,60.0240096,,,,,,,,,,,,,,,,,,,,,p,0,1.252,FALSE,TRUE,13,2,54,1,1,,,,,,,
,,,,,,0,2.267608263,#f3af84,,left_orange.png,q,,,,,,w,left_blue.png,left_orange.png,q,60ef1280d72bd6dd52ad6006,001,2021-07-18_16h16.15.245,arrow_simon_norep,2021.1.2,Win32,60.0240096,,,,,,,,,,,,,,,,,,,,,q,1,1.924,TRUE,FALSE,13,3,55,3,1,,,,,,,
,,,,,,0,1.589077168,#a3d0fb,,left_blue.png,w,,,,,,w,left_blue.png,left_orange.png,q,60ef1280d72bd6dd52ad6006,001,2021-07-18_16h16.15.245,arrow_simon_norep,2021.1.2,Win32,60.0240096,,,,,,,,,,,,,,,,,,,,,w,1,1.352,FALSE,TRUE,14,0,56,2,1,,,,,,,
,,,,,,0,1.809220404,#f3af84,,right_orange.png,p,,,,,,o,right_blue.png,right_orange.png,p,60ef1280d72bd6dd52ad6006,001,2021-07-18_16h16.15.245,arrow_simon_norep,2021.1.2,Win32,60.0240096,,,,,,,,,,,,,,,,,,,,,w,0,1.195,FALSE,TRUE,14,1,57,1,1,,,,,,,
,,,,,,0,2.324548442,#a3d0fb,,right_blue.png,o,,,,,,o,right_blue.png,right_orange.png,p,60ef1280d72bd6dd52ad6006,001,2021-07-18_16h16.15.245,arrow_simon_norep,2021.1.2,Win32,60.0240096,,,,,,,,,,,,,,,,,,,,,w,0,1.721,TRUE,FALSE,14,2,58,0,1,,,,,,,
,,,,,,0,2.191723264,#f3af84,,right_orange.png,p,,,,,,o,right_blue.png,right_orange.png,p,60ef1280d72bd6dd52ad6006,001,2021-07-18_16h16.15.245,arrow_simon_norep,2021.1.2,Win32,60.0240096,,,,,,,,,,,,,,,,,,,,,w,0,1.763,TRUE,FALSE,14,3,59,0,1,,,,,,,
,,,,,,,,,,,,,,,,,,,,,60ef1280d72bd6dd52ad6006,001,2021-07-18_16h16.15.245,arrow_simon_norep,2021.1.2,Win32,60.0240096,,,,,,,,,,,,,,,,,,,,,,,,,,,,,,,space,134.896,0,0,0,0,1
,,,,,,0,1.569104367,#a3d0fb,,right_blue.png,o,,,,,,o,right_blue.png,right_orange.png,p,60ef1280d72bd6dd52ad6006,001,2021-07-18_16h16.15.245,arrow_simon_norep,2021.1.2,Win32,60.0240096,,,,,,,,,,,,,,,,,,,,,o,1,6.69,TRUE,FALSE,0,0,0,1,1,,,,,,,
,,,,,,0,2.127958022,#f3af84,,left_orange.png,q,,,,,,w,left_blue.png,left_orange.png,q,60ef1280d72bd6dd52ad6006,001,2021-07-18_16h16.15.245,arrow_simon_norep,2021.1.2,Win32,60.0240096,,,,,,,,,,,,,,,,,,,,,w,0,2.432,TRUE,FALSE,0,1,1,2,1,,,,,,,
,,,,,,0,1.671216744,#a3d0fb,,right_blue.png,o,,,,,,o,right_blue.png,right_orange.png,p,60ef1280d72bd6dd52ad6006,001,2021-07-18_16h16.15.245,arrow_simon_norep,2021.1.2,Win32,60.0240096,,,,,,,,,,,,,,,,,,,,,o,1,5.11,TRUE,FALSE,0,2,2,0,1,,,,,,,
,,,,,,0,2.481612883,#f3af84,,left_orange.png,q,,,,,,w,left_blue.png,left_orange.png,q,60ef1280d72bd6dd52ad6006,001,2021-07-18_16h16.15.245,arrow_simon_norep,2021.1.2,Win32,60.0240096,,,,,,,,,,,,,,,,,,,,,w,0,11.729,TRUE,FALSE,0,3,3,3,1,,,,,,,
,,,,,,0,1.803979005,#a3d0fb,,right_blue.png,o,,,,,,o,right_blue.png,right_orange.png,p,60ef1280d72bd6dd52ad6006,001,2021-07-18_16h16.15.245,arrow_simon_norep,2021.1.2,Win32,60.0240096,,,,,,,,,,,,,,,,,,,,,p,0,4.81,TRUE,FALSE,1,0,4,0,1,,,,,,,
,,,,,,0,2.196252928,#f3af84,,left_orange.png,q,,,,,,w,left_blue.png,left_orange.png,q,60ef1280d72bd6dd52ad6006,001,2021-07-18_16h16.15.245,arrow_simon_norep,2021.1.2,Win32,60.0240096,,,,,,,,,,,,,,,,,,,,,w,0,2.814,TRUE,FALSE,1,1,5,2,1,,,,,,,
,,,,,,0,2.492010799,#a3d0fb,,right_blue.png,o,,,,,,o,right_blue.png,right_orange.png,p,60ef1280d72bd6dd52ad6006,001,2021-07-18_16h16.15.245,arrow_simon_norep,2021.1.2,Win32,60.0240096,,,,,,,,,,,,,,,,,,,,,o,1,3.234,TRUE,FALSE,1,2,6,1,1,,,,,,,
,,,,,,0,2.134775123,#f3af84,,right_orange.png,p,,,,,,o,right_blue.png,right_orange.png,p,60ef1280d72bd6dd52ad6006,001,2021-07-18_16h16.15.245,arrow_simon_norep,2021.1.2,Win32,60.0240096,,,,,,,,,,,,,,,,,,,,,p,1,59.379,TRUE,FALSE,1,3,7,0,1,,,,,,,
,,,,,,0,2.156814271,#a3d0fb,,right_blue.png,o,,,,,,o,right_blue.png,right_orange.png,p,60ef1280d72bd6dd52ad6006,001,2021-07-18_16h16.15.245,arrow_simon_norep,2021.1.2,Win32,60.0240096,,,,,,,,,,,,,,,,,,,,,w,0,2.55,TRUE,FALSE,2,0,8,0,1,,,,,,,
,,,,,,0,2.289542642,#f3af84,,left_orange.png,q,,,,,,w,left_blue.png,left_orange.png,q,60ef1280d72bd6dd52ad6006,001,2021-07-18_16h16.15.245,arrow_simon_norep,2021.1.2,Win32,60.0240096,,,,,,,,,,,,,,,,,,,,,q,1,37.474,TRUE,FALSE,2,1,9,2,1,,,,,,,
,,,,,,0,1.509556252,#a3d0fb,,right_blue.png,o,,,,,,o,right_blue.png,right_orange.png,p,60ef1280d72bd6dd52ad6006,001,2021-07-18_16h16.15.245,arrow_simon_norep,2021.1.2,Win32,60.0240096,,,,,,,,,,,,,,,,,,,,,w,0,1.318,FALSE,TRUE,2,2,10,1,1,,,,,,,
,,,,,,0,1.529472227,#f3af84,,right_orange.png,p,,,,,,o,right_blue.png,right_orange.png,p,60ef1280d72bd6dd52ad6006,001,2021-07-18_16h16.15.245,arrow_simon_norep,2021.1.2,Win32,60.0240096,,,,,,,,,,,,,,,,,,,,,w,0,1.665,TRUE,FALSE,2,3,11,0,1,,,,,,,
,,,,,,0,2.046424478,#a3d0fb,,right_blue.png,o,,,,,,o,right_blue.png,right_orange.png,p,60ef1280d72bd6dd52ad6006,001,2021-07-18_16h16.15.245,arrow_simon_norep,2021.1.2,Win32,60.0240096,,,,,,,,,,,,,,,,,,,,,w,0,1.615,TRUE,FALSE,3,0,12,0,1,,,,,,,
,,,,,,0,2.040125652,#f3af84,,left_orange.png,q,,,,,,w,left_blue.png,left_orange.png,q,60ef1280d72bd6dd52ad6006,001,2021-07-18_16h16.15.245,arrow_simon_norep,2021.1.2,Win32,60.0240096,,,,,,,,,,,,,,,,,,,,,q,1,3.3,TRUE,FALSE,3,1,13,2,1,,,,,,,
,,,,,,0,1.891763235,#a3d0fb,,left_blue.png,w,,,,,,w,left_blue.png,left_orange.png,q,60ef1280d72bd6dd52ad6006,001,2021-07-18_16h16.15.245,arrow_simon_norep,2021.1.2,Win32,60.0240096,,,,,,,,,,,,,,,,,,,,,q,0,1.352,FALSE,TRUE,3,2,14,2,1,,,,,,,
,,,,,,0,2.290394992,#f3af84,,left_orange.png,q,,,,,,w,left_blue.png,left_orange.png,q,60ef1280d72bd6dd52ad6006,001,2021-07-18_16h16.15.245,arrow_simon_norep,2021.1.2,Win32,60.0240096,,,,,,,,,,,,,,,,,,,,,o,0,1.999,TRUE,FALSE,3,3,15,3,1,,,,,,,
,,,,,,0,2.023266698,#a3d0fb,,right_blue.png,o,,,,,,o,right_blue.png,right_orange.png,p,60ef1280d72bd6dd52ad6006,001,2021-07-18_16h16.15.245,arrow_simon_norep,2021.1.2,Win32,60.0240096,,,,,,,,,,,,,,,,,,,,,q,0,1.268,FALSE,TRUE,4,0,16,1,1,,,,,,,
,,,,,,0,2.482638917,#f3af84,,left_orange.png,q,,,,,,w,left_blue.png,left_orange.png,q,60ef1280d72bd6dd52ad6006,001,2021-07-18_16h16.15.245,arrow_simon_norep,2021.1.2,Win32,60.0240096,,,,,,,,,,,,,,,,,,,,,q,1,2.062,TRUE,FALSE,4,1,17,2,1,,,,,,,
,,,,,,0,2.082581357,#a3d0fb,,left_blue.png,w,,,,,,w,left_blue.png,left_orange.png,q,60ef1280d72bd6dd52ad6006,001,2021-07-18_16h16.15.245,arrow_simon_norep,2021.1.2,Win32,60.0240096,,,,,,,,,,,,,,,,,,,,,q,0,1.7,TRUE,FALSE,4,2,18,3,1,,,,,,,
,,,,,,0,1.799289417,#f3af84,,left_orange.png,q,,,,,,w,left_blue.png,left_orange.png,q,60ef1280d72bd6dd52ad6006,001,2021-07-18_16h16.15.245,arrow_simon_norep,2021.1.2,Win32,60.0240096,,,,,,,,,,,,,,,,,,,,,q,1,1.583,FALSE,FALSE,4,3,19,3,1,,,,,,,
,,,,,,1,1.897086944,#a3d0fb,,right_blue.png,o,,,,,,o,right_blue.png,right_orange.png,p,60ef1280d72bd6dd52ad6006,001,2021-07-18_16h16.15.245,arrow_simon_norep,2021.1.2,Win32,60.0240096,,,,,,,,,,,,,,,,,,,,,w,0,1.484,FALSE,FALSE,5,0,20,0,1,,,,,,,
,,,,,,1,2.469097373,#f3af84,,left_orange.png,q,,,,,,w,left_blue.png,left_orange.png,q,60ef1280d72bd6dd52ad6006,001,2021-07-18_16h16.15.245,arrow_simon_norep,2021.1.2,Win32,60.0240096,,,,,,,,,,,,,,,,,,,,,q,1,2.031,TRUE,FALSE,5,1,21,2,1,,,,,,,
,,,,,,1,1.6684645,#a3d0fb,,left_blue.png,w,,,,,,w,left_blue.png,left_orange.png,q,60ef1280d72bd6dd52ad6006,001,2021-07-18_16h16.15.245,arrow_simon_norep,2021.1.2,Win32,60.0240096,,,,,,,,,,,,,,,,,,,,,w,1,1.301,FALSE,TRUE,5,2,22,2,1,,,,,,,
,,,,,,1,1.690949969,#f3af84,,left_orange.png,q,,,,,,w,left_blue.png,left_orange.png,q,60ef1280d72bd6dd52ad6006,001,2021-07-18_16h16.15.245,arrow_simon_norep,2021.1.2,Win32,60.0240096,,,,,,,,,,,,,,,,,,,,,q,1,1.231,FALSE,TRUE,5,3,23,2,1,,,,,,,
,,,,,,1,1.59913636,#a3d0fb,,right_blue.png,o,,,,,,o,right_blue.png,right_orange.png,p,60ef1280d72bd6dd52ad6006,001,2021-07-18_16h16.15.245,arrow_simon_norep,2021.1.2,Win32,60.0240096,,,,,,,,,,,,,,,,,,,,,w,0,1.118,FALSE,TRUE,6,0,24,0,1,,,,,,,
,,,,,,1,2.008701566,#f3af84,,right_orange.png,p,,,,,,o,right_blue.png,right_orange.png,p,60ef1280d72bd6dd52ad6006,001,2021-07-18_16h16.15.245,arrow_simon_norep,2021.1.2,Win32,60.0240096,,,,,,,,,,,,,,,,,,,,,p,1,1.616,TRUE,FALSE,6,1,25,1,1,,,,,,,
,,,,,,1,1.683258292,#a3d0fb,,left_blue.png,w,,,,,,w,left_blue.png,left_orange.png,q,60ef1280d72bd6dd52ad6006,001,2021-07-18_16h16.15.245,arrow_simon_norep,2021.1.2,Win32,60.0240096,,,,,,,,,,,,,,,,,,,,,w,1,1.202,FALSE,TRUE,6,2,26,3,1,,,,,,,
,,,,,,1,1.822024204,#f3af84,,left_orange.png,q,,,,,,w,left_blue.png,left_orange.png,q,60ef1280d72bd6dd52ad6006,001,2021-07-18_16h16.15.245,arrow_simon_norep,2021.1.2,Win32,60.0240096,,,,,,,,,,,,,,,,,,,,,w,0,1.582,FALSE,FALSE,6,3,27,3,1,,,,,,,
,,,,,,1,1.773605004,#a3d0fb,,left_blue.png,w,,,,,,w,left_blue.png,left_orange.png,q,60ef1280d72bd6dd52ad6006,001,2021-07-18_16h16.15.245,arrow_simon_norep,2021.1.2,Win32,60.0240096,,,,,,,,,,,,,,,,,,,,,q,0,1.583,FALSE,FALSE,7,0,28,3,1,,,,,,,
,,,,,,1,1.923844539,#f3af84,,left_orange.png,q,,,,,,w,left_blue.png,left_orange.png,q,60ef1280d72bd6dd52ad6006,001,2021-07-18_16h16.15.245,arrow_simon_norep,2021.1.2,Win32,60.0240096,,,,,,,,,,,,,,,,,,,,,w,0,2.181,TRUE,FALSE,7,1,29,2,1,,,,,,,
,,,,,,0,1.667033603,#a3d0fb,,left_blue.png,w,,,,,,w,left_blue.png,left_orange.png,q,60ef1280d72bd6dd52ad6006,001,2021-07-18_16h16.15.245,arrow_simon_norep,2021.1.2,Win32,60.0240096,,,,,,,,,,,,,,,,,,,,,w,1,1.418,FALSE,FALSE,7,2,30,2,1,,,,,,,
,,,,,,0,1.658495115,#f3af84,,right_orange.png,p,,,,,,o,right_blue.png,right_orange.png,p,60ef1280d72bd6dd52ad6006,001,2021-07-18_16h16.15.245,arrow_simon_norep,2021.1.2,Win32,60.0240096,,,,,,,,,,,,,,,,,,,,,w,0,2.2,TRUE,FALSE,7,3,31,1,1,,,,,,,
,,,,,,0,1.691357197,#a3d0fb,,left_blue.png,w,,,,,,w,left_blue.png,left_orange.png,q,60ef1280d72bd6dd52ad6006,001,2021-07-18_16h16.15.245,arrow_simon_norep,2021.1.2,Win32,60.0240096,,,,,,,,,,,,,,,,,,,,,w,1,1.566,FALSE,FALSE,8,0,32,3,1,,,,,,,
,,,,,,0,2.4446363,#f3af84,,left_orange.png,q,,,,,,w,left_blue.png,left_orange.png,q,60ef1280d72bd6dd52ad6006,001,2021-07-18_16h16.15.245,arrow_simon_norep,2021.1.2,Win32,60.0240096,,,,,,,,,,,,,,,,,,,,,o,0,2.131,TRUE,FALSE,8,1,33,3,1,,,,,,,
,,,,,,0,2.239378963,#a3d0fb,,right_blue.png,o,,,,,,o,right_blue.png,right_orange.png,p,60ef1280d72bd6dd52ad6006,001,2021-07-18_16h16.15.245,arrow_simon_norep,2021.1.2,Win32,60.0240096,,,,,,,,,,,,,,,,,,,,,w,0,1.782,TRUE,FALSE,8,2,34,0,1,,,,,,,
,,,,,,0,2.468286182,#f3af84,,right_orange.png,p,,,,,,o,right_blue.png,right_orange.png,p,60ef1280d72bd6dd52ad6006,001,2021-07-18_16h16.15.245,arrow_simon_norep,2021.1.2,Win32,60.0240096,,,,,,,,,,,,,,,,,,,,,q,0,2.448,TRUE,FALSE,8,3,35,0,1,,,,,,,
,,,,,,0,2.0712845,#a3d0fb,,right_blue.png,o,,,,,,o,right_blue.png,right_orange.png,p,60ef1280d72bd6dd52ad6006,001,2021-07-18_16h16.15.245,arrow_simon_norep,2021.1.2,Win32,60.0240096,,,,,,,,,,,,,,,,,,,,,w,0,1.749,TRUE,FALSE,9,0,36,0,1,,,,,,,
,,,,,,0,2.012826017,#f3af84,,right_orange.png,p,,,,,,o,right_blue.png,right_orange.png,p,60ef1280d72bd6dd52ad6006,001,2021-07-18_16h16.15.245,arrow_simon_norep,2021.1.2,Win32,60.0240096,,,,,,,,,,,,,,,,,,,,,p,1,2.015,TRUE,FALSE,9,1,37,0,1,,,,,,,
,,,,,,0,1.870514969,#a3d0fb,,left_blue.png,w,,,,,,w,left_blue.png,left_orange.png,q,60ef1280d72bd6dd52ad6006,001,2021-07-18_16h16.15.245,arrow_simon_norep,2021.1.2,Win32,60.0240096,,,,,,,,,,,,,,,,,,,,,w,1,1.65,TRUE,FALSE,9,2,38,3,1,,,,,,,
,,,,,,0,2.056953899,#f3af84,,right_orange.png,p,,,,,,o,right_blue.png,right_orange.png,p,60ef1280d72bd6dd52ad6006,001,2021-07-18_16h16.15.245,arrow_simon_norep,2021.1.2,Win32,60.0240096,,,,,,,,,,,,,,,,,,,,,w,0,1.617,TRUE,FALSE,9,3,39,0,1,,,,,,,
,,,,,,0,1.596618351,#a3d0fb,,left_blue.png,w,,,,,,w,left_blue.png,left_orange.png,q,60ef1280d72bd6dd52ad6006,001,2021-07-18_16h16.15.245,arrow_simon_norep,2021.1.2,Win32,60.0240096,,,,,,,,,,,,,,,,,,,,,w,1,69.558,TRUE,FALSE,10,0,40,2,1,,,,,,,
,,,,,,0,2.00897458,#f3af84,,left_orange.png,q,,,,,,w,left_blue.png,left_orange.png,q,60ef1280d72bd6dd52ad6006,001,2021-07-18_16h16.15.245,arrow_simon_norep,2021.1.2,Win32,60.0240096,,,,,,,,,,,,,,,,,,,,,q,1,1.77,TRUE,FALSE,10,1,41,2,1,,,,,,,
,,,,,,0,1.737250174,#a3d0fb,,right_blue.png,o,,,,,,o,right_blue.png,right_orange.png,p,60ef1280d72bd6dd52ad6006,001,2021-07-18_16h16.15.245,arrow_simon_norep,2021.1.2,Win32,60.0240096,,,,,,,,,,,,,,,,,,,,,p,0,1.264,FALSE,TRUE,10,2,42,1,1,,,,,,,
,,,,,,0,1.679069851,#f3af84,,right_orange.png,p,,,,,,o,right_blue.png,right_orange.png,p,60ef1280d72bd6dd52ad6006,001,2021-07-18_16h16.15.245,arrow_simon_norep,2021.1.2,Win32,60.0240096,,,,,,,,,,,,,,,,,,,,,p,1,1.482,FALSE,FALSE,10,3,43,0,1,,,,,,,
,,,,,,0,2.375491959,#a3d0fb,,right_blue.png,o,,,,,,o,right_blue.png,right_orange.png,p,60ef1280d72bd6dd52ad6006,001,2021-07-18_16h16.15.245,arrow_simon_norep,2021.1.2,Win32,60.0240096,,,,,,,,,,,,,,,,,,,,,p,0,1.95,TRUE,FALSE,11,0,44,0,1,,,,,,,
,,,,,,0,2.392593036,#f3af84,,right_orange.png,p,,,,,,o,right_blue.png,right_orange.png,p,60ef1280d72bd6dd52ad6006,001,2021-07-18_16h16.15.245,arrow_simon_norep,2021.1.2,Win32,60.0240096,,,,,,,,,,,,,,,,,,,,,p,1,1.915,TRUE,FALSE,11,1,45,1,1,,,,,,,
,,,,,,0,1.543390393,#a3d0fb,,left_blue.png,w,,,,,,w,left_blue.png,left_orange.png,q,60ef1280d72bd6dd52ad6006,001,2021-07-18_16h16.15.245,arrow_simon_norep,2021.1.2,Win32,60.0240096,,,,,,,,,,,,,,,,,,,,,w,1,1.184,FALSE,TRUE,11,2,46,2,1,,,,,,,
,,,,,,0,1.768933575,#f3af84,,left_orange.png,q,,,,,,w,left_blue.png,left_orange.png,q,60ef1280d72bd6dd52ad6006,001,2021-07-18_16h16.15.245,arrow_simon_norep,2021.1.2,Win32,60.0240096,,,,,,,,,,,,,,,,,,,,,w,0,1.318,FALSE,TRUE,11,3,47,2,1,,,,,,,
,,,,,,0,2.307772471,#a3d0fb,,right_blue.png,o,,,,,,o,right_blue.png,right_orange.png,p,60ef1280d72bd6dd52ad6006,001,2021-07-18_16h16.15.245,arrow_simon_norep,2021.1.2,Win32,60.0240096,,,,,,,,,,,,,,,,,,,,,p,0,1.883,TRUE,FALSE,12,0,48,1,1,,,,,,,
,,,,,,0,2.212182038,#f3af84,,right_orange.png,p,,,,,,o,right_blue.png,right_orange.png,p,60ef1280d72bd6dd52ad6006,001,2021-07-18_16h16.15.245,arrow_simon_norep,2021.1.2,Win32,60.0240096,,,,,,,,,,,,,,,,,,,,,p,1,1.699,TRUE,FALSE,12,1,49,1,1,,,,,,,
,,,,,,0,1.908134644,#a3d0fb,,left_blue.png,w,,,,,,w,left_blue.png,left_orange.png,q,60ef1280d72bd6dd52ad6006,001,2021-07-18_16h16.15.245,arrow_simon_norep,2021.1.2,Win32,60.0240096,,,,,,,,,,,,,,,,,,,,,q,0,1.614,TRUE,FALSE,12,2,50,3,1,,,,,,,
,,,,,,0,2.462423815,#f3af84,,right_orange.png,p,,,,,,o,right_blue.png,right_orange.png,p,60ef1280d72bd6dd52ad6006,001,2021-07-18_16h16.15.245,arrow_simon_norep,2021.1.2,Win32,60.0240096,,,,,,,,,,,,,,,,,,,,,w,0,1.816,TRUE,FALSE,12,3,51,1,1,,,,,,,
,,,,,,0,1.850893843,#a3d0fb,,left_blue.png,w,,,,,,w,left_blue.png,left_orange.png,q,60ef1280d72bd6dd52ad6006,001,2021-07-18_16h16.15.245,arrow_simon_norep,2021.1.2,Win32,60.0240096,,,,,,,,,,,,,,,,,,,,,o,0,2.015,TRUE,FALSE,13,0,52,3,1,,,,,,,
,,,,,,0,2.208343206,#f3af84,,right_orange.png,p,,,,,,o,right_blue.png,right_orange.png,p,60ef1280d72bd6dd52ad6006,001,2021-07-18_16h16.15.245,arrow_simon_norep,2021.1.2,Win32,60.0240096,,,,,,,,,,,,,,,,,,,,,o,0,1.833,TRUE,FALSE,13,1,53,1,1,,,,,,,
,,,,,,0,2.380211476,#a3d0fb,,left_blue.png,w,,,,,,w,left_blue.png,left_orange.png,q,60ef1280d72bd6dd52ad6006,001,2021-07-18_16h16.15.245,arrow_simon_norep,2021.1.2,Win32,60.0240096,,,,,,,,,,,,,,,,,,,,,w,1,1.999,TRUE,FALSE,13,2,54,3,1,,,,,,,
,,,,,,1,1.561591451,#f3af84,,left_orange.png,q,,,,,,w,left_blue.png,left_orange.png,q,60ef1280d72bd6dd52ad6006,001,2021-07-18_16h16.15.245,arrow_simon_norep,2021.1.2,Win32,60.0240096,,,,,,,,,,,,,,,,,,,,,w,0,1.485,FALSE,FALSE,13,3,55,3,1,,,,,,,
,,,,,,1,1.635835798,#a3d0fb,,right_blue.png,o,,,,,,o,right_blue.png,right_orange.png,p,60ef1280d72bd6dd52ad6006,001,2021-07-18_16h16.15.245,arrow_simon_norep,2021.1.2,Win32,60.0240096,,,,,,,,,,,,,,,,,,,,,w,0,1.251,FALSE,TRUE,14,0,56,1,1,,,,,,,
,,,,,,1,1.766426714,#f3af84,,right_orange.png,p,,,,,,o,right_blue.png,right_orange.png,p,60ef1280d72bd6dd52ad6006,001,2021-07-18_16h16.15.245,arrow_simon_norep,2021.1.2,Win32,60.0240096,,,,,,,,,,,,,,,,,,,,,p,1,1.351,FALSE,TRUE,14,1,57,1,1,,,,,,,
,,,,,,1,2.228793986,#a3d0fb,,right_blue.png,o,,,,,,o,right_blue.png,right_orange.png,p,60ef1280d72bd6dd52ad6006,001,2021-07-18_16h16.15.245,arrow_simon_norep,2021.1.2,Win32,60.0240096,,,,,,,,,,,,,,,,,,,,,o,1,1.749,TRUE,FALSE,14,2,58,1,1,,,,,,,
,,,,,,1,2.377428045,#f3af84,,left_orange.png,q,,,,,,w,left_blue.png,left_orange.png,q,60ef1280d72bd6dd52ad6006,001,2021-07-18_16h16.15.245,arrow_simon_norep,2021.1.2,Win32,60.0240096,,,,,,,,,,,,,,,,,,,,,p,0,1.7,TRUE,FALSE,14,3,59,3,1,,,,,,,
,,,,,,,,,,,,,,,,,,,,,60ef1280d72bd6dd52ad6006,001,2021-07-18_16h16.15.245,arrow_simon_norep,2021.1.2,Win32,60.0240096,,,,,,,,,,,,,,,,,,,,,,,,,,,,,,,space,14.466,1,0,1,0,1
,,,,,,1,1.948217554,#a3d0fb,,right_blue.png,o,,,,,,o,right_blue.png,right_orange.png,p,60ef1280d72bd6dd52ad6006,001,2021-07-18_16h16.15.245,arrow_simon_norep,2021.1.2,Win32,60.0240096,,,,,,,,,,,,,,,,,,,,,w,0,1.651,TRUE,FALSE,0,0,0,1,1,,,,,,,
,,,,,,0,1.834332833,#f3af84,,left_orange.png,q,,,,,,w,left_blue.png,left_orange.png,q,60ef1280d72bd6dd52ad6006,001,2021-07-18_16h16.15.245,arrow_simon_norep,2021.1.2,Win32,60.0240096,,,,,,,,,,,,,,,,,,,,,q,1,1.434,FALSE,FALSE,0,1,1,2,1,,,,,,,
,,,,,,0,2.169794121,#a3d0fb,,left_blue.png,w,,,,,,w,left_blue.png,left_orange.png,q,60ef1280d72bd6dd52ad6006,001,2021-07-18_16h16.15.245,arrow_simon_norep,2021.1.2,Win32,60.0240096,,,,,,,,,,,,,,,,,,,,,q,0,1.716,TRUE,FALSE,0,2,2,2,1,,,,,,,
,,,,,,0,2.186873258,#f3af84,,left_orange.png,q,,,,,,w,left_blue.png,left_orange.png,q,60ef1280d72bd6dd52ad6006,001,2021-07-18_16h16.15.245,arrow_simon_norep,2021.1.2,Win32,60.0240096,,,,,,,,,,,,,,,,,,,,,w,0,1.683,TRUE,FALSE,0,3,3,2,1,,,,,,,
,,,,,,0,1.595137,#a3d0fb,,left_blue.png,w,,,,,,w,left_blue.png,left_orange.png,q,60ef1280d72bd6dd52ad6006,001,2021-07-18_16h16.15.245,arrow_simon_norep,2021.1.2,Win32,60.0240096,,,,,,,,,,,,,,,,,,,,,o,0,1.266,FALSE,TRUE,1,0,4,3,1,,,,,,,
,,,,,,0,1.730218066,#f3af84,,left_orange.png,q,,,,,,w,left_blue.png,left_orange.png,q,60ef1280d72bd6dd52ad6006,001,2021-07-18_16h16.15.245,arrow_simon_norep,2021.1.2,Win32,60.0240096,,,,,,,,,,,,,,,,,,,,,q,1,1.416,FALSE,FALSE,1,1,5,3,1,,,,,,,
,,,,,,0,2.230093711,#a3d0fb,,right_blue.png,o,,,,,,o,right_blue.png,right_orange.png,p,60ef1280d72bd6dd52ad6006,001,2021-07-18_16h16.15.245,arrow_simon_norep,2021.1.2,Win32,60.0240096,,,,,,,,,,,,,,,,,,,,,w,0,1.747,TRUE,FALSE,1,2,6,0,1,,,,,,,
,,,,,,0,2.273268543,#f3af84,,left_orange.png,q,,,,,,w,left_blue.png,left_orange.png,q,60ef1280d72bd6dd52ad6006,001,2021-07-18_16h16.15.245,arrow_simon_norep,2021.1.2,Win32,60.0240096,,,,,,,,,,,,,,,,,,,,,q,1,1.815,TRUE,FALSE,1,3,7,2,1,,,,,,,
,,,,,,1,2.198275521,#a3d0fb,,left_blue.png,w,,,,,,w,left_blue.png,left_orange.png,q,60ef1280d72bd6dd52ad6006,001,2021-07-18_16h16.15.245,arrow_simon_norep,2021.1.2,Win32,60.0240096,,,,,,,,,,,,,,,,,,,,,q,0,1.579,FALSE,FALSE,2,0,8,2,1,,,,,,,
,,,,,,1,2.313941869,#f3af84,,right_orange.png,p,,,,,,o,right_blue.png,right_orange.png,p,60ef1280d72bd6dd52ad6006,001,2021-07-18_16h16.15.245,arrow_simon_norep,2021.1.2,Win32,60.0240096,,,,,,,,,,,,,,,,,,,,,p,1,1.768,TRUE,FALSE,2,1,9,1,1,,,,,,,
,,,,,,0,1.841360133,#a3d0fb,,left_blue.png,w,,,,,,w,left_blue.png,left_orange.png,q,60ef1280d72bd6dd52ad6006,001,2021-07-18_16h16.15.245,arrow_simon_norep,2021.1.2,Win32,60.0240096,,,,,,,,,,,,,,,,,,,,,w,1,1.481,FALSE,FALSE,2,2,10,3,1,,,,,,,
,,,,,,0,1.60606446,#f3af84,,right_orange.png,p,,,,,,o,right_blue.png,right_orange.png,p,60ef1280d72bd6dd52ad6006,001,2021-07-18_16h16.15.245,arrow_simon_norep,2021.1.2,Win32,60.0240096,,,,,,,,,,,,,,,,,,,,,o,0,1.382,FALSE,TRUE,2,3,11,1,1,,,,,,,
,,,,,,0,2.105660304,#a3d0fb,,left_blue.png,w,,,,,,w,left_blue.png,left_orange.png,q,60ef1280d72bd6dd52ad6006,001,2021-07-18_16h16.15.245,arrow_simon_norep,2021.1.2,Win32,60.0240096,,,,,,,,,,,,,,,,,,,,,q,0,1.617,TRUE,FALSE,3,0,12,2,1,,,,,,,
,,,,,,0,2.473599617,#f3af84,,left_orange.png,q,,,,,,w,left_blue.png,left_orange.png,q,60ef1280d72bd6dd52ad6006,001,2021-07-18_16h16.15.245,arrow_simon_norep,2021.1.2,Win32,60.0240096,,,,,,,,,,,,,,,,,,,,,q,1,2.121,TRUE,FALSE,3,1,13,2,1,,,,,,,
,,,,,,0,1.509143592,#a3d0fb,,left_blue.png,w,,,,,,w,left_blue.png,left_orange.png,q,60ef1280d72bd6dd52ad6006,001,2021-07-18_16h16.15.245,arrow_simon_norep,2021.1.2,Win32,60.0240096,,,,,,,,,,,,,,,,,,,,,w,1,1.199,FALSE,TRUE,3,2,14,3,1,,,,,,,
,,,,,,1,1.646838011,#f3af84,,right_orange.png,p,,,,,,o,right_blue.png,right_orange.png,p,60ef1280d72bd6dd52ad6006,001,2021-07-18_16h16.15.245,arrow_simon_norep,2021.1.2,Win32,60.0240096,,,,,,,,,,,,,,,,,,,,,o,0,1.485,FALSE,FALSE,3,3,15,0,1,,,,,,,
,,,,,,1,2.059276291,#a3d0fb,,left_blue.png,w,,,,,,w,left_blue.png,left_orange.png,q,60ef1280d72bd6dd52ad6006,001,2021-07-18_16h16.15.245,arrow_simon_norep,2021.1.2,Win32,60.0240096,,,,,,,,,,,,,,,,,,,,,o,0,1.567,FALSE,FALSE,4,0,16,3,1,,,,,,,
,,,,,,1,1.614734965,#f3af84,,right_orange.png,p,,,,,,o,right_blue.png,right_orange.png,p,60ef1280d72bd6dd52ad6006,001,2021-07-18_16h16.15.245,arrow_simon_norep,2021.1.2,Win32,60.0240096,,,,,,,,,,,,,,,,,,,,,o,0,2.015,TRUE,FALSE,4,1,17,1,1,,,,,,,
,,,,,,1,2.30136028,#a3d0fb,,left_blue.png,w,,,,,,w,left_blue.png,left_orange.png,q,60ef1280d72bd6dd52ad6006,001,2021-07-18_16h16.15.245,arrow_simon_norep,2021.1.2,Win32,60.0240096,,,,,,,,,,,,,,,,,,,,,o,0,1.85,TRUE,FALSE,4,2,18,3,1,,,,,,,
,,,,,,1,2.158112871,#f3af84,,left_orange.png,q,,,,,,w,left_blue.png,left_orange.png,q,60ef1280d72bd6dd52ad6006,001,2021-07-18_16h16.15.245,arrow_simon_norep,2021.1.2,Win32,60.0240096,,,,,,,,,,,,,,,,,,,,,w,0,1.518,FALSE,FALSE,4,3,19,2,1,,,,,,,
,,,,,,1,1.687566841,#a3d0fb,,right_blue.png,o,,,,,,o,right_blue.png,right_orange.png,p,60ef1280d72bd6dd52ad6006,001,2021-07-18_16h16.15.245,arrow_simon_norep,2021.1.2,Win32,60.0240096,,,,,,,,,,,,,,,,,,,,,w,0,1.203,FALSE,TRUE,5,0,20,0,1,,,,,,,
,,,,,,1,1.933604304,#f3af84,,right_orange.png,p,,,,,,o,right_blue.png,right_orange.png,p,60ef1280d72bd6dd52ad6006,001,2021-07-18_16h16.15.245,arrow_simon_norep,2021.1.2,Win32,60.0240096,,,,,,,,,,,,,,,,,,,,,p,1,1.787,TRUE,FALSE,5,1,21,0,1,,,,,,,
,,,,,,1,2.226606121,#a3d0fb,,left_blue.png,w,,,,,,w,left_blue.png,left_orange.png,q,60ef1280d72bd6dd52ad6006,001,2021-07-18_16h16.15.245,arrow_simon_norep,2021.1.2,Win32,60.0240096,,,,,,,,,,,,,,,,,,,,,p,0,1.617,TRUE,FALSE,5,2,22,3,1,,,,,,,
,,,,,,1,1.886982343,#f3af84,,left_orange.png,q,,,,,,w,left_blue.png,left_orange.png,q,60ef1280d72bd6dd52ad6006,001,2021-07-18_16h16.15.245,arrow_simon_norep,2021.1.2,Win32,60.0240096,,,,,,,,,,,,,,,,,,,,,q,1,63.587,TRUE,FALSE,5,3,23,2,1,,,,,,,
,,,,,,1,2.492190568,#a3d0fb,,right_blue.png,o,,,,,,o,right_blue.png,right_orange.png,p,60ef1280d72bd6dd52ad6006,001,2021-07-18_16h16.15.245,arrow_simon_norep,2021.1.2,Win32,60.0240096,,,,,,,,,,,,,,,,,,,,,o,1,2.116,TRUE,FALSE,6,0,24,1,1,,,,,,,
,,,,,,1,1.635786223,#f3af84,,right_orange.png,p,,,,,,o,right_blue.png,right_orange.png,p,60ef1280d72bd6dd52ad6006,001,2021-07-18_16h16.15.245,arrow_simon_norep,2021.1.2,Win32,60.0240096,,,,,,,,,,,,,,,,,,,,,w,0,1.201,FALSE,TRUE,6,1,25,0,1,,,,,,,
,,,,,,0,1.981842431,#a3d0fb,,right_blue.png,o,,,,,,o,right_blue.png,right_orange.png,p,60ef1280d72bd6dd52ad6006,001,2021-07-18_16h16.15.245,arrow_simon_norep,2021.1.2,Win32,60.0240096,,,,,,,,,,,,,,,,,,,,,o,1,1.517,FALSE,FALSE,6,2,26,0,1,,,,,,,
,,,,,,1,2.321193215,#f3af84,,right_orange.png,p,,,,,,o,right_blue.png,right_orange.png,p,60ef1280d72bd6dd52ad6006,001,2021-07-18_16h16.15.245,arrow_simon_norep,2021.1.2,Win32,60.0240096,,,,,,,,,,,,,,,,,,,,,o,0,1.566,FALSE,FALSE,6,3,27,0,1,,,,,,,
,,,,,,1,2.119134287,#a3d0fb,,right_blue.png,o,,,,,,o,right_blue.png,right_orange.png,p,60ef1280d72bd6dd52ad6006,001,2021-07-18_16h16.15.245,arrow_simon_norep,2021.1.2,Win32,60.0240096,,,,,,,,,,,,,,,,,,,,,w,0,1.432,FALSE,FALSE,7,0,28,0,1,,,,,,,
,,,,,,1,1.600264573,#f3af84,,right_orange.png,p,,,,,,o,right_blue.png,right_orange.png,p,60ef1280d72bd6dd52ad6006,001,2021-07-18_16h16.15.245,arrow_simon_norep,2021.1.2,Win32,60.0240096,,,,,,,,,,,,,,,,,,,,,p,1,1.134,FALSE,TRUE,7,1,29,1,1,,,,,,,
,,,,,,1,2.431878902,#a3d0fb,,left_blue.png,w,,,,,,w,left_blue.png,left_orange.png,q,60ef1280d72bd6dd52ad6006,001,2021-07-18_16h16.15.245,arrow_simon_norep,2021.1.2,Win32,60.0240096,,,,,,,,,,,,,,,,,,,,,w,1,0.885,FALSE,TRUE,7,2,30,3,1,,,,,,,
,,,,,,1,1.651308018,#f3af84,,right_orange.png,p,,,,,,o,right_blue.png,right_orange.png,p,60ef1280d72bd6dd52ad6006,001,2021-07-18_16h16.15.245,arrow_simon_norep,2021.1.2,Win32,60.0240096,,,,,,,,,,,,,,,,,,,,,w,0,1.235,FALSE,TRUE,7,3,31,1,1,,,,,,,
,,,,,,1,1.72072618,#a3d0fb,,left_blue.png,w,,,,,,w,left_blue.png,left_orange.png,q,60ef1280d72bd6dd52ad6006,001,2021-07-18_16h16.15.245,arrow_simon_norep,2021.1.2,Win32,60.0240096,,,,,,,,,,,,,,,,,,,,,o,0,1.234,FALSE,TRUE,8,0,32,3,1,,,,,,,
,,,,,,1,2.434125575,#f3af84,,right_orange.png,p,,,,,,o,right_blue.png,right_orange.png,p,60ef1280d72bd6dd52ad6006,001,2021-07-18_16h16.15.245,arrow_simon_norep,2021.1.2,Win32,60.0240096,,,,,,,,,,,,,,,,,,,,,p,1,1.899,TRUE,FALSE,8,1,33,1,1,,,,,,,
,,,,,,1,2.035872729,#a3d0fb,,left_blue.png,w,,,,,,w,left_blue.png,left_orange.png,q,60ef1280d72bd6dd52ad6006,001,2021-07-18_16h16.15.245,arrow_simon_norep,2021.1.2,Win32,60.0240096,,,,,,,,,,,,,,,,,,,,,o,0,1.416,FALSE,FALSE,8,2,34,2,1,,,,,,,
,,,,,,1,1.75973512,#f3af84,,right_orange.png,p,,,,,,o,right_blue.png,right_orange.png,p,60ef1280d72bd6dd52ad6006,001,2021-07-18_16h16.15.245,arrow_simon_norep,2021.1.2,Win32,60.0240096,,,,,,,,,,,,,,,,,,,,,p,1,29.275,TRUE,FALSE,8,3,35,1,1,,,,,,,
,,,,,,1,2.30333471,#a3d0fb,,right_blue.png,o,,,,,,o,right_blue.png,right_orange.png,p,60ef1280d72bd6dd52ad6006,001,2021-07-18_16h16.15.245,arrow_simon_norep,2021.1.2,Win32,60.0240096,,,,,,,,,,,,,,,,,,,,,w,0,1.932,TRUE,FALSE,9,0,36,1,1,,,,,,,
,,,,,,1,1.778031521,#f3af84,,right_orange.png,p,,,,,,o,right_blue.png,right_orange.png,p,60ef1280d72bd6dd52ad6006,001,2021-07-18_16h16.15.245,arrow_simon_norep,2021.1.2,Win32,60.0240096,,,,,,,,,,,,,,,,,,,,,p,1,1.117,FALSE,TRUE,9,1,37,1,1,,,,,,,
,,,,,,0,2.163105752,#a3d0fb,,right_blue.png,o,,,,,,o,right_blue.png,right_orange.png,p,60ef1280d72bd6dd52ad6006,001,2021-07-18_16h16.15.245,arrow_simon_norep,2021.1.2,Win32,60.0240096,,,,,,,,,,,,,,,,,,,,,o,1,1.581,FALSE,FALSE,9,2,38,1,1,,,,,,,
,,,,,,0,2.480580964,#f3af84,,left_orange.png,q,,,,,,w,left_blue.png,left_orange.png,q,60ef1280d72bd6dd52ad6006,001,2021-07-18_16h16.15.245,arrow_simon_norep,2021.1.2,Win32,60.0240096,,,,,,,,,,,,,,,,,,,,,w,0,1.795,TRUE,FALSE,9,3,39,2,1,,,,,,,
,,,,,,0,1.611250467,#a3d0fb,,right_blue.png,o,,,,,,o,right_blue.png,right_orange.png,p,60ef1280d72bd6dd52ad6006,001,2021-07-18_16h16.15.245,arrow_simon_norep,2021.1.2,Win32,60.0240096,,,,,,,,,,,,,,,,,,,,,q,0,1.101,FALSE,TRUE,10,0,40,0,1,,,,,,,
,,,,,,1,2.154255355,#f3af84,,left_orange.png,q,,,,,,w,left_blue.png,left_orange.png,q,60ef1280d72bd6dd52ad6006,001,2021-07-18_16h16.15.245,arrow_simon_norep,2021.1.2,Win32,60.0240096,,,,,,,,,,,,,,,,,,,,,w,0,1.532,FALSE,FALSE,10,1,41,2,1,,,,,,,
,,,,,,1,2.130991089,#a3d0fb,,right_blue.png,o,,,,,,o,right_blue.png,right_orange.png,p,60ef1280d72bd6dd52ad6006,001,2021-07-18_16h16.15.245,arrow_simon_norep,2021.1.2,Win32,60.0240096,,,,,,,,,,,,,,,,,,,,,w,0,1.616,TRUE,FALSE,10,2,42,0,1,,,,,,,
,,,,,,1,2.031346035,#f3af84,,right_orange.png,p,,,,,,o,right_blue.png,right_orange.png,p,60ef1280d72bd6dd52ad6006,001,2021-07-18_16h16.15.245,arrow_simon_norep,2021.1.2,Win32,60.0240096,,,,,,,,,,,,,,,,,,,,,w,0,1.582,FALSE,FALSE,10,3,43,0,1,,,,,,,
,,,,,,1,2.057109819,#a3d0fb,,right_blue.png,o,,,,,,o,right_blue.png,right_orange.png,p,60ef1280d72bd6dd52ad6006,001,2021-07-18_16h16.15.245,arrow_simon_norep,2021.1.2,Win32,60.0240096,,,,,,,,,,,,,,,,,,,,,w,0,1.582,FALSE,FALSE,11,0,44,0,1,,,,,,,
,,,,,,1,1.506551779,#f3af84,,left_orange.png,q,,,,,,w,left_blue.png,left_orange.png,q,60ef1280d72bd6dd52ad6006,001,2021-07-18_16h16.15.245,arrow_simon_norep,2021.1.2,Win32,60.0240096,,,,,,,,,,,,,,,,,,,,,q,1,1.233,FALSE,TRUE,11,1,45,2,1,,,,,,,
,,,,,,1,1.637921677,#a3d0fb,,right_blue.png,o,,,,,,o,right_blue.png,right_orange.png,p,60ef1280d72bd6dd52ad6006,001,2021-07-18_16h16.15.245,arrow_simon_norep,2021.1.2,Win32,60.0240096,,,,,,,,,,,,,,,,,,,,,w,0,1.067,FALSE,TRUE,11,2,46,0,1,,,,,,,
,,,,,,1,2.205595579,#f3af84,,left_orange.png,q,,,,,,w,left_blue.png,left_orange.png,q,60ef1280d72bd6dd52ad6006,001,2021-07-18_16h16.15.245,arrow_simon_norep,2021.1.2,Win32,60.0240096,,,,,,,,,,,,,,,,,,,,,o,0,1.2,FALSE,TRUE,11,3,47,3,1,,,,,,,
,,,,,,1,2.130254331,#a3d0fb,,left_blue.png,w,,,,,,w,left_blue.png,left_orange.png,q,60ef1280d72bd6dd52ad6006,001,2021-07-18_16h16.15.245,arrow_simon_norep,2021.1.2,Win32,60.0240096,,,,,,,,,,,,,,,,,,,,,w,1,1.666,TRUE,FALSE,12,0,48,3,1,,,,,,,
,,,,,,1,1.524587978,#f3af84,,left_orange.png,q,,,,,,w,left_blue.png,left_orange.png,q,60ef1280d72bd6dd52ad6006,001,2021-07-18_16h16.15.245,arrow_simon_norep,2021.1.2,Win32,60.0240096,,,,,,,,,,,,,,,,,,,,,q,1,0.969,FALSE,TRUE,12,1,49,2,1,,,,,,,
,,,,,,0,1.798125579,#a3d0fb,,left_blue.png,w,,,,,,w,left_blue.png,left_orange.png,q,60ef1280d72bd6dd52ad6006,001,2021-07-18_16h16.15.245,arrow_simon_norep,2021.1.2,Win32,60.0240096,,,,,,,,,,,,,,,,,,,,,w,1,1.551,FALSE,FALSE,12,2,50,3,1,,,,,,,
,,,,,,0,2.077581316,#f3af84,,left_orange.png,q,,,,,,w,left_blue.png,left_orange.png,q,60ef1280d72bd6dd52ad6006,001,2021-07-18_16h16.15.245,arrow_simon_norep,2021.1.2,Win32,60.0240096,,,,,,,,,,,,,,,,,,,,,q,1,1.668,TRUE,FALSE,12,3,51,3,1,,,,,,,
,,,,,,0,2.189653766,#a3d0fb,,left_blue.png,w,,,,,,w,left_blue.png,left_orange.png,q,60ef1280d72bd6dd52ad6006,001,2021-07-18_16h16.15.245,arrow_simon_norep,2021.1.2,Win32,60.0240096,,,,,,,,,,,,,,,,,,,,,q,0,1.719,TRUE,FALSE,13,0,52,3,1,,,,,,,
,,,,,,1,2.237912038,#f3af84,,right_orange.png,p,,,,,,o,right_blue.png,right_orange.png,p,60ef1280d72bd6dd52ad6006,001,2021-07-18_16h16.15.245,arrow_simon_norep,2021.1.2,Win32,60.0240096,,,,,,,,,,,,,,,,,,,,,w,0,1.535,FALSE,FALSE,13,1,53,1,1,,,,,,,
,,,,,,1,2.203124109,#a3d0fb,,right_blue.png,o,,,,,,o,right_blue.png,right_orange.png,p,60ef1280d72bd6dd52ad6006,001,2021-07-18_16h16.15.245,arrow_simon_norep,2021.1.2,Win32,60.0240096,,,,,,,,,,,,,,,,,,,,,w,0,1.717,TRUE,FALSE,13,2,54,0,1,,,,,,,
,,,,,,1,2.300673655,#f3af84,,right_orange.png,p,,,,,,o,right_blue.png,right_orange.png,p,60ef1280d72bd6dd52ad6006,001,2021-07-18_16h16.15.245,arrow_simon_norep,2021.1.2,Win32,60.0240096,,,,,,,,,,,,,,,,,,,,,w,0,1.783,TRUE,FALSE,13,3,55,0,1,,,,,,,
,,,,,,1,2.173907337,#a3d0fb,,left_blue.png,w,,,,,,w,left_blue.png,left_orange.png,q,60ef1280d72bd6dd52ad6006,001,2021-07-18_16h16.15.245,arrow_simon_norep,2021.1.2,Win32,60.0240096,,,,,,,,,,,,,,,,,,,,,q,0,1.683,TRUE,FALSE,14,0,56,2,1,,,,,,,
,,,,,,1,2.299211536,#f3af84,,right_orange.png,p,,,,,,o,right_blue.png,right_orange.png,p,60ef1280d72bd6dd52ad6006,001,2021-07-18_16h16.15.245,arrow_simon_norep,2021.1.2,Win32,60.0240096,,,,,,,,,,,,,,,,,,,,,o,0,1.981,TRUE,FALSE,14,1,57,1,1,,,,,,,
,,,,,,1,2.032101401,#a3d0fb,,right_blue.png,o,,,,,,o,right_blue.png,right_orange.png,p,60ef1280d72bd6dd52ad6006,001,2021-07-18_16h16.15.245,arrow_simon_norep,2021.1.2,Win32,60.0240096,,,,,,,,,,,,,,,,,,,,,p,0,1.533,FALSE,FALSE,14,2,58,1,1,,,,,,,
,,,,,,1,1.902782726,#f3af84,,left_orange.png,q,,,,,,w,left_blue.png,left_orange.png,q,60ef1280d72bd6dd52ad6006,001,2021-07-18_16h16.15.245,arrow_simon_norep,2021.1.2,Win32,60.0240096,,,,,,,,,,,,,,,,,,,,,w,0,1.517,FALSE,FALSE,14,3,59,3,1,,,,,,,
,,,,,,,,,,,,,,,,,,,,,60ef1280d72bd6dd52ad6006,001,2021-07-18_16h16.15.245,arrow_simon_norep,2021.1.2,Win32,60.0240096,,,,,,,,,,,,,,,,,,,,,,,,,,,,,,,space,87.565,2,0,2,0,1
,,,,,,1,1.605110713,#a3d0fb,,right_blue.png,o,,,,,,o,right_blue.png,right_orange.png,p,60ef1280d72bd6dd52ad6006,001,2021-07-18_16h16.15.245,arrow_simon_norep,2021.1.2,Win32,60.0240096,,,,,,,,,,,,,,,,,,,,,w,0,1.484,FALSE,FALSE,0,0,0,0,1,,,,,,,
,,,,,,1,2.287583493,#f3af84,,right_orange.png,p,,,,,,o,right_blue.png,right_orange.png,p,60ef1280d72bd6dd52ad6006,001,2021-07-18_16h16.15.245,arrow_simon_norep,2021.1.2,Win32,60.0240096,,,,,,,,,,,,,,,,,,,,,w,0,1.62,TRUE,FALSE,0,1,1,0,1,,,,,,,
,,,,,,1,2.337746384,#a3d0fb,,left_blue.png,w,,,,,,w,left_blue.png,left_orange.png,q,60ef1280d72bd6dd52ad6006,001,2021-07-18_16h16.15.245,arrow_simon_norep,2021.1.2,Win32,60.0240096,,,,,,,,,,,,,,,,,,,,,w,1,1.618,TRUE,FALSE,0,2,2,3,1,,,,,,,
,,,,,,1,2.369073373,#f3af84,,left_orange.png,q,,,,,,w,left_blue.png,left_orange.png,q,60ef1280d72bd6dd52ad6006,001,2021-07-18_16h16.15.245,arrow_simon_norep,2021.1.2,Win32,60.0240096,,,,,,,,,,,,,,,,,,,,,q,1,1.915,TRUE,FALSE,0,3,3,2,1,,,,,,,
,,,,,,1,1.573994326,#a3d0fb,,right_blue.png,o,,,,,,o,right_blue.png,right_orange.png,p,60ef1280d72bd6dd52ad6006,001,2021-07-18_16h16.15.245,arrow_simon_norep,2021.1.2,Win32,60.0240096,,,,,,,,,,,,,,,,,,,,,w,0,1.099,FALSE,TRUE,1,0,4,0,1,,,,,,,
,,,,,,1,2.442244647,#f3af84,,left_orange.png,q,,,,,,w,left_blue.png,left_orange.png,q,60ef1280d72bd6dd52ad6006,001,2021-07-18_16h16.15.245,arrow_simon_norep,2021.1.2,Win32,60.0240096,,,,,,,,,,,,,,,,,,,,,o,0,1.8,TRUE,FALSE,1,1,5,3,1,,,,,,,
,,,,,,1,2.422197573,#a3d0fb,,left_blue.png,w,,,,,,w,left_blue.png,left_orange.png,q,60ef1280d72bd6dd52ad6006,001,2021-07-18_16h16.15.245,arrow_simon_norep,2021.1.2,Win32,60.0240096,,,,,,,,,,,,,,,,,,,,,q,0,2.033,TRUE,FALSE,1,2,6,3,1,,,,,,,
,,,,,,1,1.832428164,#f3af84,,right_orange.png,p,,,,,,o,right_blue.png,right_orange.png,p,60ef1280d72bd6dd52ad6006,001,2021-07-18_16h16.15.245,arrow_simon_norep,2021.1.2,Win32,60.0240096,,,,,,,,,,,,,,,,,,,,,w,0,1.46,FALSE,FALSE,1,3,7,1,1,,,,,,,
,,,,,,1,2.214687303,#a3d0fb,,left_blue.png,w,,,,,,w,left_blue.png,left_orange.png,q,60ef1280d72bd6dd52ad6006,001,2021-07-18_16h16.15.245,arrow_simon_norep,2021.1.2,Win32,60.0240096,,,,,,,,,,,,,,,,,,,,,w,1,1.783,TRUE,FALSE,2,0,8,3,1,,,,,,,
,,,,,,1,2.380386845,#f3af84,,left_orange.png,q,,,,,,w,left_blue.png,left_orange.png,q,60ef1280d72bd6dd52ad6006,001,2021-07-18_16h16.15.245,arrow_simon_norep,2021.1.2,Win32,60.0240096,,,,,,,,,,,,,,,,,,,,,w,0,2.016,TRUE,FALSE,2,1,9,3,1,,,,,,,
,,,,,,1,1.730665208,#a3d0fb,,left_blue.png,w,,,,,,w,left_blue.png,left_orange.png,q,60ef1280d72bd6dd52ad6006,001,2021-07-18_16h16.15.245,arrow_simon_norep,2021.1.2,Win32,60.0240096,,,,,,,,,,,,,,,,,,,,,q,0,1.25,FALSE,TRUE,2,2,10,3,1,,,,,,,
,,,,,,0,1.829312073,#f3af84,,left_orange.png,q,,,,,,w,left_blue.png,left_orange.png,q,60ef1280d72bd6dd52ad6006,001,2021-07-18_16h16.15.245,arrow_simon_norep,2021.1.2,Win32,60.0240096,,,,,,,,,,,,,,,,,,,,,q,1,1.547,FALSE,FALSE,2,3,11,2,1,,,,,,,
,,,,,,1,1.780628785,#a3d0fb,,left_blue.png,w,,,,,,w,left_blue.png,left_orange.png,q,60ef1280d72bd6dd52ad6006,001,2021-07-18_16h16.15.245,arrow_simon_norep,2021.1.2,Win32,60.0240096,,,,,,,,,,,,,,,,,,,,,q,0,1.432,FALSE,FALSE,3,0,12,2,1,,,,,,,
,,,,,,1,2.231640302,#f3af84,,right_orange.png,p,,,,,,o,right_blue.png,right_orange.png,p,60ef1280d72bd6dd52ad6006,001,2021-07-18_16h16.15.245,arrow_simon_norep,2021.1.2,Win32,60.0240096,,,,,,,,,,,,,,,,,,,,,p,1,1.799,TRUE,FALSE,3,1,13,0,1,,,,,,,
,,,,,,1,1.785553599,#a3d0fb,,left_blue.png,w,,,,,,w,left_blue.png,left_orange.png,q,60ef1280d72bd6dd52ad6006,001,2021-07-18_16h16.15.245,arrow_simon_norep,2021.1.2,Win32,60.0240096,,,,,,,,,,,,,,,,,,,,,q,0,1.251,FALSE,TRUE,3,2,14,2,1,,,,,,,
,,,,,,1,1.961872057,#f3af84,,right_orange.png,p,,,,,,o,right_blue.png,right_orange.png,p,60ef1280d72bd6dd52ad6006,001,2021-07-18_16h16.15.245,arrow_simon_norep,2021.1.2,Win32,60.0240096,,,,,,,,,,,,,,,,,,,,,q,0,1.551,FALSE,FALSE,3,3,15,0,1,,,,,,,
,,,,,,1,1.789617918,#a3d0fb,,left_blue.png,w,,,,,,w,left_blue.png,left_orange.png,q,60ef1280d72bd6dd52ad6006,001,2021-07-18_16h16.15.245,arrow_simon_norep,2021.1.2,Win32,60.0240096,,,,,,,,,,,,,,,,,,,,,w,1,1.35,FALSE,TRUE,4,0,16,2,1,,,,,,,
,,,,,,1,1.537114661,#f3af84,,left_orange.png,q,,,,,,w,left_blue.png,left_orange.png,q,60ef1280d72bd6dd52ad6006,001,2021-07-18_16h16.15.245,arrow_simon_norep,2021.1.2,Win32,60.0240096,,,,,,,,,,,,,,,,,,,,,o,0,0.966,FALSE,TRUE,4,1,17,3,1,,,,,,,
,,,,,,1,1.719424827,#a3d0fb,,right_blue.png,o,,,,,,o,right_blue.png,right_orange.png,p,60ef1280d72bd6dd52ad6006,001,2021-07-18_16h16.15.245,arrow_simon_norep,2021.1.2,Win32,60.0240096,,,,,,,,,,,,,,,,,,,,,w,0,0.833,FALSE,TRUE,4,2,18,1,1,,,,,,,
,,,,,,1,2.303882256,#f3af84,,left_orange.png,q,,,,,,w,left_blue.png,left_orange.png,q,60ef1280d72bd6dd52ad6006,001,2021-07-18_16h16.15.245,arrow_simon_norep,2021.1.2,Win32,60.0240096,,,,,,,,,,,,,,,,,,,,,p,0,1.583,FALSE,FALSE,4,3,19,3,1,,,,,,,
,,,,,,1,2.351699371,#a3d0fb,,left_blue.png,w,,,,,,w,left_blue.png,left_orange.png,q,60ef1280d72bd6dd52ad6006,001,2021-07-18_16h16.15.245,arrow_simon_norep,2021.1.2,Win32,60.0240096,,,,,,,,,,,,,,,,,,,,,w,1,1.998,TRUE,FALSE,5,0,20,2,1,,,,,,,
,,,,,,1,2.161821146,#f3af84,,right_orange.png,p,,,,,,o,right_blue.png,right_orange.png,p,60ef1280d72bd6dd52ad6006,001,2021-07-18_16h16.15.245,arrow_simon_norep,2021.1.2,Win32,60.0240096,,,,,,,,,,,,,,,,,,,,,w,0,2.514,TRUE,FALSE,5,1,21,0,1,,,,,,,
,,,,,,1,2.017488373,#a3d0fb,,left_blue.png,w,,,,,,w,left_blue.png,left_orange.png,q,60ef1280d72bd6dd52ad6006,001,2021-07-18_16h16.15.245,arrow_simon_norep,2021.1.2,Win32,60.0240096,,,,,,,,,,,,,,,,,,,,,w,1,2.099,TRUE,FALSE,5,2,22,3,1,,,,,,,
,,,,,,1,1.709691689,#f3af84,,left_orange.png,q,,,,,,w,left_blue.png,left_orange.png,q,60ef1280d72bd6dd52ad6006,001,2021-07-18_16h16.15.245,arrow_simon_norep,2021.1.2,Win32,60.0240096,,,,,,,,,,,,,,,,,,,,,q,1,16.851,TRUE,FALSE,5,3,23,2,1,,,,,,,
,,,,,,1,2.200208984,#a3d0fb,,right_blue.png,o,,,,,,o,right_blue.png,right_orange.png,p,60ef1280d72bd6dd52ad6006,001,2021-07-18_16h16.15.245,arrow_simon_norep,2021.1.2,Win32,60.0240096,,,,,,,,,,,,,,,,,,,,,p,0,1.717,TRUE,FALSE,6,0,24,1,1,,,,,,,
,,,,,,1,2.232914583,#f3af84,,right_orange.png,p,,,,,,o,right_blue.png,right_orange.png,p,60ef1280d72bd6dd52ad6006,001,2021-07-18_16h16.15.245,arrow_simon_norep,2021.1.2,Win32,60.0240096,,,,,,,,,,,,,,,,,,,,,w,0,1.576,FALSE,FALSE,6,1,25,0,1,,,,,,,
,,,,,,1,2.082436118,#a3d0fb,,left_blue.png,w,,,,,,w,left_blue.png,left_orange.png,q,60ef1280d72bd6dd52ad6006,001,2021-07-18_16h16.15.245,arrow_simon_norep,2021.1.2,Win32,60.0240096,,,,,,,,,,,,,,,,,,,,,w,1,1.681,TRUE,FALSE,6,2,26,2,1,,,,,,,
,,,,,,0,1.956718869,#f3af84,,left_orange.png,q,,,,,,w,left_blue.png,left_orange.png,q,60ef1280d72bd6dd52ad6006,001,2021-07-18_16h16.15.245,arrow_simon_norep,2021.1.2,Win32,60.0240096,,,,,,,,,,,,,,,,,,,,,q,1,1.567,FALSE,FALSE,6,3,27,2,1,,,,,,,
,,,,,,0,2.318430231,#a3d0fb,,right_blue.png,o,,,,,,o,right_blue.png,right_orange.png,p,60ef1280d72bd6dd52ad6006,001,2021-07-18_16h16.15.245,arrow_simon_norep,2021.1.2,Win32,60.0240096,,,,,,,,,,,,,,,,,,,,,o,1,1.9,TRUE,FALSE,7,0,28,0,1,,,,,,,
,,,,,,0,1.510077903,#f3af84,,right_orange.png,p,,,,,,o,right_blue.png,right_orange.png,p,60ef1280d72bd6dd52ad6006,001,2021-07-18_16h16.15.245,arrow_simon_norep,2021.1.2,Win32,60.0240096,,,,,,,,,,,,,,,,,,,,,p,1,1.2,FALSE,TRUE,7,1,29,1,1,,,,,,,
,,,,,,0,2.440033587,#a3d0fb,,left_blue.png,w,,,,,,w,left_blue.png,left_orange.png,q,60ef1280d72bd6dd52ad6006,001,2021-07-18_16h16.15.245,arrow_simon_norep,2021.1.2,Win32,60.0240096,,,,,,,,,,,,,,,,,,,,,o,0,1.948,TRUE,FALSE,7,2,30,3,1,,,,,,,
,,,,,,0,1.658098096,#f3af84,,right_orange.png,p,,,,,,o,right_blue.png,right_orange.png,p,60ef1280d72bd6dd52ad6006,001,2021-07-18_16h16.15.245,arrow_simon_norep,2021.1.2,Win32,60.0240096,,,,,,,,,,,,,,,,,,,,,w,0,1.232,FALSE,TRUE,7,3,31,0,1,,,,,,,
,,,,,,0,1.861497741,#a3d0fb,,left_blue.png,w,,,,,,w,left_blue.png,left_orange.png,q,60ef1280d72bd6dd52ad6006,001,2021-07-18_16h16.15.245,arrow_simon_norep,2021.1.2,Win32,60.0240096,,,,,,,,,,,,,,,,,,,,,q,0,1.25,FALSE,TRUE,8,0,32,2,1,,,,,,,
,,,,,,0,1.833689711,#f3af84,,left_orange.png,q,,,,,,w,left_blue.png,left_orange.png,q,60ef1280d72bd6dd52ad6006,001,2021-07-18_16h16.15.245,arrow_simon_norep,2021.1.2,Win32,60.0240096,,,,,,,,,,,,,,,,,,,,,q,1,1.267,FALSE,TRUE,8,1,33,2,1,,,,,,,
,,,,,,0,2.159402125,#a3d0fb,,left_blue.png,w,,,,,,w,left_blue.png,left_orange.png,q,60ef1280d72bd6dd52ad6006,001,2021-07-18_16h16.15.245,arrow_simon_norep,2021.1.2,Win32,60.0240096,,,,,,,,,,,,,,,,,,,,,q,0,1.616,TRUE,FALSE,8,2,34,3,1,,,,,,,
,,,,,,0,1.897302597,#f3af84,,left_orange.png,q,,,,,,w,left_blue.png,left_orange.png,q,60ef1280d72bd6dd52ad6006,001,2021-07-18_16h16.15.245,arrow_simon_norep,2021.1.2,Win32,60.0240096,,,,,,,,,,,,,,,,,,,,,w,0,1.201,FALSE,TRUE,8,3,35,2,1,,,,,,,
,,,,,,0,2.235617145,#a3d0fb,,right_blue.png,o,,,,,,o,right_blue.png,right_orange.png,p,60ef1280d72bd6dd52ad6006,001,2021-07-18_16h16.15.245,arrow_simon_norep,2021.1.2,Win32,60.0240096,,,,,,,,,,,,,,,,,,,,,q,0,1.2,FALSE,TRUE,9,0,36,0,1,,,,,,,
,,,,,,0,1.726324921,#f3af84,,right_orange.png,p,,,,,,o,right_blue.png,right_orange.png,p,60ef1280d72bd6dd52ad6006,001,2021-07-18_16h16.15.245,arrow_simon_norep,2021.1.2,Win32,60.0240096,,,,,,,,,,,,,,,,,,,,,p,1,1.3,FALSE,TRUE,9,1,37,1,1,,,,,,,
,,,,,,0,2.160568927,#a3d0fb,,right_blue.png,o,,,,,,o,right_blue.png,right_orange.png,p,60ef1280d72bd6dd52ad6006,001,2021-07-18_16h16.15.245,arrow_simon_norep,2021.1.2,Win32,60.0240096,,,,,,,,,,,,,,,,,,,,,p,0,1.683,TRUE,FALSE,9,2,38,1,1,,,,,,,
,,,,,,0,1.554796417,#f3af84,,right_orange.png,p,,,,,,o,right_blue.png,right_orange.png,p,60ef1280d72bd6dd52ad6006,001,2021-07-18_16h16.15.245,arrow_simon_norep,2021.1.2,Win32,60.0240096,,,,,,,,,,,,,,,,,,,,,o,0,0.368,FALSE,TRUE,9,3,39,0,1,,,,,,,
,,,,,,0,1.524773206,#a3d0fb,,right_blue.png,o,,,,,,o,right_blue.png,right_orange.png,p,60ef1280d72bd6dd52ad6006,001,2021-07-18_16h16.15.245,arrow_simon_norep,2021.1.2,Win32,60.0240096,,,,,,,,,,,,,,,,,,,,,w,0,1.383,FALSE,TRUE,10,0,40,1,1,,,,,,,
,,,,,,0,1.993910947,#f3af84,,right_orange.png,p,,,,,,o,right_blue.png,right_orange.png,p,60ef1280d72bd6dd52ad6006,001,2021-07-18_16h16.15.245,arrow_simon_norep,2021.1.2,Win32,60.0240096,,,,,,,,,,,,,,,,,,,,,p,1,1.634,TRUE,FALSE,10,1,41,1,1,,,,,,,
,,,,,,1,1.856815109,#a3d0fb,,left_blue.png,w,,,,,,w,left_blue.png,left_orange.png,q,60ef1280d72bd6dd52ad6006,001,2021-07-18_16h16.15.245,arrow_simon_norep,2021.1.2,Win32,60.0240096,,,,,,,,,,,,,,,,,,,,,q,0,1.583,FALSE,FALSE,10,2,42,2,1,,,,,,,
,,,,,,1,1.57987971,#f3af84,,right_orange.png,p,,,,,,o,right_blue.png,right_orange.png,p,60ef1280d72bd6dd52ad6006,001,2021-07-18_16h16.15.245,arrow_simon_norep,2021.1.2,Win32,60.0240096,,,,,,,,,,,,,,,,,,,,,q,0,1.384,FALSE,TRUE,10,3,43,0,1,,,,,,,
,,,,,,1,1.90002195,#a3d0fb,,right_blue.png,o,,,,,,o,right_blue.png,right_orange.png,p,60ef1280d72bd6dd52ad6006,001,2021-07-18_16h16.15.245,arrow_simon_norep,2021.1.2,Win32,60.0240096,,,,,,,,,,,,,,,,,,,,,w,0,1.467,FALSE,FALSE,11,0,44,0,1,,,,,,,
,,,,,,1,1.585645847,#f3af84,,right_orange.png,p,,,,,,o,right_blue.png,right_orange.png,p,60ef1280d72bd6dd52ad6006,001,2021-07-18_16h16.15.245,arrow_simon_norep,2021.1.2,Win32,60.0240096,,,,,,,,,,,,,,,,,,,,,o,0,1.568,FALSE,FALSE,11,1,45,1,1,,,,,,,
,,,,,,1,2.049423288,#a3d0fb,,left_blue.png,w,,,,,,w,left_blue.png,left_orange.png,q,60ef1280d72bd6dd52ad6006,001,2021-07-18_16h16.15.245,arrow_simon_norep,2021.1.2,Win32,60.0240096,,,,,,,,,,,,,,,,,,,,,w,1,1.731,TRUE,FALSE,11,2,46,2,1,,,,,,,
,,,,,,1,1.752909379,#f3af84,,right_orange.png,p,,,,,,o,right_blue.png,right_orange.png,p,60ef1280d72bd6dd52ad6006,001,2021-07-18_16h16.15.245,arrow_simon_norep,2021.1.2,Win32,60.0240096,,,,,,,,,,,,,,,,,,,,,w,0,1.533,FALSE,FALSE,11,3,47,1,1,,,,,,,
,,,,,,1,2.043723295,#a3d0fb,,left_blue.png,w,,,,,,w,left_blue.png,left_orange.png,q,60ef1280d72bd6dd52ad6006,001,2021-07-18_16h16.15.245,arrow_simon_norep,2021.1.2,Win32,60.0240096,,,,,,,,,,,,,,,,,,,,,w,1,1.751,TRUE,FALSE,12,0,48,3,1,,,,,,,
,,,,,,1,2.42985983,#f3af84,,left_orange.png,q,,,,,,w,left_blue.png,left_orange.png,q,60ef1280d72bd6dd52ad6006,001,2021-07-18_16h16.15.245,arrow_simon_norep,2021.1.2,Win32,60.0240096,,,,,,,,,,,,,,,,,,,,,q,1,2.03,TRUE,FALSE,12,1,49,3,1,,,,,,,
,,,,,,1,2.234163567,#a3d0fb,,left_blue.png,w,,,,,,w,left_blue.png,left_orange.png,q,60ef1280d72bd6dd52ad6006,001,2021-07-18_16h16.15.245,arrow_simon_norep,2021.1.2,Win32,60.0240096,,,,,,,,,,,,,,,,,,,,,q,0,1.765,TRUE,FALSE,12,2,50,3,1,,,,,,,
,,,,,,1,1.632894082,#f3af84,,right_orange.png,p,,,,,,o,right_blue.png,right_orange.png,p,60ef1280d72bd6dd52ad6006,001,2021-07-18_16h16.15.245,arrow_simon_norep,2021.1.2,Win32,60.0240096,,,,,,,,,,,,,,,,,,,,,w,0,1.431,FALSE,FALSE,12,3,51,1,1,,,,,,,
,,,,,,1,2.110250307,#a3d0fb,,right_blue.png,o,,,,,,o,right_blue.png,right_orange.png,p,60ef1280d72bd6dd52ad6006,001,2021-07-18_16h16.15.245,arrow_simon_norep,2021.1.2,Win32,60.0240096,,,,,,,,,,,,,,,,,,,,,w,0,1.731,TRUE,FALSE,13,0,52,0,1,,,,,,,
,,,,,,1,2.05374596,#f3af84,,right_orange.png,p,,,,,,o,right_blue.png,right_orange.png,p,60ef1280d72bd6dd52ad6006,001,2021-07-18_16h16.15.245,arrow_simon_norep,2021.1.2,Win32,60.0240096,,,,,,,,,,,,,,,,,,,,,q,0,1.634,TRUE,FALSE,13,1,53,0,1,,,,,,,
,,,,,,1,1.502313756,#a3d0fb,,right_blue.png,o,,,,,,o,right_blue.png,right_orange.png,p,60ef1280d72bd6dd52ad6006,001,2021-07-18_16h16.15.245,arrow_simon_norep,2021.1.2,Win32,60.0240096,,,,,,,,,,,,,,,,,,,,,w,0,1.299,FALSE,TRUE,13,2,54,1,1,,,,,,,
,,,,,,1,2.203574102,#f3af84,,left_orange.png,q,,,,,,w,left_blue.png,left_orange.png,q,60ef1280d72bd6dd52ad6006,001,2021-07-18_16h16.15.245,arrow_simon_norep,2021.1.2,Win32,60.0240096,,,,,,,,,,,,,,,,,,,,,w,0,1.834,TRUE,FALSE,13,3,55,3,1,,,,,,,
,,,,,,1,2.025558879,#a3d0fb,,right_blue.png,o,,,,,,o,right_blue.png,right_orange.png,p,60ef1280d72bd6dd52ad6006,001,2021-07-18_16h16.15.245,arrow_simon_norep,2021.1.2,Win32,60.0240096,,,,,,,,,,,,,,,,,,,,,p,0,0.832,FALSE,TRUE,14,0,56,1,1,,,,,,,
,,,,,,1,1.552553438,#f3af84,,left_orange.png,q,,,,,,w,left_blue.png,left_orange.png,q,60ef1280d72bd6dd52ad6006,001,2021-07-18_16h16.15.245,arrow_simon_norep,2021.1.2,Win32,60.0240096,,,,,,,,,,,,,,,,,,,,,q,1,1.169,FALSE,TRUE,14,1,57,2,1,,,,,,,
,,,,,,1,2.473768273,#a3d0fb,,right_blue.png,o,,,,,,o,right_blue.png,right_orange.png,p,60ef1280d72bd6dd52ad6006,001,2021-07-18_16h16.15.245,arrow_simon_norep,2021.1.2,Win32,60.0240096,,,,,,,,,,,,,,,,,,,,,o,1,1.966,TRUE,FALSE,14,2,58,1,1,,,,,,,
,,,,,,1,1.632098343,#f3af84,,right_orange.png,p,,,,,,o,right_blue.png,right_orange.png,p,60ef1280d72bd6dd52ad6006,001,2021-07-18_16h16.15.245,arrow_simon_norep,2021.1.2,Win32,60.0240096,,,,,,,,,,,,,,,,,,,,,p,1,1.283,FALSE,TRUE,14,3,59,1,1,,,,,,,
,,,,,,,,,,,,,,,,,,,,,60ef1280d72bd6dd52ad6006,001,2021-07-18_16h16.15.245,arrow_simon_norep,2021.1.2,Win32,60.0240096,,,,,,,,,,,,,,,,,,,,,,,,,,,,,,,space,55.185,3,0,3,0,1
,,,,,,1,1.694387251,#a3d0fb,,left_blue.png,w,,,,,,w,left_blue.png,left_orange.png,q,60ef1280d72bd6dd52ad6006,001,2021-07-18_16h16.15.245,arrow_simon_norep,2021.1.2,Win32,60.0240096,,,,,,,,,,,,,,,,,,,,,w,1,1.631,TRUE,FALSE,0,0,0,3,1,,,,,,,
,,,,,,1,2.160976616,#f3af84,,left_orange.png,q,,,,,,w,left_blue.png,left_orange.png,q,60ef1280d72bd6dd52ad6006,001,2021-07-18_16h16.15.245,arrow_simon_norep,2021.1.2,Win32,60.0240096,,,,,,,,,,,,,,,,,,,,,w,0,1.766,TRUE,FALSE,0,1,1,3,1,,,,,,,
,,,,,,1,1.982468042,#a3d0fb,,left_blue.png,w,,,,,,w,left_blue.png,left_orange.png,q,60ef1280d72bd6dd52ad6006,001,2021-07-18_16h16.15.245,arrow_simon_norep,2021.1.2,Win32,60.0240096,,,,,,,,,,,,,,,,,,,,,q,0,1.567,FALSE,FALSE,0,2,2,3,1,,,,,,,
,,,,,,1,1.725086004,#f3af84,,right_orange.png,p,,,,,,o,right_blue.png,right_orange.png,p,60ef1280d72bd6dd52ad6006,001,2021-07-18_16h16.15.245,arrow_simon_norep,2021.1.2,Win32,60.0240096,,,,,,,,,,,,,,,,,,,,,q,0,1.329,FALSE,TRUE,0,3,3,0,1,,,,,,,
,,,,,,0,1.913127187,#a3d0fb,,left_blue.png,w,,,,,,w,left_blue.png,left_orange.png,q,60ef1280d72bd6dd52ad6006,001,2021-07-18_16h16.15.245,arrow_simon_norep,2021.1.2,Win32,60.0240096,,,,,,,,,,,,,,,,,,,,,w,1,1.501,FALSE,FALSE,1,0,4,3,1,,,,,,,
,,,,,,0,1.611369452,#f3af84,,right_orange.png,p,,,,,,o,right_blue.png,right_orange.png,p,60ef1280d72bd6dd52ad6006,001,2021-07-18_16h16.15.245,arrow_simon_norep,2021.1.2,Win32,60.0240096,,,,,,,,,,,,,,,,,,,,,q,0,1.349,FALSE,TRUE,1,1,5,0,1,,,,,,,
