instruct_resp_simon.keys,instruct_resp_simon.corr,instruct_resp_simon.rt,trial_resp_simon.keys,trial_resp_simon.corr,trial_resp_simon.rt,kerr,target_onset,target_color,target_pos,target_file,target_resp,trials_train_simon.thisRepN,trials_train_simon.thisTrialN,trials_train_simon.thisN,trials_train_simon.thisIndex,trials_train_simon.ran,odd_target_resp,odd_target_file,even_target_file,even_target_resp,target_side,participant,session,date,expName,psychopyVersion,OS,frameRate,train_block_note_resp.keys,train_block_note_resp.rt,blocks_train.thisRepN,blocks_train.thisTrialN,blocks_train.thisN,blocks_train.thisIndex,blocks_train.ran,instruct_resp_timing.keys,instruct_resp_timing.corr,instruct_resp_timing.rt,trial_resp_timing.keys,trial_resp_timing.rt,trials_train_timing.thisRepN,trials_train_timing.thisTrialN,trials_train_timing.thisN,trials_train_timing.thisIndex,trials_train_timing.ran,instruct_resp.keys,instruct_resp.corr,instruct_resp.rt,trial_resp.keys,trial_resp.corr,trial_resp.rt,trial_num,too_slow,too_soon,trials.thisRepN,trials.thisTrialN,trials.thisN,trials.thisIndex,trials.ran,block_note_resp.keys,block_note_resp.rt,blocks.thisRepN,blocks.thisTrialN,blocks.thisN,blocks.thisIndex,blocks.ran
space,0,40.6134,o,1,2.223,0,0.219659503,#a3d0fb,,right_blue.png,o,0,0,0,0,1,o,right_blue.png,right_orange.png,p,left,60fc740c94213cac18d96f10,001,2021-08-01_14h07.43.315,arrow_simon_norep,2021.1.2,Win32,60.04563468,,,,,,,,,,,,,,,,,,,,,,,,,,,,,,,,,,,,,,
,,,o,0,2.2733,1,0.270939045,#f3af84,,right_orange.png,p,0,1,1,0,1,o,right_blue.png,right_orange.png,p,left,60fc740c94213cac18d96f10,001,2021-08-01_14h07.43.315,arrow_simon_norep,2021.1.2,Win32,60.04563468,,,,,,,,,,,,,,,,,,,,,,,,,,,,,,,,,,,,,,
,,,o,1,1.7072,0,0.656892204,#a3d0fb,,right_blue.png,o,0,2,2,1,1,o,right_blue.png,right_orange.png,p,right,60fc740c94213cac18d96f10,001,2021-08-01_14h07.43.315,arrow_simon_norep,2021.1.2,Win32,60.04563468,,,,,,,,,,,,,,,,,,,,,,,,,,,,,,,,,,,,,,
,,,w,0,3.3629,1,0.426911798,#f3af84,,left_orange.png,q,0,3,3,3,1,w,left_blue.png,left_orange.png,q,right,60fc740c94213cac18d96f10,001,2021-08-01_14h07.43.315,arrow_simon_norep,2021.1.2,Win32,60.04563468,,,,,,,,,,,,,,,,,,,,,,,,,,,,,,,,,,,,,,
,,,o,0,1.3238,1,0.462114969,#a3d0fb,,left_blue.png,w,1,0,4,3,1,w,left_blue.png,left_orange.png,q,right,60fc740c94213cac18d96f10,001,2021-08-01_14h07.43.315,arrow_simon_norep,2021.1.2,Win32,60.04563468,,,,,,,,,,,,,,,,,,,,,,,,,,,,,,,,,,,,,,
,,,w,0,5.8107,1,0.661664082,#f3af84,,left_orange.png,q,1,1,5,2,1,w,left_blue.png,left_orange.png,q,left,60fc740c94213cac18d96f10,001,2021-08-01_14h07.43.315,arrow_simon_norep,2021.1.2,Win32,60.04563468,,,,,,,,,,,,,,,,,,,,,,,,,,,,,,,,,,,,,,
,,,w,1,1.6198,0,0.533066943,#a3d0fb,,left_blue.png,w,1,2,6,3,1,w,left_blue.png,left_orange.png,q,right,60fc740c94213cac18d96f10,001,2021-08-01_14h07.43.315,arrow_simon_norep,2021.1.2,Win32,60.04563468,,,,,,,,,,,,,,,,,,,,,,,,,,,,,,,,,,,,,,
,,,w,0,1.339,1,0.300235501,#f3af84,,right_orange.png,p,1,3,7,1,1,o,right_blue.png,right_orange.png,p,right,60fc740c94213cac18d96f10,001,2021-08-01_14h07.43.315,arrow_simon_norep,2021.1.2,Win32,60.04563468,,,,,,,,,,,,,,,,,,,,,,,,,,,,,,,,,,,,,,
,,,o,0,0.5928,1,0.030690753,#a3d0fb,,left_blue.png,w,2,0,8,3,1,w,left_blue.png,left_orange.png,q,right,60fc740c94213cac18d96f10,001,2021-08-01_14h07.43.315,arrow_simon_norep,2021.1.2,Win32,60.04563468,,,,,,,,,,,,,,,,,,,,,,,,,,,,,,,,,,,,,,
,,,w,0,0.9393,1,0.165319729,#f3af84,,left_orange.png,q,2,1,9,3,1,w,left_blue.png,left_orange.png,q,right,60fc740c94213cac18d96f10,001,2021-08-01_14h07.43.315,arrow_simon_norep,2021.1.2,Win32,60.04563468,,,,,,,,,,,,,,,,,,,,,,,,,,,,,,,,,,,,,,
,,,o,0,0.584,1,0.088131305,#a3d0fb,,left_blue.png,w,2,2,10,3,1,w,left_blue.png,left_orange.png,q,right,60fc740c94213cac18d96f10,001,2021-08-01_14h07.43.315,arrow_simon_norep,2021.1.2,Win32,60.04563468,,,,,,,,,,,,,,,,,,,,,,,,,,,,,,,,,,,,,,
,,,w,0,0.0135,1,0.737645762,#f3af84,,right_orange.png,p,2,3,11,1,1,o,right_blue.png,right_orange.png,p,right,60fc740c94213cac18d96f10,001,2021-08-01_14h07.43.315,arrow_simon_norep,2021.1.2,Win32,60.04563468,,,,,,,,,,,,,,,,,,,,,,,,,,,,,,,,,,,,,,
,,,w,1,1.7237,0,0.890223253,#a3d0fb,,left_blue.png,w,3,0,12,2,1,w,left_blue.png,left_orange.png,q,left,60fc740c94213cac18d96f10,001,2021-08-01_14h07.43.315,arrow_simon_norep,2021.1.2,Win32,60.04563468,,,,,,,,,,,,,,,,,,,,,,,,,,,,,,,,,,,,,,
,,,w,0,1.3954,1,0.787385897,#f3af84,,left_orange.png,q,3,1,13,2,1,w,left_blue.png,left_orange.png,q,left,60fc740c94213cac18d96f10,001,2021-08-01_14h07.43.315,arrow_simon_norep,2021.1.2,Win32,60.04563468,,,,,,,,,,,,,,,,,,,,,,,,,,,,,,,,,,,,,,
,,,o,0,0.8551,1,0.084783178,#a3d0fb,,left_blue.png,w,3,2,14,3,1,w,left_blue.png,left_orange.png,q,right,60fc740c94213cac18d96f10,001,2021-08-01_14h07.43.315,arrow_simon_norep,2021.1.2,Win32,60.04563468,,,,,,,,,,,,,,,,,,,,,,,,,,,,,,,,,,,,,,
,,,o,0,1.7764,1,0.991974745,#f3af84,,right_orange.png,p,3,3,15,1,1,o,right_blue.png,right_orange.png,p,right,60fc740c94213cac18d96f10,001,2021-08-01_14h07.43.315,arrow_simon_norep,2021.1.2,Win32,60.04563468,,,,,,,,,,,,,,,,,,,,,,,,,,,,,,,,,,,,,,
,,,w,1,0.7987,0,0.232575987,#a3d0fb,,left_blue.png,w,4,0,16,3,1,w,left_blue.png,left_orange.png,q,right,60fc740c94213cac18d96f10,001,2021-08-01_14h07.43.315,arrow_simon_norep,2021.1.2,Win32,60.04563468,,,,,,,,,,,,,,,,,,,,,,,,,,,,,,,,,,,,,,
,,,p,1,12.9639,0,0.351364222,#f3af84,,right_orange.png,p,4,1,17,1,1,o,right_blue.png,right_orange.png,p,right,60fc740c94213cac18d96f10,001,2021-08-01_14h07.43.315,arrow_simon_norep,2021.1.2,Win32,60.04563468,,,,,,,,,,,,,,,,,,,,,,,,,,,,,,,,,,,,,,
,,,o,1,2.5729,0,0.289644977,#a3d0fb,,right_blue.png,o,4,2,18,1,1,o,right_blue.png,right_orange.png,p,right,60fc740c94213cac18d96f10,001,2021-08-01_14h07.43.315,arrow_simon_norep,2021.1.2,Win32,60.04563468,,,,,,,,,,,,,,,,,,,,,,,,,,,,,,,,,,,,,,
,,,q,1,1.3028,0,0.32177752,#f3af84,,left_orange.png,q,4,3,19,2,1,w,left_blue.png,left_orange.png,q,left,60fc740c94213cac18d96f10,001,2021-08-01_14h07.43.315,arrow_simon_norep,2021.1.2,Win32,60.04563468,,,,,,,,,,,,,,,,,,,,,,,,,,,,,,,,,,,,,,
,,,w,1,1.3416,0,0.266488952,#a3d0fb,,left_blue.png,w,5,0,20,3,1,w,left_blue.png,left_orange.png,q,right,60fc740c94213cac18d96f10,001,2021-08-01_14h07.43.315,arrow_simon_norep,2021.1.2,Win32,60.04563468,,,,,,,,,,,,,,,,,,,,,,,,,,,,,,,,,,,,,,
,,,p,1,1.9124,0,0.859516915,#f3af84,,right_orange.png,p,5,1,21,0,1,o,right_blue.png,right_orange.png,p,left,60fc740c94213cac18d96f10,001,2021-08-01_14h07.43.315,arrow_simon_norep,2021.1.2,Win32,60.04563468,,,,,,,,,,,,,,,,,,,,,,,,,,,,,,,,,,,,,,
,,,w,1,2.6305,0,0.94781076,#a3d0fb,,left_blue.png,w,5,2,22,2,1,w,left_blue.png,left_orange.png,q,left,60fc740c94213cac18d96f10,001,2021-08-01_14h07.43.315,arrow_simon_norep,2021.1.2,Win32,60.04563468,,,,,,,,,,,,,,,,,,,,,,,,,,,,,,,,,,,,,,
,,,p,1,1.8999,0,0.765960155,#f3af84,,right_orange.png,p,5,3,23,1,1,o,right_blue.png,right_orange.png,p,right,60fc740c94213cac18d96f10,001,2021-08-01_14h07.43.315,arrow_simon_norep,2021.1.2,Win32,60.04563468,,,,,,,,,,,,,,,,,,,,,,,,,,,,,,,,,,,,,,
,,,w,0,1.4399,1,0.651131252,#a3d0fb,,right_blue.png,o,6,0,24,0,1,o,right_blue.png,right_orange.png,p,left,60fc740c94213cac18d96f10,001,2021-08-01_14h07.43.315,arrow_simon_norep,2021.1.2,Win32,60.04563468,,,,,,,,,,,,,,,,,,,,,,,,,,,,,,,,,,,,,,
,,,p,1,2.9771,0,0.014644177,#f3af84,,right_orange.png,p,6,1,25,0,1,o,right_blue.png,right_orange.png,p,left,60fc740c94213cac18d96f10,001,2021-08-01_14h07.43.315,arrow_simon_norep,2021.1.2,Win32,60.04563468,,,,,,,,,,,,,,,,,,,,,,,,,,,,,,,,,,,,,,
,,,w,0,0.7014,1,0.070234183,#a3d0fb,,right_blue.png,o,6,2,26,0,1,o,right_blue.png,right_orange.png,p,left,60fc740c94213cac18d96f10,001,2021-08-01_14h07.43.315,arrow_simon_norep,2021.1.2,Win32,60.04563468,,,,,,,,,,,,,,,,,,,,,,,,,,,,,,,,,,,,,,
,,,q,1,1.9216,0,0.782604604,#f3af84,,left_orange.png,q,6,3,27,2,1,w,left_blue.png,left_orange.png,q,left,60fc740c94213cac18d96f10,001,2021-08-01_14h07.43.315,arrow_simon_norep,2021.1.2,Win32,60.04563468,,,,,,,,,,,,,,,,,,,,,,,,,,,,,,,,,,,,,,
,,,o,1,1.7994,0,0.487008409,#a3d0fb,,right_blue.png,o,7,0,28,0,1,o,right_blue.png,right_orange.png,p,left,60fc740c94213cac18d96f10,001,2021-08-01_14h07.43.315,arrow_simon_norep,2021.1.2,Win32,60.04563468,,,,,,,,,,,,,,,,,,,,,,,,,,,,,,,,,,,,,,
,,,w,0,2.3685,1,0.714506588,#f3af84,,right_orange.png,p,7,1,29,0,1,o,right_blue.png,right_orange.png,p,left,60fc740c94213cac18d96f10,001,2021-08-01_14h07.43.315,arrow_simon_norep,2021.1.2,Win32,60.04563468,,,,,,,,,,,,,,,,,,,,,,,,,,,,,,,,,,,,,,
,,,o,1,2.9364,0,0.690727036,#a3d0fb,,right_blue.png,o,7,2,30,0,1,o,right_blue.png,right_orange.png,p,left,60fc740c94213cac18d96f10,001,2021-08-01_14h07.43.315,arrow_simon_norep,2021.1.2,Win32,60.04563468,,,,,,,,,,,,,,,,,,,,,,,,,,,,,,,,,,,,,,
,,,q,1,2.074,0,0.746704292,#f3af84,,left_orange.png,q,7,3,31,2,1,w,left_blue.png,left_orange.png,q,left,60fc740c94213cac18d96f10,001,2021-08-01_14h07.43.315,arrow_simon_norep,2021.1.2,Win32,60.04563468,,,,,,,,,,,,,,,,,,,,,,,,,,,,,,,,,,,,,,
,,,w,1,1.1398,0,0.564394968,#a3d0fb,,left_blue.png,w,8,0,32,2,1,w,left_blue.png,left_orange.png,q,left,60fc740c94213cac18d96f10,001,2021-08-01_14h07.43.315,arrow_simon_norep,2021.1.2,Win32,60.04563468,,,,,,,,,,,,,,,,,,,,,,,,,,,,,,,,,,,,,,
,,,q,1,1.6504,0,0.821137742,#f3af84,,left_orange.png,q,8,1,33,3,1,w,left_blue.png,left_orange.png,q,right,60fc740c94213cac18d96f10,001,2021-08-01_14h07.43.315,arrow_simon_norep,2021.1.2,Win32,60.04563468,,,,,,,,,,,,,,,,,,,,,,,,,,,,,,,,,,,,,,
,,,p,0,1.5517,1,0.878826489,#a3d0fb,,right_blue.png,o,8,2,34,1,1,o,right_blue.png,right_orange.png,p,right,60fc740c94213cac18d96f10,001,2021-08-01_14h07.43.315,arrow_simon_norep,2021.1.2,Win32,60.04563468,,,,,,,,,,,,,,,,,,,,,,,,,,,,,,,,,,,,,,
,,,q,1,2.3802,0,0.690489288,#f3af84,,left_orange.png,q,8,3,35,2,1,w,left_blue.png,left_orange.png,q,left,60fc740c94213cac18d96f10,001,2021-08-01_14h07.43.315,arrow_simon_norep,2021.1.2,Win32,60.04563468,,,,,,,,,,,,,,,,,,,,,,,,,,,,,,,,,,,,,,
,,,o,1,1.0925,0,0.618525053,#a3d0fb,,right_blue.png,o,9,0,36,1,1,o,right_blue.png,right_orange.png,p,right,60fc740c94213cac18d96f10,001,2021-08-01_14h07.43.315,arrow_simon_norep,2021.1.2,Win32,60.04563468,,,,,,,,,,,,,,,,,,,,,,,,,,,,,,,,,,,,,,
,,,q,1,1.3869,0,0.240728619,#f3af84,,left_orange.png,q,9,1,37,3,1,w,left_blue.png,left_orange.png,q,right,60fc740c94213cac18d96f10,001,2021-08-01_14h07.43.315,arrow_simon_norep,2021.1.2,Win32,60.04563468,,,,,,,,,,,,,,,,,,,,,,,,,,,,,,,,,,,,,,
,,,o,1,2.7348,0,0.725901781,#a3d0fb,,right_blue.png,o,9,2,38,1,1,o,right_blue.png,right_orange.png,p,right,60fc740c94213cac18d96f10,001,2021-08-01_14h07.43.315,arrow_simon_norep,2021.1.2,Win32,60.04563468,,,,,,,,,,,,,,,,,,,,,,,,,,,,,,,,,,,,,,
,,,q,1,1.0002,0,0.343311886,#f3af84,,left_orange.png,q,9,3,39,2,1,w,left_blue.png,left_orange.png,q,left,60fc740c94213cac18d96f10,001,2021-08-01_14h07.43.315,arrow_simon_norep,2021.1.2,Win32,60.04563468,,,,,,,,,,,,,,,,,,,,,,,,,,,,,,,,,,,,,,
,,,o,1,2.0709,0,0.542790241,#a3d0fb,,right_blue.png,o,10,0,40,0,1,o,right_blue.png,right_orange.png,p,left,60fc740c94213cac18d96f10,001,2021-08-01_14h07.43.315,arrow_simon_norep,2021.1.2,Win32,60.04563468,,,,,,,,,,,,,,,,,,,,,,,,,,,,,,,,,,,,,,
,,,q,1,1.6815,0,0.744062084,#f3af84,,left_orange.png,q,10,1,41,3,1,w,left_blue.png,left_orange.png,q,right,60fc740c94213cac18d96f10,001,2021-08-01_14h07.43.315,arrow_simon_norep,2021.1.2,Win32,60.04563468,,,,,,,,,,,,,,,,,,,,,,,,,,,,,,,,,,,,,,
,,,w,0,1.6362,1,0.887435611,#a3d0fb,,right_blue.png,o,10,2,42,0,1,o,right_blue.png,right_orange.png,p,left,60fc740c94213cac18d96f10,001,2021-08-01_14h07.43.315,arrow_simon_norep,2021.1.2,Win32,60.04563468,,,,,,,,,,,,,,,,,,,,,,,,,,,,,,,,,,,,,,
,,,p,1,2.0158,0,0.304571858,#f3af84,,right_orange.png,p,10,3,43,1,1,o,right_blue.png,right_orange.png,p,right,60fc740c94213cac18d96f10,001,2021-08-01_14h07.43.315,arrow_simon_norep,2021.1.2,Win32,60.04563468,,,,,,,,,,,,,,,,,,,,,,,,,,,,,,,,,,,,,,
,,,w,1,1.7656,0,0.990804662,#a3d0fb,,left_blue.png,w,11,0,44,2,1,w,left_blue.png,left_orange.png,q,left,60fc740c94213cac18d96f10,001,2021-08-01_14h07.43.315,arrow_simon_norep,2021.1.2,Win32,60.04563468,,,,,,,,,,,,,,,,,,,,,,,,,,,,,,,,,,,,,,
,,,q,1,1.5165,0,0.655907837,#f3af84,,left_orange.png,q,11,1,45,2,1,w,left_blue.png,left_orange.png,q,left,60fc740c94213cac18d96f10,001,2021-08-01_14h07.43.315,arrow_simon_norep,2021.1.2,Win32,60.04563468,,,,,,,,,,,,,,,,,,,,,,,,,,,,,,,,,,,,,,
,,,o,1,1.4643,0,0.774391991,#a3d0fb,,right_blue.png,o,11,2,46,1,1,o,right_blue.png,right_orange.png,p,right,60fc740c94213cac18d96f10,001,2021-08-01_14h07.43.315,arrow_simon_norep,2021.1.2,Win32,60.04563468,,,,,,,,,,,,,,,,,,,,,,,,,,,,,,,,,,,,,,
,,,p,1,1.9296,0,0.989254758,#f3af84,,right_orange.png,p,11,3,47,0,1,o,right_blue.png,right_orange.png,p,left,60fc740c94213cac18d96f10,001,2021-08-01_14h07.43.315,arrow_simon_norep,2021.1.2,Win32,60.04563468,,,,,,,,,,,,,,,,,,,,,,,,,,,,,,,,,,,,,,
,,,w,0,1.5361,1,0.849880656,#a3d0fb,,right_blue.png,o,12,0,48,0,1,o,right_blue.png,right_orange.png,p,left,60fc740c94213cac18d96f10,001,2021-08-01_14h07.43.315,arrow_simon_norep,2021.1.2,Win32,60.04563468,,,,,,,,,,,,,,,,,,,,,,,,,,,,,,,,,,,,,,
,,,q,1,2.4393,0,0.958273342,#f3af84,,left_orange.png,q,12,1,49,3,1,w,left_blue.png,left_orange.png,q,right,60fc740c94213cac18d96f10,001,2021-08-01_14h07.43.315,arrow_simon_norep,2021.1.2,Win32,60.04563468,,,,,,,,,,,,,,,,,,,,,,,,,,,,,,,,,,,,,,
,,,o,1,1.2127,0,0.23816831,#a3d0fb,,right_blue.png,o,12,2,50,1,1,o,right_blue.png,right_orange.png,p,right,60fc740c94213cac18d96f10,001,2021-08-01_14h07.43.315,arrow_simon_norep,2021.1.2,Win32,60.04563468,,,,,,,,,,,,,,,,,,,,,,,,,,,,,,,,,,,,,,
,,,w,0,1.9151,1,0.992053421,#f3af84,,right_orange.png,p,12,3,51,0,1,o,right_blue.png,right_orange.png,p,left,60fc740c94213cac18d96f10,001,2021-08-01_14h07.43.315,arrow_simon_norep,2021.1.2,Win32,60.04563468,,,,,,,,,,,,,,,,,,,,,,,,,,,,,,,,,,,,,,
,,,o,1,2.3561,0,0.947533077,#a3d0fb,,right_blue.png,o,13,0,52,1,1,o,right_blue.png,right_orange.png,p,right,60fc740c94213cac18d96f10,001,2021-08-01_14h07.43.315,arrow_simon_norep,2021.1.2,Win32,60.04563468,,,,,,,,,,,,,,,,,,,,,,,,,,,,,,,,,,,,,,
,,,q,1,0.8377,0,0.112592189,#f3af84,,left_orange.png,q,13,1,53,2,1,w,left_blue.png,left_orange.png,q,left,60fc740c94213cac18d96f10,001,2021-08-01_14h07.43.315,arrow_simon_norep,2021.1.2,Win32,60.04563468,,,,,,,,,,,,,,,,,,,,,,,,,,,,,,,,,,,,,,
,,,w,1,1.4149,0,0.185322479,#a3d0fb,,left_blue.png,w,13,2,54,3,1,w,left_blue.png,left_orange.png,q,right,60fc740c94213cac18d96f10,001,2021-08-01_14h07.43.315,arrow_simon_norep,2021.1.2,Win32,60.04563468,,,,,,,,,,,,,,,,,,,,,,,,,,,,,,,,,,,,,,
,,,p,1,1.2557,0,0.285340183,#f3af84,,right_orange.png,p,13,3,55,1,1,o,right_blue.png,right_orange.png,p,right,60fc740c94213cac18d96f10,001,2021-08-01_14h07.43.315,arrow_simon_norep,2021.1.2,Win32,60.04563468,,,,,,,,,,,,,,,,,,,,,,,,,,,,,,,,,,,,,,
,,,o,0,1.1635,1,0.637835092,#a3d0fb,,left_blue.png,w,14,0,56,3,1,w,left_blue.png,left_orange.png,q,right,60fc740c94213cac18d96f10,001,2021-08-01_14h07.43.315,arrow_simon_norep,2021.1.2,Win32,60.04563468,,,,,,,,,,,,,,,,,,,,,,,,,,,,,,,,,,,,,,
,,,q,1,2.0191,0,0.993812416,#f3af84,,left_orange.png,q,14,1,57,2,1,w,left_blue.png,left_orange.png,q,left,60fc740c94213cac18d96f10,001,2021-08-01_14h07.43.315,arrow_simon_norep,2021.1.2,Win32,60.04563468,,,,,,,,,,,,,,,,,,,,,,,,,,,,,,,,,,,,,,
,,,o,1,1.6047,0,0.375347775,#a3d0fb,,right_blue.png,o,14,2,58,0,1,o,right_blue.png,right_orange.png,p,left,60fc740c94213cac18d96f10,001,2021-08-01_14h07.43.315,arrow_simon_norep,2021.1.2,Win32,60.04563468,,,,,,,,,,,,,,,,,,,,,,,,,,,,,,,,,,,,,,
,,,q,1,1.1829,0,0.437594589,#f3af84,,left_orange.png,q,14,3,59,2,1,w,left_blue.png,left_orange.png,q,left,60fc740c94213cac18d96f10,001,2021-08-01_14h07.43.315,arrow_simon_norep,2021.1.2,Win32,60.04563468,,,,,,,,,,,,,,,,,,,,,,,,,,,,,,,,,,,,,,
,,,,,,,,,,,,,,,,,,,,,,60fc740c94213cac18d96f10,001,2021-08-01_14h07.43.315,arrow_simon_norep,2021.1.2,Win32,60.04563468,space,22.8065,0,0,0,0,1,,,,,,,,,,,,,,,,,,,,,,,,,,,,,,,
,,,p,0,1.386,1,0.633380728,#a3d0fb,,right_blue.png,o,0,0,0,1,1,o,right_blue.png,right_orange.png,p,right,60fc740c94213cac18d96f10,001,2021-08-01_14h07.43.315,arrow_simon_norep,2021.1.2,Win32,60.04563468,,,,,,,,,,,,,,,,,,,,,,,,,,,,,,,,,,,,,,
,,,q,1,3.7295,0,0.25593154,#f3af84,,left_orange.png,q,0,1,1,2,1,w,left_blue.png,left_orange.png,q,left,60fc740c94213cac18d96f10,001,2021-08-01_14h07.43.315,arrow_simon_norep,2021.1.2,Win32,60.04563468,,,,,,,,,,,,,,,,,,,,,,,,,,,,,,,,,,,,,,
,,,o,1,1.7389,0,0.333726256,#a3d0fb,,right_blue.png,o,0,2,2,1,1,o,right_blue.png,right_orange.png,p,right,60fc740c94213cac18d96f10,001,2021-08-01_14h07.43.315,arrow_simon_norep,2021.1.2,Win32,60.04563468,,,,,,,,,,,,,,,,,,,,,,,,,,,,,,,,,,,,,,
,,,q,1,2.164,0,0.536283347,#f3af84,,left_orange.png,q,0,3,3,2,1,w,left_blue.png,left_orange.png,q,left,60fc740c94213cac18d96f10,001,2021-08-01_14h07.43.315,arrow_simon_norep,2021.1.2,Win32,60.04563468,,,,,,,,,,,,,,,,,,,,,,,,,,,,,,,,,,,,,,
,,,q,0,0.7452,1,0.084299887,#a3d0fb,,left_blue.png,w,1,0,4,2,1,w,left_blue.png,left_orange.png,q,left,60fc740c94213cac18d96f10,001,2021-08-01_14h07.43.315,arrow_simon_norep,2021.1.2,Win32,60.04563468,,,,,,,,,,,,,,,,,,,,,,,,,,,,,,,,,,,,,,
,,,p,1,0.7428,0,0.308831736,#f3af84,,right_orange.png,p,1,1,5,1,1,o,right_blue.png,right_orange.png,p,right,60fc740c94213cac18d96f10,001,2021-08-01_14h07.43.315,arrow_simon_norep,2021.1.2,Win32,60.04563468,,,,,,,,,,,,,,,,,,,,,,,,,,,,,,,,,,,,,,
,,,o,0,1.5495,1,0.927426311,#a3d0fb,,left_blue.png,w,1,2,6,3,1,w,left_blue.png,left_orange.png,q,right,60fc740c94213cac18d96f10,001,2021-08-01_14h07.43.315,arrow_simon_norep,2021.1.2,Win32,60.04563468,,,,,,,,,,,,,,,,,,,,,,,,,,,,,,,,,,,,,,
,,,q,1,2.0349,0,0.381715867,#f3af84,,left_orange.png,q,1,3,7,3,1,w,left_blue.png,left_orange.png,q,right,60fc740c94213cac18d96f10,001,2021-08-01_14h07.43.315,arrow_simon_norep,2021.1.2,Win32,60.04563468,,,,,,,,,,,,,,,,,,,,,,,,,,,,,,,,,,,,,,
,,,o,1,1.7281,0,0.060041846,#a3d0fb,,right_blue.png,o,2,0,8,1,1,o,right_blue.png,right_orange.png,p,right,60fc740c94213cac18d96f10,001,2021-08-01_14h07.43.315,arrow_simon_norep,2021.1.2,Win32,60.04563468,,,,,,,,,,,,,,,,,,,,,,,,,,,,,,,,,,,,,,
,,,q,1,0.8997,0,0.034962375,#f3af84,,left_orange.png,q,2,1,9,2,1,w,left_blue.png,left_orange.png,q,left,60fc740c94213cac18d96f10,001,2021-08-01_14h07.43.315,arrow_simon_norep,2021.1.2,Win32,60.04563468,,,,,,,,,,,,,,,,,,,,,,,,,,,,,,,,,,,,,,
,,,w,1,1.2067,0,0.406814036,#a3d0fb,,left_blue.png,w,2,2,10,2,1,w,left_blue.png,left_orange.png,q,left,60fc740c94213cac18d96f10,001,2021-08-01_14h07.43.315,arrow_simon_norep,2021.1.2,Win32,60.04563468,,,,,,,,,,,,,,,,,,,,,,,,,,,,,,,,,,,,,,
,,,p,1,0.8704,0,0.231833929,#f3af84,,right_orange.png,p,2,3,11,1,1,o,right_blue.png,right_orange.png,p,right,60fc740c94213cac18d96f10,001,2021-08-01_14h07.43.315,arrow_simon_norep,2021.1.2,Win32,60.04563468,,,,,,,,,,,,,,,,,,,,,,,,,,,,,,,,,,,,,,
,,,o,1,2.0759,0,0.593725289,#a3d0fb,,right_blue.png,o,3,0,12,0,1,o,right_blue.png,right_orange.png,p,left,60fc740c94213cac18d96f10,001,2021-08-01_14h07.43.315,arrow_simon_norep,2021.1.2,Win32,60.04563468,,,,,,,,,,,,,,,,,,,,,,,,,,,,,,,,,,,,,,
,,,q,1,0.8744,0,0.040733142,#f3af84,,left_orange.png,q,3,1,13,2,1,w,left_blue.png,left_orange.png,q,left,60fc740c94213cac18d96f10,001,2021-08-01_14h07.43.315,arrow_simon_norep,2021.1.2,Win32,60.04563468,,,,,,,,,,,,,,,,,,,,,,,,,,,,,,,,,,,,,,
,,,w,1,1.6133,0,0.768234731,#a3d0fb,,left_blue.png,w,3,2,14,2,1,w,left_blue.png,left_orange.png,q,left,60fc740c94213cac18d96f10,001,2021-08-01_14h07.43.315,arrow_simon_norep,2021.1.2,Win32,60.04563468,,,,,,,,,,,,,,,,,,,,,,,,,,,,,,,,,,,,,,
,,,p,1,1.1483,0,0.680978036,#f3af84,,right_orange.png,p,3,3,15,1,1,o,right_blue.png,right_orange.png,p,right,60fc740c94213cac18d96f10,001,2021-08-01_14h07.43.315,arrow_simon_norep,2021.1.2,Win32,60.04563468,,,,,,,,,,,,,,,,,,,,,,,,,,,,,,,,,,,,,,
,,,o,1,2.0807,0,0.81767685,#a3d0fb,,right_blue.png,o,4,0,16,1,1,o,right_blue.png,right_orange.png,p,right,60fc740c94213cac18d96f10,001,2021-08-01_14h07.43.315,arrow_simon_norep,2021.1.2,Win32,60.04563468,,,,,,,,,,,,,,,,,,,,,,,,,,,,,,,,,,,,,,
,,,p,1,1.292,0,0.21616955,#f3af84,,right_orange.png,p,4,1,17,0,1,o,right_blue.png,right_orange.png,p,left,60fc740c94213cac18d96f10,001,2021-08-01_14h07.43.315,arrow_simon_norep,2021.1.2,Win32,60.04563468,,,,,,,,,,,,,,,,,,,,,,,,,,,,,,,,,,,,,,
,,,w,1,1.7218,0,0.45489544,#a3d0fb,,left_blue.png,w,4,2,18,3,1,w,left_blue.png,left_orange.png,q,right,60fc740c94213cac18d96f10,001,2021-08-01_14h07.43.315,arrow_simon_norep,2021.1.2,Win32,60.04563468,,,,,,,,,,,,,,,,,,,,,,,,,,,,,,,,,,,,,,
,,,p,1,1.5134,0,0.814625373,#f3af84,,right_orange.png,p,4,3,19,1,1,o,right_blue.png,right_orange.png,p,right,60fc740c94213cac18d96f10,001,2021-08-01_14h07.43.315,arrow_simon_norep,2021.1.2,Win32,60.04563468,,,,,,,,,,,,,,,,,,,,,,,,,,,,,,,,,,,,,,
,,,o,1,2.3299,0,0.748194096,#a3d0fb,,right_blue.png,o,5,0,20,0,1,o,right_blue.png,right_orange.png,p,left,60fc740c94213cac18d96f10,001,2021-08-01_14h07.43.315,arrow_simon_norep,2021.1.2,Win32,60.04563468,,,,,,,,,,,,,,,,,,,,,,,,,,,,,,,,,,,,,,
,,,q,1,1.5017,0,0.968398472,#f3af84,,left_orange.png,q,5,1,21,2,1,w,left_blue.png,left_orange.png,q,left,60fc740c94213cac18d96f10,001,2021-08-01_14h07.43.315,arrow_simon_norep,2021.1.2,Win32,60.04563468,,,,,,,,,,,,,,,,,,,,,,,,,,,,,,,,,,,,,,
,,,o,1,1.9993,0,0.815550248,#a3d0fb,,right_blue.png,o,5,2,22,0,1,o,right_blue.png,right_orange.png,p,left,60fc740c94213cac18d96f10,001,2021-08-01_14h07.43.315,arrow_simon_norep,2021.1.2,Win32,60.04563468,,,,,,,,,,,,,,,,,,,,,,,,,,,,,,,,,,,,,,
,,,q,1,1.0501,0,0.171775306,#f3af84,,left_orange.png,q,5,3,23,2,1,w,left_blue.png,left_orange.png,q,left,60fc740c94213cac18d96f10,001,2021-08-01_14h07.43.315,arrow_simon_norep,2021.1.2,Win32,60.04563468,,,,,,,,,,,,,,,,,,,,,,,,,,,,,,,,,,,,,,
,,,o,0,1.4316,1,0.736620683,#a3d0fb,,left_blue.png,w,6,0,24,3,1,w,left_blue.png,left_orange.png,q,right,60fc740c94213cac18d96f10,001,2021-08-01_14h07.43.315,arrow_simon_norep,2021.1.2,Win32,60.04563468,,,,,,,,,,,,,,,,,,,,,,,,,,,,,,,,,,,,,,
,,,p,1,1.8199,0,0.245058632,#f3af84,,right_orange.png,p,6,1,25,0,1,o,right_blue.png,right_orange.png,p,left,60fc740c94213cac18d96f10,001,2021-08-01_14h07.43.315,arrow_simon_norep,2021.1.2,Win32,60.04563468,,,,,,,,,,,,,,,,,,,,,,,,,,,,,,,,,,,,,,
,,,o,1,1.1647,0,0.077347168,#a3d0fb,,right_blue.png,o,6,2,26,1,1,o,right_blue.png,right_orange.png,p,right,60fc740c94213cac18d96f10,001,2021-08-01_14h07.43.315,arrow_simon_norep,2021.1.2,Win32,60.04563468,,,,,,,,,,,,,,,,,,,,,,,,,,,,,,,,,,,,,,
,,,q,1,0.8733,0,0.082628977,#f3af84,,left_orange.png,q,6,3,27,2,1,w,left_blue.png,left_orange.png,q,left,60fc740c94213cac18d96f10,001,2021-08-01_14h07.43.315,arrow_simon_norep,2021.1.2,Win32,60.04563468,,,,,,,,,,,,,,,,,,,,,,,,,,,,,,,,,,,,,,
,,,w,1,1.7796,0,0.749202229,#a3d0fb,,left_blue.png,w,7,0,28,3,1,w,left_blue.png,left_orange.png,q,right,60fc740c94213cac18d96f10,001,2021-08-01_14h07.43.315,arrow_simon_norep,2021.1.2,Win32,60.04563468,,,,,,,,,,,,,,,,,,,,,,,,,,,,,,,,,,,,,,
,,,p,1,1.2697,0,0.500190552,#f3af84,,right_orange.png,p,7,1,29,0,1,o,right_blue.png,right_orange.png,p,left,60fc740c94213cac18d96f10,001,2021-08-01_14h07.43.315,arrow_simon_norep,2021.1.2,Win32,60.04563468,,,,,,,,,,,,,,,,,,,,,,,,,,,,,,,,,,,,,,
,,,p,0,0.9391,1,0.353845907,#a3d0fb,,right_blue.png,o,7,2,30,1,1,o,right_blue.png,right_orange.png,p,right,60fc740c94213cac18d96f10,001,2021-08-01_14h07.43.315,arrow_simon_norep,2021.1.2,Win32,60.04563468,,,,,,,,,,,,,,,,,,,,,,,,,,,,,,,,,,,,,,
,,,p,1,1.5411,0,0.859486654,#f3af84,,right_orange.png,p,7,3,31,1,1,o,right_blue.png,right_orange.png,p,right,60fc740c94213cac18d96f10,001,2021-08-01_14h07.43.315,arrow_simon_norep,2021.1.2,Win32,60.04563468,,,,,,,,,,,,,,,,,,,,,,,,,,,,,,,,,,,,,,
,,,w,0,1.0376,1,0.386725488,#a3d0fb,,right_blue.png,o,8,0,32,0,1,o,right_blue.png,right_orange.png,p,left,60fc740c94213cac18d96f10,001,2021-08-01_14h07.43.315,arrow_simon_norep,2021.1.2,Win32,60.04563468,,,,,,,,,,,,,,,,,,,,,,,,,,,,,,,,,,,,,,
,,,o,0,1.4971,1,0.857391318,#f3af84,,left_orange.png,q,8,1,33,3,1,w,left_blue.png,left_orange.png,q,right,60fc740c94213cac18d96f10,001,2021-08-01_14h07.43.315,arrow_simon_norep,2021.1.2,Win32,60.04563468,,,,,,,,,,,,,,,,,,,,,,,,,,,,,,,,,,,,,,
,,,q,0,1.7934,1,0.728037221,#a3d0fb,,left_blue.png,w,8,2,34,2,1,w,left_blue.png,left_orange.png,q,left,60fc740c94213cac18d96f10,001,2021-08-01_14h07.43.315,arrow_simon_norep,2021.1.2,Win32,60.04563468,,,,,,,,,,,,,,,,,,,,,,,,,,,,,,,,,,,,,,
,,,p,1,2.7099,0,0.8951595,#f3af84,,right_orange.png,p,8,3,35,0,1,o,right_blue.png,right_orange.png,p,left,60fc740c94213cac18d96f10,001,2021-08-01_14h07.43.315,arrow_simon_norep,2021.1.2,Win32,60.04563468,,,,,,,,,,,,,,,,,,,,,,,,,,,,,,,,,,,,,,
,,,o,0,1.8636,1,0.464994263,#a3d0fb,,left_blue.png,w,9,0,36,3,1,w,left_blue.png,left_orange.png,q,right,60fc740c94213cac18d96f10,001,2021-08-01_14h07.43.315,arrow_simon_norep,2021.1.2,Win32,60.04563468,,,,,,,,,,,,,,,,,,,,,,,,,,,,,,,,,,,,,,
,,,o,0,1.2225,1,0.446953445,#f3af84,,left_orange.png,q,9,1,37,3,1,w,left_blue.png,left_orange.png,q,right,60fc740c94213cac18d96f10,001,2021-08-01_14h07.43.315,arrow_simon_norep,2021.1.2,Win32,60.04563468,,,,,,,,,,,,,,,,,,,,,,,,,,,,,,,,,,,,,,
,,,q,0,2.6525,1,0.954120797,#a3d0fb,,left_blue.png,w,9,2,38,2,1,w,left_blue.png,left_orange.png,q,left,60fc740c94213cac18d96f10,001,2021-08-01_14h07.43.315,arrow_simon_norep,2021.1.2,Win32,60.04563468,,,,,,,,,,,,,,,,,,,,,,,,,,,,,,,,,,,,,,
,,,o,0,2.4365,1,0.513065576,#f3af84,,right_orange.png,p,9,3,39,1,1,o,right_blue.png,right_orange.png,p,right,60fc740c94213cac18d96f10,001,2021-08-01_14h07.43.315,arrow_simon_norep,2021.1.2,Win32,60.04563468,,,,,,,,,,,,,,,,,,,,,,,,,,,,,,,,,,,,,,
,,,w,0,8.6813,1,0.822372816,#a3d0fb,,right_blue.png,o,10,0,40,0,1,o,right_blue.png,right_orange.png,p,left,60fc740c94213cac18d96f10,001,2021-08-01_14h07.43.315,arrow_simon_norep,2021.1.2,Win32,60.04563468,,,,,,,,,,,,,,,,,,,,,,,,,,,,,,,,,,,,,,
,,,p,1,1.3343,0,0.267754124,#f3af84,,right_orange.png,p,10,1,41,1,1,o,right_blue.png,right_orange.png,p,right,60fc740c94213cac18d96f10,001,2021-08-01_14h07.43.315,arrow_simon_norep,2021.1.2,Win32,60.04563468,,,,,,,,,,,,,,,,,,,,,,,,,,,,,,,,,,,,,,
,,,q,0,1.4708,1,0.780972327,#a3d0fb,,left_blue.png,w,10,2,42,2,1,w,left_blue.png,left_orange.png,q,left,60fc740c94213cac18d96f10,001,2021-08-01_14h07.43.315,arrow_simon_norep,2021.1.2,Win32,60.04563468,,,,,,,,,,,,,,,,,,,,,,,,,,,,,,,,,,,,,,
,,,p,1,2.8052,0,0.961562824,#f3af84,,right_orange.png,p,10,3,43,0,1,o,right_blue.png,right_orange.png,p,left,60fc740c94213cac18d96f10,001,2021-08-01_14h07.43.315,arrow_simon_norep,2021.1.2,Win32,60.04563468,,,,,,,,,,,,,,,,,,,,,,,,,,,,,,,,,,,,,,
,,,q,0,3.9123,1,0.833562714,#a3d0fb,,left_blue.png,w,11,0,44,2,1,w,left_blue.png,left_orange.png,q,left,60fc740c94213cac18d96f10,001,2021-08-01_14h07.43.315,arrow_simon_norep,2021.1.2,Win32,60.04563468,,,,,,,,,,,,,,,,,,,,,,,,,,,,,,,,,,,,,,
,,,o,0,1.3974,1,0.260734278,#f3af84,,right_orange.png,p,11,1,45,0,1,o,right_blue.png,right_orange.png,p,left,60fc740c94213cac18d96f10,001,2021-08-01_14h07.43.315,arrow_simon_norep,2021.1.2,Win32,60.04563468,,,,,,,,,,,,,,,,,,,,,,,,,,,,,,,,,,,,,,
,,,w,1,1.8831,0,0.0682329,#a3d0fb,,left_blue.png,w,11,2,46,2,1,w,left_blue.png,left_orange.png,q,left,60fc740c94213cac18d96f10,001,2021-08-01_14h07.43.315,arrow_simon_norep,2021.1.2,Win32,60.04563468,,,,,,,,,,,,,,,,,,,,,,,,,,,,,,,,,,,,,,
,,,q,1,3.0584,0,0.102249422,#f3af84,,left_orange.png,q,11,3,47,3,1,w,left_blue.png,left_orange.png,q,right,60fc740c94213cac18d96f10,001,2021-08-01_14h07.43.315,arrow_simon_norep,2021.1.2,Win32,60.04563468,,,,,,,,,,,,,,,,,,,,,,,,,,,,,,,,,,,,,,
,,,w,1,2.4074,0,0.713657974,#a3d0fb,,left_blue.png,w,12,0,48,3,1,w,left_blue.png,left_orange.png,q,right,60fc740c94213cac18d96f10,001,2021-08-01_14h07.43.315,arrow_simon_norep,2021.1.2,Win32,60.04563468,,,,,,,,,,,,,,,,,,,,,,,,,,,,,,,,,,,,,,
,,,o,0,1.023,1,0.069997415,#f3af84,,left_orange.png,q,12,1,49,3,1,w,left_blue.png,left_orange.png,q,right,60fc740c94213cac18d96f10,001,2021-08-01_14h07.43.315,arrow_simon_norep,2021.1.2,Win32,60.04563468,,,,,,,,,,,,,,,,,,,,,,,,,,,,,,,,,,,,,,
,,,o,1,3.3469,0,0.2857763,#a3d0fb,,right_blue.png,o,12,2,50,0,1,o,right_blue.png,right_orange.png,p,left,60fc740c94213cac18d96f10,001,2021-08-01_14h07.43.315,arrow_simon_norep,2021.1.2,Win32,60.04563468,,,,,,,,,,,,,,,,,,,,,,,,,,,,,,,,,,,,,,
,,,q,1,1.8672,0,0.132364773,#f3af84,,left_orange.png,q,12,3,51,3,1,w,left_blue.png,left_orange.png,q,right,60fc740c94213cac18d96f10,001,2021-08-01_14h07.43.315,arrow_simon_norep,2021.1.2,Win32,60.04563468,,,,,,,,,,,,,,,,,,,,,,,,,,,,,,,,,,,,,,
,,,o,1,1.496,0,0.075979778,#a3d0fb,,right_blue.png,o,13,0,52,0,1,o,right_blue.png,right_orange.png,p,left,60fc740c94213cac18d96f10,001,2021-08-01_14h07.43.315,arrow_simon_norep,2021.1.2,Win32,60.04563468,,,,,,,,,,,,,,,,,,,,,,,,,,,,,,,,,,,,,,
,,,p,1,1.4782,0,0.186326327,#f3af84,,right_orange.png,p,13,1,53,1,1,o,right_blue.png,right_orange.png,p,right,60fc740c94213cac18d96f10,001,2021-08-01_14h07.43.315,arrow_simon_norep,2021.1.2,Win32,60.04563468,,,,,,,,,,,,,,,,,,,,,,,,,,,,,,,,,,,,,,
,,,o,1,2.7016,0,0.677347309,#a3d0fb,,right_blue.png,o,13,2,54,0,1,o,right_blue.png,right_orange.png,p,left,60fc740c94213cac18d96f10,001,2021-08-01_14h07.43.315,arrow_simon_norep,2021.1.2,Win32,60.04563468,,,,,,,,,,,,,,,,,,,,,,,,,,,,,,,,,,,,,,
,,,p,1,1.266,0,0.608113524,#f3af84,,right_orange.png,p,13,3,55,1,1,o,right_blue.png,right_orange.png,p,right,60fc740c94213cac18d96f10,001,2021-08-01_14h07.43.315,arrow_simon_norep,2021.1.2,Win32,60.04563468,,,,,,,,,,,,,,,,,,,,,,,,,,,,,,,,,,,,,,
,,,o,1,1.1853,0,0.048192878,#a3d0fb,,right_blue.png,o,14,0,56,0,1,o,right_blue.png,right_orange.png,p,left,60fc740c94213cac18d96f10,001,2021-08-01_14h07.43.315,arrow_simon_norep,2021.1.2,Win32,60.04563468,,,,,,,,,,,,,,,,,,,,,,,,,,,,,,,,,,,,,,
,,,q,1,1.1724,0,0.554746957,#f3af84,,left_orange.png,q,14,1,57,3,1,w,left_blue.png,left_orange.png,q,right,60fc740c94213cac18d96f10,001,2021-08-01_14h07.43.315,arrow_simon_norep,2021.1.2,Win32,60.04563468,,,,,,,,,,,,,,,,,,,,,,,,,,,,,,,,,,,,,,
,,,w,1,0.9747,0,0.327833379,#a3d0fb,,left_blue.png,w,14,2,58,3,1,w,left_blue.png,left_orange.png,q,right,60fc740c94213cac18d96f10,001,2021-08-01_14h07.43.315,arrow_simon_norep,2021.1.2,Win32,60.04563468,,,,,,,,,,,,,,,,,,,,,,,,,,,,,,,,,,,,,,
,,,q,1,0.8908,0,0.268024202,#f3af84,,left_orange.png,q,14,3,59,3,1,w,left_blue.png,left_orange.png,q,right,60fc740c94213cac18d96f10,001,2021-08-01_14h07.43.315,arrow_simon_norep,2021.1.2,Win32,60.04563468,,,,,,,,,,,,,,,,,,,,,,,,,,,,,,,,,,,,,,
,,,,,,,,,,,,,,,,,,,,,,60fc740c94213cac18d96f10,001,2021-08-01_14h07.43.315,arrow_simon_norep,2021.1.2,Win32,60.04563468,space,19.5549,1,0,1,0,1,,,,,,,,,,,,,,,,,,,,,,,,,,,,,,,
,,,,,,,,,,,,,,,,,,,,,,60fc740c94213cac18d96f10,001,2021-08-01_14h07.43.315,arrow_simon_norep,2021.1.2,Win32,60.04563468,,,,,,,,space,0,29.1254,p,2.3554,0,0,0,0,1,,,,,,,,,,,,,,,,,,,,,
,,,,,,,,,,,,,,,,,,,,,,60fc740c94213cac18d96f10,001,2021-08-01_14h07.43.315,arrow_simon_norep,2021.1.2,Win32,60.04563468,,,,,,,,,,,p,1.2975,1,0,1,0,1,,,,,,,,,,,,,,,,,,,,,
,,,,,,,,,,,,,,,,,,,,,,60fc740c94213cac18d96f10,001,2021-08-01_14h07.43.315,arrow_simon_norep,2021.1.2,Win32,60.04563468,,,,,,,,,,,p,2.78,2,0,2,0,1,,,,,,,,,,,,,,,,,,,,,
,,,,,,,,,,,,,,,,,,,,,,60fc740c94213cac18d96f10,001,2021-08-01_14h07.43.315,arrow_simon_norep,2021.1.2,Win32,60.04563468,,,,,,,,,,,p,2.2118,3,0,3,0,1,,,,,,,,,,,,,,,,,,,,,
,,,,,,,,,,,,,,,,,,,,,,60fc740c94213cac18d96f10,001,2021-08-01_14h07.43.315,arrow_simon_norep,2021.1.2,Win32,60.04563468,,,,,,,,,,,p,2.6819,4,0,4,0,1,,,,,,,,,,,,,,,,,,,,,
,,,,,,,,,,,,,,,,,,,,,,60fc740c94213cac18d96f10,001,2021-08-01_14h07.43.315,arrow_simon_norep,2021.1.2,Win32,60.04563468,,,,,,,,,,,p,2.3889,5,0,5,0,1,,,,,,,,,,,,,,,,,,,,,
,,,,,,,,,,,,,,,,,,,,,,60fc740c94213cac18d96f10,001,2021-08-01_14h07.43.315,arrow_simon_norep,2021.1.2,Win32,60.04563468,,,,,,,,,,,p,2.489,6,0,6,0,1,,,,,,,,,,,,,,,,,,,,,
,,,,,,,,,,,,,,,,,,,,,,60fc740c94213cac18d96f10,001,2021-08-01_14h07.43.315,arrow_simon_norep,2021.1.2,Win32,60.04563468,,,,,,,,,,,p,2.2476,7,0,7,0,1,,,,,,,,,,,,,,,,,,,,,
,,,,,,,,,,,,,,,,,,,,,,60fc740c94213cac18d96f10,001,2021-08-01_14h07.43.315,arrow_simon_norep,2021.1.2,Win32,60.04563468,,,,,,,,,,,o,2.6743,8,0,8,0,1,,,,,,,,,,,,,,,,,,,,,
,,,,,,,,,,,,,,,,,,,,,,60fc740c94213cac18d96f10,001,2021-08-01_14h07.43.315,arrow_simon_norep,2021.1.2,Win32,60.04563468,,,,,,,,,,,o,2.3704,9,0,9,0,1,,,,,,,,,,,,,,,,,,,,,
,,,,,,,,,,,,,,,,,,,,,,60fc740c94213cac18d96f10,001,2021-08-01_14h07.43.315,arrow_simon_norep,2021.1.2,Win32,60.04563468,,,,,,,,,,,o,2.4183,10,0,10,0,1,,,,,,,,,,,,,,,,,,,,,
,,,,,,,,,,,,,,,,,,,,,,60fc740c94213cac18d96f10,001,2021-08-01_14h07.43.315,arrow_simon_norep,2021.1.2,Win32,60.04563468,,,,,,,,,,,w,2.4177,11,0,11,0,1,,,,,,,,,,,,,,,,,,,,,
,,,,,,,,,,,,,,,,,,,,,,60fc740c94213cac18d96f10,001,2021-08-01_14h07.43.315,arrow_simon_norep,2021.1.2,Win32,60.04563468,,,,,,,,,,,q,2.3471,12,0,12,0,1,,,,,,,,,,,,,,,,,,,,,
,,,,,,,,,,,,,,,,,,,,,,60fc740c94213cac18d96f10,001,2021-08-01_14h07.43.315,arrow_simon_norep,2021.1.2,Win32,60.04563468,,,,,,,,,,,q,2.5142,13,0,13,0,1,,,,,,,,,,,,,,,,,,,,,
,,,,,,,,,,,,,,,,,,,,,,60fc740c94213cac18d96f10,001,2021-08-01_14h07.43.315,arrow_simon_norep,2021.1.2,Win32,60.04563468,,,,,,,,,,,o,1.913,14,0,14,0,1,,,,,,,,,,,,,,,,,,,,,
,,,,,,,,,,,,,,,,,,,,,,60fc740c94213cac18d96f10,001,2021-08-01_14h07.43.315,arrow_simon_norep,2021.1.2,Win32,60.04563468,,,,,,,,,,,o,2.5033,15,0,15,0,1,,,,,,,,,,,,,,,,,,,,,
,,,,,,,,,,,,,,,,,,,,,,60fc740c94213cac18d96f10,001,2021-08-01_14h07.43.315,arrow_simon_norep,2021.1.2,Win32,60.04563468,,,,,,,,,,,p,2.6157,16,0,16,0,1,,,,,,,,,,,,,,,,,,,,,
,,,,,,,,,,,,,,,,,,,,,,60fc740c94213cac18d96f10,001,2021-08-01_14h07.43.315,arrow_simon_norep,2021.1.2,Win32,60.04563468,,,,,,,,,,,p,2.4626,17,0,17,0,1,,,,,,,,,,,,,,,,,,,,,
,,,,,,,,,,,,,,,,,,,,,,60fc740c94213cac18d96f10,001,2021-08-01_14h07.43.315,arrow_simon_norep,2021.1.2,Win32,60.04563468,,,,,,,,,,,o,2.5911,18,0,18,0,1,,,,,,,,,,,,,,,,,,,,,
,,,,,,,,,,,,,,,,,,,,,,60fc740c94213cac18d96f10,001,2021-08-01_14h07.43.315,arrow_simon_norep,2021.1.2,Win32,60.04563468,,,,,,,,,,,w,2.4535,19,0,19,0,1,,,,,,,,,,,,,,,,,,,,,
,,,,,,,,,,,,,,,,,,,,,,60fc740c94213cac18d96f10,001,2021-08-01_14h07.43.315,arrow_simon_norep,2021.1.2,Win32,60.04563468,,,,,,,,,,,q,2.3803,20,0,20,0,1,,,,,,,,,,,,,,,,,,,,,
,,,,,,,,,,,,,,,,,,,,,,60fc740c94213cac18d96f10,001,2021-08-01_14h07.43.315,arrow_simon_norep,2021.1.2,Win32,60.04563468,,,,,,,,,,,q,2.5731,21,0,21,0,1,,,,,,,,,,,,,,,,,,,,,
,,,,,,,,,,,,,,,,,,,,,,60fc740c94213cac18d96f10,001,2021-08-01_14h07.43.315,arrow_simon_norep,2021.1.2,Win32,60.04563468,,,,,,,,,,,o,2.6009,22,0,22,0,1,,,,,,,,,,,,,,,,,,,,,
,,,,,,,,,,,,,,,,,,,,,,60fc740c94213cac18d96f10,001,2021-08-01_14h07.43.315,arrow_simon_norep,2021.1.2,Win32,60.04563468,,,,,,,,,,,w,2.4292,23,0,23,0,1,,,,,,,,,,,,,,,,,,,,,
,,,,,,,,,,,,,,,,,,,,,,60fc740c94213cac18d96f10,001,2021-08-01_14h07.43.315,arrow_simon_norep,2021.1.2,Win32,60.04563468,,,,,,,,,,,p,2.8083,24,0,24,0,1,,,,,,,,,,,,,,,,,,,,,
,,,,,,,,,,,,,,,,,,,,,,60fc740c94213cac18d96f10,001,2021-08-01_14h07.43.315,arrow_simon_norep,2021.1.2,Win32,60.04563468,,,,,,,,,,,p,2.3519,25,0,25,0,1,,,,,,,,,,,,,,,,,,,,,
,,,,,,,,,,,,,,,,,,,,,,60fc740c94213cac18d96f10,001,2021-08-01_14h07.43.315,arrow_simon_norep,2021.1.2,Win32,60.04563468,,,,,,,,,,,p,2.6477,26,0,26,0,1,,,,,,,,,,,,,,,,,,,,,
,,,,,,,,,,,,,,,,,,,,,,60fc740c94213cac18d96f10,001,2021-08-01_14h07.43.315,arrow_simon_norep,2021.1.2,Win32,60.04563468,,,,,,,,,,,p,1.8232,27,0,27,0,1,,,,,,,,,,,,,,,,,,,,,
,,,,,,,,,,,,,,,,,,,,,,60fc740c94213cac18d96f10,001,2021-08-01_14h07.43.315,arrow_simon_norep,2021.1.2,Win32,60.04563468,,,,,,,,,,,p,2.5809,28,0,28,0,1,,,,,,,,,,,,,,,,,,,,,
,,,,,,,,,,,,,,,,,,,,,,60fc740c94213cac18d96f10,001,2021-08-01_14h07.43.315,arrow_simon_norep,2021.1.2,Win32,60.04563468,,,,,,,,,,,o,2.6523,29,0,29,0,1,,,,,,,,,,,,,,,,,,,,,
,,,,,,,,,,,,,,,,,,,,,,60fc740c94213cac18d96f10,001,2021-08-01_14h07.43.315,arrow_simon_norep,2021.1.2,Win32,60.04563468,,,,,,,,,,,w,2.6647,30,0,30,0,1,,,,,,,,,,,,,,,,,,,,,
,,,,,,,,,,,,,,,,,,,,,,60fc740c94213cac18d96f10,001,2021-08-01_14h07.43.315,arrow_simon_norep,2021.1.2,Win32,60.04563468,,,,,,,,,,,p,2.3667,31,0,31,0,1,,,,,,,,,,,,,,,,,,,,,
,,,,,,,,,,,,,,,,,,,,,,60fc740c94213cac18d96f10,001,2021-08-01_14h07.43.315,arrow_simon_norep,2021.1.2,Win32,60.04563468,,,,,,,,,,,p,2.3249,32,0,32,0,1,,,,,,,,,,,,,,,,,,,,,
,,,,,,,,,,,,,,,,,,,,,,60fc740c94213cac18d96f10,001,2021-08-01_14h07.43.315,arrow_simon_norep,2021.1.2,Win32,60.04563468,,,,,,,,,,,p,2.6176,33,0,33,0,1,,,,,,,,,,,,,,,,,,,,,
,,,,,,,,,,,,,,,,,,,,,,60fc740c94213cac18d96f10,001,2021-08-01_14h07.43.315,arrow_simon_norep,2021.1.2,Win32,60.04563468,,,,,,,,,,,p,2.3502,34,0,34,0,1,,,,,,,,,,,,,,,,,,,,,
,,,,,,,,,,,,,,,,,,,,,,60fc740c94213cac18d96f10,001,2021-08-01_14h07.43.315,arrow_simon_norep,2021.1.2,Win32,60.04563468,,,,,,,,,,,p,2.552,35,0,35,0,1,,,,,,,,,,,,,,,,,,,,,
,,,,,,,,,,,,,,,,,,,,,,60fc740c94213cac18d96f10,001,2021-08-01_14h07.43.315,arrow_simon_norep,2021.1.2,Win32,60.04563468,,,,,,,,,,,p,2.3866,36,0,36,0,1,,,,,,,,,,,,,,,,,,,,,
,,,,,,,,,,,,,,,,,,,,,,60fc740c94213cac18d96f10,001,2021-08-01_14h07.43.315,arrow_simon_norep,2021.1.2,Win32,60.04563468,,,,,,,,,,,p,2.3603,37,0,37,0,1,,,,,,,,,,,,,,,,,,,,,
,,,,,,,,,,,,,,,,,,,,,,60fc740c94213cac18d96f10,001,2021-08-01_14h07.43.315,arrow_simon_norep,2021.1.2,Win32,60.04563468,,,,,,,,,,,p,2.5384,38,0,38,0,1,,,,,,,,,,,,,,,,,,,,,
,,,,,,,,,,,,,,,,,,,,,,60fc740c94213cac18d96f10,001,2021-08-01_14h07.43.315,arrow_simon_norep,2021.1.2,Win32,60.04563468,,,,,,,,,,,p,2.6382,39,0,39,0,1,,,,,,,,,,,,,,,,,,,,,
,,,,,,,,,,,,,,,,,,,,,,60fc740c94213cac18d96f10,001,2021-08-01_14h07.43.315,arrow_simon_norep,2021.1.2,Win32,60.04563468,,,,,,,,,,,o,2.5039,40,0,40,0,1,,,,,,,,,,,,,,,,,,,,,
,,,,,,,,,,,,,,,,,,,,,,60fc740c94213cac18d96f10,001,2021-08-01_14h07.43.315,arrow_simon_norep,2021.1.2,Win32,60.04563468,,,,,,,,,,,w,2.3838,41,0,41,0,1,,,,,,,,,,,,,,,,,,,,,
,,,,,,,,,,,,,,,,,,,,,,60fc740c94213cac18d96f10,001,2021-08-01_14h07.43.315,arrow_simon_norep,2021.1.2,Win32,60.04563468,,,,,,,,,,,w,2.3726,42,0,42,0,1,,,,,,,,,,,,,,,,,,,,,
,,,,,,,,,,,,,,,,,,,,,,60fc740c94213cac18d96f10,001,2021-08-01_14h07.43.315,arrow_simon_norep,2021.1.2,Win32,60.04563468,,,,,,,,,,,w,1.9528,43,0,43,0,1,,,,,,,,,,,,,,,,,,,,,
,,,,,,,,,,,,,,,,,,,,,,60fc740c94213cac18d96f10,001,2021-08-01_14h07.43.315,arrow_simon_norep,2021.1.2,Win32,60.04563468,,,,,,,,,,,w,2.8028,44,0,44,0,1,,,,,,,,,,,,,,,,,,,,,
,,,,,,,,,,,,,,,,,,,,,,60fc740c94213cac18d96f10,001,2021-08-01_14h07.43.315,arrow_simon_norep,2021.1.2,Win32,60.04563468,,,,,,,,,,,w,2.3963,45,0,45,0,1,,,,,,,,,,,,,,,,,,,,,
,,,,,,,,,,,,,,,,,,,,,,60fc740c94213cac18d96f10,001,2021-08-01_14h07.43.315,arrow_simon_norep,2021.1.2,Win32,60.04563468,,,,,,,,,,,w,2.5947,46,0,46,0,1,,,,,,,,,,,,,,,,,,,,,
,,,,,,,,,,,,,,,,,,,,,,60fc740c94213cac18d96f10,001,2021-08-01_14h07.43.315,arrow_simon_norep,2021.1.2,Win32,60.04563468,,,,,,,,,,,q,2.7413,47,0,47,0,1,,,,,,,,,,,,,,,,,,,,,
,,,,,,,,,,,,,,,,,,,,,,60fc740c94213cac18d96f10,001,2021-08-01_14h07.43.315,arrow_simon_norep,2021.1.2,Win32,60.04563468,,,,,,,,,,,q,2.4131,48,0,48,0,1,,,,,,,,,,,,,,,,,,,,,
,,,,,,,,,,,,,,,,,,,,,,60fc740c94213cac18d96f10,001,2021-08-01_14h07.43.315,arrow_simon_norep,2021.1.2,Win32,60.04563468,,,,,,,,,,,o,2.6632,49,0,49,0,1,,,,,,,,,,,,,,,,,,,,,
,,,,,,,,,,,,,,,,,,,,,,60fc740c94213cac18d96f10,001,2021-08-01_14h07.43.315,arrow_simon_norep,2021.1.2,Win32,60.04563468,,,,,,,,,,,o,2.3674,50,0,50,0,1,,,,,,,,,,,,,,,,,,,,,
,,,,,,,,,,,,,,,,,,,,,,60fc740c94213cac18d96f10,001,2021-08-01_14h07.43.315,arrow_simon_norep,2021.1.2,Win32,60.04563468,,,,,,,,,,,o,2.8491,51,0,51,0,1,,,,,,,,,,,,,,,,,,,,,
,,,,,,,,,,,,,,,,,,,,,,60fc740c94213cac18d96f10,001,2021-08-01_14h07.43.315,arrow_simon_norep,2021.1.2,Win32,60.04563468,,,,,,,,,,,o,2.8635,52,0,52,0,1,,,,,,,,,,,,,,,,,,,,,
,,,,,,,,,,,,,,,,,,,,,,60fc740c94213cac18d96f10,001,2021-08-01_14h07.43.315,arrow_simon_norep,2021.1.2,Win32,60.04563468,,,,,,,,,,,o,2.7301,53,0,53,0,1,,,,,,,,,,,,,,,,,,,,,
,,,,,,,,,,,,,,,,,,,,,,60fc740c94213cac18d96f10,001,2021-08-01_14h07.43.315,arrow_simon_norep,2021.1.2,Win32,60.04563468,,,,,,,,,,,o,2.7383,54,0,54,0,1,,,,,,,,,,,,,,,,,,,,,
,,,,,,,,,,,,,,,,,,,,,,60fc740c94213cac18d96f10,001,2021-08-01_14h07.43.315,arrow_simon_norep,2021.1.2,Win32,60.04563468,,,,,,,,,,,p,2.5687,55,0,55,0,1,,,,,,,,,,,,,,,,,,,,,
,,,,,,,,,,,,,,,,,,,,,,60fc740c94213cac18d96f10,001,2021-08-01_14h07.43.315,arrow_simon_norep,2021.1.2,Win32,60.04563468,,,,,,,,,,,w,2.8533,56,0,56,0,1,,,,,,,,,,,,,,,,,,,,,
,,,,,,,,,,,,,,,,,,,,,,60fc740c94213cac18d96f10,001,2021-08-01_14h07.43.315,arrow_simon_norep,2021.1.2,Win32,60.04563468,,,,,,,,,,,w,2.8008,57,0,57,0,1,,,,,,,,,,,,,,,,,,,,,
,,,,,,,,,,,,,,,,,,,,,,60fc740c94213cac18d96f10,001,2021-08-01_14h07.43.315,arrow_simon_norep,2021.1.2,Win32,60.04563468,,,,,,,,,,,w,2.546,58,0,58,0,1,,,,,,,,,,,,,,,,,,,,,
,,,,,,,,,,,,,,,,,,,,,,60fc740c94213cac18d96f10,001,2021-08-01_14h07.43.315,arrow_simon_norep,2021.1.2,Win32,60.04563468,,,,,,,,,,,w,2.6708,59,0,59,0,1,,,,,,,,,,,,,,,,,,,,,
,,,,,,1,2.160545583,#a3d0fb,,right_blue.png,o,,,,,,o,right_blue.png,right_orange.png,p,right,60fc740c94213cac18d96f10,001,2021-08-01_14h07.43.315,arrow_simon_norep,2021.1.2,Win32,60.04563468,,,,,,,,,,,,,,,,,,space,0,238.0775,p,0,1.5283,1,FALSE,FALSE,0,0,0,1,1,,,,,,,
,,,,,,1,1.616175912,#f3af84,,right_orange.png,p,,,,,,o,right_blue.png,right_orange.png,p,right,60fc740c94213cac18d96f10,001,2021-08-01_14h07.43.315,arrow_simon_norep,2021.1.2,Win32,60.04563468,,,,,,,,,,,,,,,,,,,,,p,1,1.2176,2,FALSE,TRUE,0,1,1,1,1,,,,,,,
,,,,,,1,2.450958677,#a3d0fb,,right_blue.png,o,,,,,,o,right_blue.png,right_orange.png,p,right,60fc740c94213cac18d96f10,001,2021-08-01_14h07.43.315,arrow_simon_norep,2021.1.2,Win32,60.04563468,,,,,,,,,,,,,,,,,,,,,p,0,1.812,3,TRUE,FALSE,0,2,2,1,1,,,,,,,
,,,,,,1,1.602680972,#f3af84,,right_orange.png,p,,,,,,o,right_blue.png,right_orange.png,p,right,60fc740c94213cac18d96f10,001,2021-08-01_14h07.43.315,arrow_simon_norep,2021.1.2,Win32,60.04563468,,,,,,,,,,,,,,,,,,,,,p,1,1.0669,4,FALSE,TRUE,0,3,3,1,1,,,,,,,
,,,,,,1,1.660076012,#a3d0fb,,right_blue.png,o,,,,,,o,right_blue.png,right_orange.png,p,left,60fc740c94213cac18d96f10,001,2021-08-01_14h07.43.315,arrow_simon_norep,2021.1.2,Win32,60.04563468,,,,,,,,,,,,,,,,,,,,,w,0,1.1438,5,FALSE,TRUE,1,0,4,0,1,,,,,,,
,,,,,,1,2.431334476,#f3af84,,left_orange.png,q,,,,,,w,left_blue.png,left_orange.png,q,left,60fc740c94213cac18d96f10,001,2021-08-01_14h07.43.315,arrow_simon_norep,2021.1.2,Win32,60.04563468,,,,,,,,,,,,,,,,,,,,,q,1,1.8839,6,TRUE,FALSE,1,1,5,2,1,,,,,,,
,,,,,,1,1.575602345,#a3d0fb,,right_blue.png,o,,,,,,o,right_blue.png,right_orange.png,p,right,60fc740c94213cac18d96f10,001,2021-08-01_14h07.43.315,arrow_simon_norep,2021.1.2,Win32,60.04563468,,,,,,,,,,,,,,,,,,,,,p,0,0.9344,7,FALSE,TRUE,1,2,6,1,1,,,,,,,
,,,,,,0,2.045726245,#f3af84,,left_orange.png,q,,,,,,w,left_blue.png,left_orange.png,q,left,60fc740c94213cac18d96f10,001,2021-08-01_14h07.43.315,arrow_simon_norep,2021.1.2,Win32,60.04563468,,,,,,,,,,,,,,,,,,,,,q,1,1.5843,8,FALSE,FALSE,1,3,7,2,1,,,,,,,
,,,,,,0,2.392576737,#a3d0fb,,left_blue.png,w,,,,,,w,left_blue.png,left_orange.png,q,left,60fc740c94213cac18d96f10,001,2021-08-01_14h07.43.315,arrow_simon_norep,2021.1.2,Win32,60.04563468,,,,,,,,,,,,,,,,,,,,,w,1,1.767,9,TRUE,FALSE,2,0,8,2,1,,,,,,,
,,,,,,1,1.958890991,#f3af84,,left_orange.png,q,,,,,,w,left_blue.png,left_orange.png,q,right,60fc740c94213cac18d96f10,001,2021-08-01_14h07.43.315,arrow_simon_norep,2021.1.2,Win32,60.04563468,,,,,,,,,,,,,,,,,,,,,o,0,1.4959,10,FALSE,FALSE,2,1,9,3,1,,,,,,,
,,,,,,1,1.844316068,#a3d0fb,,right_blue.png,o,,,,,,o,right_blue.png,right_orange.png,p,right,60fc740c94213cac18d96f10,001,2021-08-01_14h07.43.315,arrow_simon_norep,2021.1.2,Win32,60.04563468,,,,,,,,,,,,,,,,,,,,,p,0,1.2729,11,FALSE,TRUE,2,2,10,1,1,,,,,,,
,,,,,,1,1.83744936,#f3af84,,right_orange.png,p,,,,,,o,right_blue.png,right_orange.png,p,left,60fc740c94213cac18d96f10,001,2021-08-01_14h07.43.315,arrow_simon_norep,2021.1.2,Win32,60.04563468,,,,,,,,,,,,,,,,,,,,,w,0,1.3446,12,FALSE,TRUE,2,3,11,0,1,,,,,,,
,,,,,,1,2.229986943,#a3d0fb,,left_blue.png,w,,,,,,w,left_blue.png,left_orange.png,q,right,60fc740c94213cac18d96f10,001,2021-08-01_14h07.43.315,arrow_simon_norep,2021.1.2,Win32,60.04563468,,,,,,,,,,,,,,,,,,,,,p,0,1.484,13,FALSE,FALSE,3,0,12,3,1,,,,,,,
,,,,,,1,1.610420916,#f3af84,,left_orange.png,q,,,,,,w,left_blue.png,left_orange.png,q,right,60fc740c94213cac18d96f10,001,2021-08-01_14h07.43.315,arrow_simon_norep,2021.1.2,Win32,60.04563468,,,,,,,,,,,,,,,,,,,,,p,0,1.0523,14,FALSE,TRUE,3,1,13,3,1,,,,,,,
,,,,,,1,2.058246874,#a3d0fb,,right_blue.png,o,,,,,,o,right_blue.png,right_orange.png,p,left,60fc740c94213cac18d96f10,001,2021-08-01_14h07.43.315,arrow_simon_norep,2021.1.2,Win32,60.04563468,,,,,,,,,,,,,,,,,,,,,p,0,1.463,15,FALSE,FALSE,3,2,14,0,1,,,,,,,
,,,,,,1,1.901860526,#f3af84,,left_orange.png,q,,,,,,w,left_blue.png,left_orange.png,q,right,60fc740c94213cac18d96f10,001,2021-08-01_14h07.43.315,arrow_simon_norep,2021.1.2,Win32,60.04563468,,,,,,,,,,,,,,,,,,,,,q,1,1.7606,16,TRUE,FALSE,3,3,15,3,1,,,,,,,
,,,,,,0,1.743149672,#a3d0fb,,left_blue.png,w,,,,,,w,left_blue.png,left_orange.png,q,left,60fc740c94213cac18d96f10,001,2021-08-01_14h07.43.315,arrow_simon_norep,2021.1.2,Win32,60.04563468,,,,,,,,,,,,,,,,,,,,,w,1,1.5169,17,FALSE,FALSE,4,0,16,2,1,,,,,,,
,,,,,,0,2.163093218,#f3af84,,left_orange.png,q,,,,,,w,left_blue.png,left_orange.png,q,left,60fc740c94213cac18d96f10,001,2021-08-01_14h07.43.315,arrow_simon_norep,2021.1.2,Win32,60.04563468,,,,,,,,,,,,,,,,,,,,,w,0,1.7342,18,TRUE,FALSE,4,1,17,2,1,,,,,,,
,,,,,,0,2.446803937,#a3d0fb,,right_blue.png,o,,,,,,o,right_blue.png,right_orange.png,p,right,60fc740c94213cac18d96f10,001,2021-08-01_14h07.43.315,arrow_simon_norep,2021.1.2,Win32,60.04563468,,,,,,,,,,,,,,,,,,,,,p,0,1.7338,19,TRUE,FALSE,4,2,18,1,1,,,,,,,
,,,,,,0,1.590812543,#f3af84,,left_orange.png,q,,,,,,w,left_blue.png,left_orange.png,q,left,60fc740c94213cac18d96f10,001,2021-08-01_14h07.43.315,arrow_simon_norep,2021.1.2,Win32,60.04563468,,,,,,,,,,,,,,,,,,,,,q,1,1.1339,20,FALSE,TRUE,4,3,19,2,1,,,,,,,
,,,,,,0,2.385116333,#a3d0fb,,right_blue.png,o,,,,,,o,right_blue.png,right_orange.png,p,left,60fc740c94213cac18d96f10,001,2021-08-01_14h07.43.315,arrow_simon_norep,2021.1.2,Win32,60.04563468,,,,,,,,,,,,,,,,,,,,,w,0,1.993,21,TRUE,FALSE,5,0,20,0,1,,,,,,,
,,,,,,0,1.851098097,#f3af84,,left_orange.png,q,,,,,,w,left_blue.png,left_orange.png,q,left,60fc740c94213cac18d96f10,001,2021-08-01_14h07.43.315,arrow_simon_norep,2021.1.2,Win32,60.04563468,,,,,,,,,,,,,,,,,,,,,q,1,1.3823,22,FALSE,TRUE,5,1,21,2,1,,,,,,,
,,,,,,1,1.765429425,#a3d0fb,,left_blue.png,w,,,,,,w,left_blue.png,left_orange.png,q,right,60fc740c94213cac18d96f10,001,2021-08-01_14h07.43.315,arrow_simon_norep,2021.1.2,Win32,60.04563468,,,,,,,,,,,,,,,,,,,,,o,0,1.5678,23,FALSE,FALSE,5,2,22,3,1,,,,,,,
,,,,,,1,1.995371346,#f3af84,,right_orange.png,p,,,,,,o,right_blue.png,right_orange.png,p,left,60fc740c94213cac18d96f10,001,2021-08-01_14h07.43.315,arrow_simon_norep,2021.1.2,Win32,60.04563468,,,,,,,,,,,,,,,,,,,,,w,0,1.6541,24,TRUE,FALSE,5,3,23,0,1,,,,,,,
,,,,,,1,1.527024079,#a3d0fb,,right_blue.png,o,,,,,,o,right_blue.png,right_orange.png,p,right,60fc740c94213cac18d96f10,001,2021-08-01_14h07.43.315,arrow_simon_norep,2021.1.2,Win32,60.04563468,,,,,,,,,,,,,,,,,,,,,p,0,0.9389,25,FALSE,TRUE,6,0,24,1,1,,,,,,,
,,,,,,1,2.230840549,#f3af84,,left_orange.png,q,,,,,,w,left_blue.png,left_orange.png,q,right,60fc740c94213cac18d96f10,001,2021-08-01_14h07.43.315,arrow_simon_norep,2021.1.2,Win32,60.04563468,,,,,,,,,,,,,,,,,,,,,q,1,1.6672,26,TRUE,FALSE,6,1,25,3,1,,,,,,,
,,,,,,1,1.586806403,#a3d0fb,,right_blue.png,o,,,,,,o,right_blue.png,right_orange.png,p,right,60fc740c94213cac18d96f10,001,2021-08-01_14h07.43.315,arrow_simon_norep,2021.1.2,Win32,60.04563468,,,,,,,,,,,,,,,,,,,,,p,0,1.0506,27,FALSE,TRUE,6,2,26,1,1,,,,,,,
,,,,,,1,2.378702036,#f3af84,,right_orange.png,p,,,,,,o,right_blue.png,right_orange.png,p,left,60fc740c94213cac18d96f10,001,2021-08-01_14h07.43.315,arrow_simon_norep,2021.1.2,Win32,60.04563468,,,,,,,,,,,,,,,,,,,,,q,0,1.6908,28,TRUE,FALSE,6,3,27,0,1,,,,,,,
,,,,,,1,1.594194081,#a3d0fb,,right_blue.png,o,,,,,,o,right_blue.png,right_orange.png,p,left,60fc740c94213cac18d96f10,001,2021-08-01_14h07.43.315,arrow_simon_norep,2021.1.2,Win32,60.04563468,,,,,,,,,,,,,,,,,,,,,q,0,0.9527,29,FALSE,TRUE,7,0,28,0,1,,,,,,,
,,,,,,1,2.10708488,#f3af84,,right_orange.png,p,,,,,,o,right_blue.png,right_orange.png,p,right,60fc740c94213cac18d96f10,001,2021-08-01_14h07.43.315,arrow_simon_norep,2021.1.2,Win32,60.04563468,,,,,,,,,,,,,,,,,,,,,w,0,2.3062,30,TRUE,FALSE,7,1,29,1,1,,,,,,,
,,,,,,1,2.295116997,#a3d0fb,,left_blue.png,w,,,,,,w,left_blue.png,left_orange.png,q,right,60fc740c94213cac18d96f10,001,2021-08-01_14h07.43.315,arrow_simon_norep,2021.1.2,Win32,60.04563468,,,,,,,,,,,,,,,,,,,,,o,0,1.9805,31,TRUE,FALSE,7,2,30,3,1,,,,,,,
,,,,,,1,1.545446178,#f3af84,,left_orange.png,q,,,,,,w,left_blue.png,left_orange.png,q,left,60fc740c94213cac18d96f10,001,2021-08-01_14h07.43.315,arrow_simon_norep,2021.1.2,Win32,60.04563468,,,,,,,,,,,,,,,,,,,,,q,1,1.1459,32,FALSE,TRUE,7,3,31,2,1,,,,,,,
,,,,,,1,1.513545343,#a3d0fb,,left_blue.png,w,,,,,,w,left_blue.png,left_orange.png,q,right,60fc740c94213cac18d96f10,001,2021-08-01_14h07.43.315,arrow_simon_norep,2021.1.2,Win32,60.04563468,,,,,,,,,,,,,,,,,,,,,w,1,1.1942,33,FALSE,TRUE,8,0,32,3,1,,,,,,,
,,,,,,1,2.245335851,#f3af84,,right_orange.png,p,,,,,,o,right_blue.png,right_orange.png,p,left,60fc740c94213cac18d96f10,001,2021-08-01_14h07.43.315,arrow_simon_norep,2021.1.2,Win32,60.04563468,,,,,,,,,,,,,,,,,,,,,p,1,3.0028,34,TRUE,FALSE,8,1,33,0,1,,,,,,,
,,,,,,1,1.507128164,#a3d0fb,,right_blue.png,o,,,,,,o,right_blue.png,right_orange.png,p,right,60fc740c94213cac18d96f10,001,2021-08-01_14h07.43.315,arrow_simon_norep,2021.1.2,Win32,60.04563468,,,,,,,,,,,,,,,,,,,,,o,1,1.655,35,TRUE,FALSE,8,2,34,1,1,,,,,,,
,,,,,,1,2.139105343,#f3af84,,right_orange.png,p,,,,,,o,right_blue.png,right_orange.png,p,right,60fc740c94213cac18d96f10,001,2021-08-01_14h07.43.315,arrow_simon_norep,2021.1.2,Win32,60.04563468,,,,,,,,,,,,,,,,,,,,,o,0,1.7295,36,TRUE,FALSE,8,3,35,1,1,,,,,,,
,,,,,,1,2.271550396,#a3d0fb,,left_blue.png,w,,,,,,w,left_blue.png,left_orange.png,q,left,60fc740c94213cac18d96f10,001,2021-08-01_14h07.43.315,arrow_simon_norep,2021.1.2,Win32,60.04563468,,,,,,,,,,,,,,,,,,,,,q,0,1.5676,37,FALSE,FALSE,9,0,36,2,1,,,,,,,
,,,,,,1,1.966108746,#f3af84,,left_orange.png,q,,,,,,w,left_blue.png,left_orange.png,q,right,60fc740c94213cac18d96f10,001,2021-08-01_14h07.43.315,arrow_simon_norep,2021.1.2,Win32,60.04563468,,,,,,,,,,,,,,,,,,,,,o,0,1.5192,38,FALSE,FALSE,9,1,37,3,1,,,,,,,
,,,,,,1,2.157548929,#a3d0fb,,left_blue.png,w,,,,,,w,left_blue.png,left_orange.png,q,right,60fc740c94213cac18d96f10,001,2021-08-01_14h07.43.315,arrow_simon_norep,2021.1.2,Win32,60.04563468,,,,,,,,,,,,,,,,,,,,,o,0,1.7053,39,TRUE,FALSE,9,2,38,3,1,,,,,,,
,,,,,,1,2.485880802,#f3af84,,left_orange.png,q,,,,,,w,left_blue.png,left_orange.png,q,left,60fc740c94213cac18d96f10,001,2021-08-01_14h07.43.315,arrow_simon_norep,2021.1.2,Win32,60.04563468,,,,,,,,,,,,,,,,,,,,,q,1,2.1688,40,TRUE,FALSE,9,3,39,2,1,,,,,,,
,,,,,,0,2.162975877,#a3d0fb,,left_blue.png,w,,,,,,w,left_blue.png,left_orange.png,q,left,60fc740c94213cac18d96f10,001,2021-08-01_14h07.43.315,arrow_simon_norep,2021.1.2,Win32,60.04563468,,,,,,,,,,,,,,,,,,,,,w,1,1.5305,41,FALSE,FALSE,10,0,40,2,1,,,,,,,
,,,,,,0,2.063465753,#f3af84,,right_orange.png,p,,,,,,o,right_blue.png,right_orange.png,p,right,60fc740c94213cac18d96f10,001,2021-08-01_14h07.43.315,arrow_simon_norep,2021.1.2,Win32,60.04563468,,,,,,,,,,,,,,,,,,,,,p,1,1.5022,42,FALSE,FALSE,10,1,41,1,1,,,,,,,
,,,,,,1,1.615273195,#a3d0fb,,left_blue.png,w,,,,,,w,left_blue.png,left_orange.png,q,right,60fc740c94213cac18d96f10,001,2021-08-01_14h07.43.315,arrow_simon_norep,2021.1.2,Win32,60.04563468,,,,,,,,,,,,,,,,,,,,,o,0,1.5722,43,FALSE,FALSE,10,2,42,3,1,,,,,,,
,,,,,,0,1.575091357,#f3af84,,left_orange.png,q,,,,,,w,left_blue.png,left_orange.png,q,right,60fc740c94213cac18d96f10,001,2021-08-01_14h07.43.315,arrow_simon_norep,2021.1.2,Win32,60.04563468,,,,,,,,,,,,,,,,,,,,,q,1,1.4515,44,FALSE,FALSE,10,3,43,3,1,,,,,,,
,,,,,,0,2.273023166,#a3d0fb,,right_blue.png,o,,,,,,o,right_blue.png,right_orange.png,p,left,60fc740c94213cac18d96f10,001,2021-08-01_14h07.43.315,arrow_simon_norep,2021.1.2,Win32,60.04563468,,,,,,,,,,,,,,,,,,,,,p,0,1.7284,45,TRUE,FALSE,11,0,44,0,1,,,,,,,
,,,,,,0,1.954923226,#f3af84,,left_orange.png,q,,,,,,w,left_blue.png,left_orange.png,q,left,60fc740c94213cac18d96f10,001,2021-08-01_14h07.43.315,arrow_simon_norep,2021.1.2,Win32,60.04563468,,,,,,,,,,,,,,,,,,,,,q,1,1.6125,46,TRUE,FALSE,11,1,45,2,1,,,,,,,
,,,,,,0,1.870457489,#a3d0fb,,left_blue.png,w,,,,,,w,left_blue.png,left_orange.png,q,right,60fc740c94213cac18d96f10,001,2021-08-01_14h07.43.315,arrow_simon_norep,2021.1.2,Win32,60.04563468,,,,,,,,,,,,,,,,,,,,,o,0,1.3691,47,FALSE,TRUE,11,2,46,3,1,,,,,,,
,,,,,,1,1.974288687,#f3af84,,left_orange.png,q,,,,,,w,left_blue.png,left_orange.png,q,right,60fc740c94213cac18d96f10,001,2021-08-01_14h07.43.315,arrow_simon_norep,2021.1.2,Win32,60.04563468,,,,,,,,,,,,,,,,,,,,,w,0,1.4969,48,FALSE,FALSE,11,3,47,3,1,,,,,,,
,,,,,,1,2.477290197,#a3d0fb,,right_blue.png,o,,,,,,o,right_blue.png,right_orange.png,p,left,60fc740c94213cac18d96f10,001,2021-08-01_14h07.43.315,arrow_simon_norep,2021.1.2,Win32,60.04563468,,,,,,,,,,,,,,,,,,,,,p,0,3.5927,49,TRUE,FALSE,12,0,48,0,1,,,,,,,
,,,,,,1,2.368039253,#f3af84,,right_orange.png,p,,,,,,o,right_blue.png,right_orange.png,p,left,60fc740c94213cac18d96f10,001,2021-08-01_14h07.43.315,arrow_simon_norep,2021.1.2,Win32,60.04563468,,,,,,,,,,,,,,,,,,,,,w,0,1.9888,50,TRUE,FALSE,12,1,49,0,1,,,,,,,
,,,,,,1,2.28411759,#a3d0fb,,left_blue.png,w,,,,,,w,left_blue.png,left_orange.png,q,left,60fc740c94213cac18d96f10,001,2021-08-01_14h07.43.315,arrow_simon_norep,2021.1.2,Win32,60.04563468,,,,,,,,,,,,,,,,,,,,,q,0,1.7959,51,TRUE,FALSE,12,2,50,2,1,,,,,,,
,,,,,,1,2.495576523,#f3af84,,left_orange.png,q,,,,,,w,left_blue.png,left_orange.png,q,right,60fc740c94213cac18d96f10,001,2021-08-01_14h07.43.315,arrow_simon_norep,2021.1.2,Win32,60.04563468,,,,,,,,,,,,,,,,,,,,,o,0,2.0738,52,TRUE,FALSE,12,3,51,3,1,,,,,,,
,,,,,,1,1.977998352,#a3d0fb,,right_blue.png,o,,,,,,o,right_blue.png,right_orange.png,p,left,60fc740c94213cac18d96f10,001,2021-08-01_14h07.43.315,arrow_simon_norep,2021.1.2,Win32,60.04563468,,,,,,,,,,,,,,,,,,,,,w,0,1.5645,53,FALSE,FALSE,13,0,52,0,1,,,,,,,
,,,,,,1,1.576729359,#f3af84,,right_orange.png,p,,,,,,o,right_blue.png,right_orange.png,p,left,60fc740c94213cac18d96f10,001,2021-08-01_14h07.43.315,arrow_simon_norep,2021.1.2,Win32,60.04563468,,,,,,,,,,,,,,,,,,,,,p,1,1.6204,54,TRUE,FALSE,13,1,53,0,1,,,,,,,
,,,,,,1,2.142635537,#a3d0fb,,right_blue.png,o,,,,,,o,right_blue.png,right_orange.png,p,left,60fc740c94213cac18d96f10,001,2021-08-01_14h07.43.315,arrow_simon_norep,2021.1.2,Win32,60.04563468,,,,,,,,,,,,,,,,,,,,,w,0,1.6189,55,TRUE,FALSE,13,2,54,0,1,,,,,,,
,,,,,,1,1.516189856,#f3af84,,left_orange.png,q,,,,,,w,left_blue.png,left_orange.png,q,left,60fc740c94213cac18d96f10,001,2021-08-01_14h07.43.315,arrow_simon_norep,2021.1.2,Win32,60.04563468,,,,,,,,,,,,,,,,,,,,,q,1,0.9417,56,FALSE,TRUE,13,3,55,2,1,,,,,,,
,,,,,,1,1.677847531,#a3d0fb,,right_blue.png,o,,,,,,o,right_blue.png,right_orange.png,p,left,60fc740c94213cac18d96f10,001,2021-08-01_14h07.43.315,arrow_simon_norep,2021.1.2,Win32,60.04563468,,,,,,,,,,,,,,,,,,,,,o,1,1.6545,57,TRUE,FALSE,14,0,56,0,1,,,,,,,
,,,,,,0,2.092268448,#f3af84,,right_orange.png,p,,,,,,o,right_blue.png,right_orange.png,p,right,60fc740c94213cac18d96f10,001,2021-08-01_14h07.43.315,arrow_simon_norep,2021.1.2,Win32,60.04563468,,,,,,,,,,,,,,,,,,,,,p,1,1.5675,58,FALSE,FALSE,14,1,57,1,1,,,,,,,
,,,,,,1,2.281168583,#a3d0fb,,left_blue.png,w,,,,,,w,left_blue.png,left_orange.png,q,left,60fc740c94213cac18d96f10,001,2021-08-01_14h07.43.315,arrow_simon_norep,2021.1.2,Win32,60.04563468,,,,,,,,,,,,,,,,,,,,,q,0,1.4934,59,FALSE,FALSE,14,2,58,2,1,,,,,,,
,,,,,,0,1.952902843,#f3af84,,right_orange.png,p,,,,,,o,right_blue.png,right_orange.png,p,right,60fc740c94213cac18d96f10,001,2021-08-01_14h07.43.315,arrow_simon_norep,2021.1.2,Win32,60.04563468,,,,,,,,,,,,,,,,,,,,,p,1,1.5188,60,FALSE,FALSE,14,3,59,1,1,,,,,,,
,,,,,,,,,,,,,,,,,,,,,,60fc740c94213cac18d96f10,001,2021-08-01_14h07.43.315,arrow_simon_norep,2021.1.2,Win32,60.04563468,,,,,,,,,,,,,,,,,,,,,,,,,,,,,,,,space,234.711,0,0,0,0,1
,,,,,,1,2.008895482,#a3d0fb,,left_blue.png,w,,,,,,w,left_blue.png,left_orange.png,q,right,60fc740c94213cac18d96f10,001,2021-08-01_14h07.43.315,arrow_simon_norep,2021.1.2,Win32,60.04563468,,,,,,,,,,,,,,,,,,,,,o,0,1.4115,1,FALSE,FALSE,0,0,0,3,1,,,,,,,
,,,,,,1,2.479099187,#f3af84,,left_orange.png,q,,,,,,w,left_blue.png,left_orange.png,q,left,60fc740c94213cac18d96f10,001,2021-08-01_14h07.43.315,arrow_simon_norep,2021.1.2,Win32,60.04563468,,,,,,,,,,,,,,,,,,,,,q,1,1.6995,2,TRUE,FALSE,0,1,1,2,1,,,,,,,
,,,,,,1,2.418727041,#a3d0fb,,left_blue.png,w,,,,,,w,left_blue.png,left_orange.png,q,right,60fc740c94213cac18d96f10,001,2021-08-01_14h07.43.315,arrow_simon_norep,2021.1.2,Win32,60.04563468,,,,,,,,,,,,,,,,,,,,,o,0,1.8387,3,TRUE,FALSE,0,2,2,3,1,,,,,,,
,,,,,,1,1.564615413,#f3af84,,left_orange.png,q,,,,,,w,left_blue.png,left_orange.png,q,right,60fc740c94213cac18d96f10,001,2021-08-01_14h07.43.315,arrow_simon_norep,2021.1.2,Win32,60.04563468,,,,,,,,,,,,,,,,,,,,,q,1,1.3117,4,FALSE,TRUE,0,3,3,3,1,,,,,,,
,,,,,,1,2.041335228,#a3d0fb,,right_blue.png,o,,,,,,o,right_blue.png,right_orange.png,p,left,60fc740c94213cac18d96f10,001,2021-08-01_14h07.43.315,arrow_simon_norep,2021.1.2,Win32,60.04563468,,,,,,,,,,,,,,,,,,,,,p,0,1.5723,5,FALSE,FALSE,1,0,4,0,1,,,,,,,
,,,,,,1,1.650248539,#f3af84,,left_orange.png,q,,,,,,w,left_blue.png,left_orange.png,q,left,60fc740c94213cac18d96f10,001,2021-08-01_14h07.43.315,arrow_simon_norep,2021.1.2,Win32,60.04563468,,,,,,,,,,,,,,,,,,,,,q,1,1.3018,6,FALSE,TRUE,1,1,5,2,1,,,,,,,
,,,,,,1,2.218603434,#a3d0fb,,right_blue.png,o,,,,,,o,right_blue.png,right_orange.png,p,right,60fc740c94213cac18d96f10,001,2021-08-01_14h07.43.315,arrow_simon_norep,2021.1.2,Win32,60.04563468,,,,,,,,,,,,,,,,,,,,,o,1,1.8083,7,TRUE,FALSE,1,2,6,1,1,,,,,,,
,,,,,,1,1.701690886,#f3af84,,right_orange.png,p,,,,,,o,right_blue.png,right_orange.png,p,right,60fc740c94213cac18d96f10,001,2021-08-01_14h07.43.315,arrow_simon_norep,2021.1.2,Win32,60.04563468,,,,,,,,,,,,,,,,,,,,,p,1,1.7192,8,TRUE,FALSE,1,3,7,1,1,,,,,,,
,,,,,,0,2.084265308,#a3d0fb,,right_blue.png,o,,,,,,o,right_blue.png,right_orange.png,p,right,60fc740c94213cac18d96f10,001,2021-08-01_14h07.43.315,arrow_simon_norep,2021.1.2,Win32,60.04563468,,,,,,,,,,,,,,,,,,,,,o,1,1.4403,9,FALSE,FALSE,2,0,8,1,1,,,,,,,
,,,,,,0,1.649326926,#f3af84,,left_orange.png,q,,,,,,w,left_blue.png,left_orange.png,q,right,60fc740c94213cac18d96f10,001,2021-08-01_14h07.43.315,arrow_simon_norep,2021.1.2,Win32,60.04563468,,,,,,,,,,,,,,,,,,,,,q,1,1.3585,10,FALSE,TRUE,2,1,9,3,1,,,,,,,
,,,,,,0,1.676096885,#a3d0fb,,left_blue.png,w,,,,,,w,left_blue.png,left_orange.png,q,right,60fc740c94213cac18d96f10,001,2021-08-01_14h07.43.315,arrow_simon_norep,2021.1.2,Win32,60.04563468,,,,,,,,,,,,,,,,,,,,,w,1,1.2028,11,FALSE,TRUE,2,2,10,3,1,,,,,,,
,,,,,,0,1.578592019,#f3af84,,left_orange.png,q,,,,,,w,left_blue.png,left_orange.png,q,left,60fc740c94213cac18d96f10,001,2021-08-01_14h07.43.315,arrow_simon_norep,2021.1.2,Win32,60.04563468,,,,,,,,,,,,,,,,,,,,,q,1,1.6124,12,TRUE,FALSE,2,3,11,2,1,,,,,,,
,,,,,,0,2.325340528,#a3d0fb,,right_blue.png,o,,,,,,o,right_blue.png,right_orange.png,p,left,60fc740c94213cac18d96f10,001,2021-08-01_14h07.43.315,arrow_simon_norep,2021.1.2,Win32,60.04563468,,,,,,,,,,,,,,,,,,,,,o,1,1.708,13,TRUE,FALSE,3,0,12,0,1,,,,,,,
,,,,,,0,2.439572978,#f3af84,,left_orange.png,q,,,,,,w,left_blue.png,left_orange.png,q,right,60fc740c94213cac18d96f10,001,2021-08-01_14h07.43.315,arrow_simon_norep,2021.1.2,Win32,60.04563468,,,,,,,,,,,,,,,,,,,,,p,0,1.7357,14,TRUE,FALSE,3,1,13,3,1,,,,,,,
,,,,,,0,2.422958856,#a3d0fb,,right_blue.png,o,,,,,,o,right_blue.png,right_orange.png,p,right,60fc740c94213cac18d96f10,001,2021-08-01_14h07.43.315,arrow_simon_norep,2021.1.2,Win32,60.04563468,,,,,,,,,,,,,,,,,,,,,o,1,1.8376,15,TRUE,FALSE,3,2,14,1,1,,,,,,,
,,,,,,0,2.008270845,#f3af84,,left_orange.png,q,,,,,,w,left_blue.png,left_orange.png,q,left,60fc740c94213cac18d96f10,001,2021-08-01_14h07.43.315,arrow_simon_norep,2021.1.2,Win32,60.04563468,,,,,,,,,,,,,,,,,,,,,q,1,1.5963,16,FALSE,FALSE,3,3,15,2,1,,,,,,,
,,,,,,0,1.512429358,#a3d0fb,,left_blue.png,w,,,,,,w,left_blue.png,left_orange.png,q,right,60fc740c94213cac18d96f10,001,2021-08-01_14h07.43.315,arrow_simon_norep,2021.1.2,Win32,60.04563468,,,,,,,,,,,,,,,,,,,,,w,1,1.5543,17,FALSE,FALSE,4,0,16,3,1,,,,,,,
,,,,,,0,2.338290016,#f3af84,,left_orange.png,q,,,,,,w,left_blue.png,left_orange.png,q,left,60fc740c94213cac18d96f10,001,2021-08-01_14h07.43.315,arrow_simon_norep,2021.1.2,Win32,60.04563468,,,,,,,,,,,,,,,,,,,,,q,1,1.7938,18,TRUE,FALSE,4,1,17,2,1,,,,,,,
,,,,,,0,1.537007926,#a3d0fb,,left_blue.png,w,,,,,,w,left_blue.png,left_orange.png,q,right,60fc740c94213cac18d96f10,001,2021-08-01_14h07.43.315,arrow_simon_norep,2021.1.2,Win32,60.04563468,,,,,,,,,,,,,,,,,,,,,w,1,1.4906,19,FALSE,FALSE,4,2,18,3,1,,,,,,,
,,,,,,0,2.139621684,#f3af84,,right_orange.png,p,,,,,,o,right_blue.png,right_orange.png,p,right,60fc740c94213cac18d96f10,001,2021-08-01_14h07.43.315,arrow_simon_norep,2021.1.2,Win32,60.04563468,,,,,,,,,,,,,,,,,,,,,p,1,1.5033,20,FALSE,FALSE,4,3,19,1,1,,,,,,,
,,,,,,0,2.075523613,#a3d0fb,,left_blue.png,w,,,,,,w,left_blue.png,left_orange.png,q,left,60fc740c94213cac18d96f10,001,2021-08-01_14h07.43.315,arrow_simon_norep,2021.1.2,Win32,60.04563468,,,,,,,,,,,,,,,,,,,,,w,1,1.4483,21,FALSE,FALSE,5,0,20,2,1,,,,,,,
,,,,,,0,1.92802694,#f3af84,,left_orange.png,q,,,,,,w,left_blue.png,left_orange.png,q,left,60fc740c94213cac18d96f10,001,2021-08-01_14h07.43.315,arrow_simon_norep,2021.1.2,Win32,60.04563468,,,,,,,,,,,,,,,,,,,,,q,1,1.4515,22,FALSE,FALSE,5,1,21,2,1,,,,,,,
,,,,,,0,1.613421198,#a3d0fb,,left_blue.png,w,,,,,,w,left_blue.png,left_orange.png,q,right,60fc740c94213cac18d96f10,001,2021-08-01_14h07.43.315,arrow_simon_norep,2021.1.2,Win32,60.04563468,,,,,,,,,,,,,,,,,,,,,w,1,1.5131,23,FALSE,FALSE,5,2,22,3,1,,,,,,,
,,,,,,0,1.574879356,#f3af84,,left_orange.png,q,,,,,,w,left_blue.png,left_orange.png,q,left,60fc740c94213cac18d96f10,001,2021-08-01_14h07.43.315,arrow_simon_norep,2021.1.2,Win32,60.04563468,,,,,,,,,,,,,,,,,,,,,q,1,1.4558,24,FALSE,FALSE,5,3,23,2,1,,,,,,,
,,,,,,0,1.753178862,#a3d0fb,,left_blue.png,w,,,,,,w,left_blue.png,left_orange.png,q,left,60fc740c94213cac18d96f10,001,2021-08-01_14h07.43.315,arrow_simon_norep,2021.1.2,Win32,60.04563468,,,,,,,,,,,,,,,,,,,,,w,1,1.4588,25,FALSE,FALSE,6,0,24,2,1,,,,,,,
,,,,,,0,1.737602248,#f3af84,,right_orange.png,p,,,,,,o,right_blue.png,right_orange.png,p,right,60fc740c94213cac18d96f10,001,2021-08-01_14h07.43.315,arrow_simon_norep,2021.1.2,Win32,60.04563468,,,,,,,,,,,,,,,,,,,,,p,1,1.613,26,TRUE,FALSE,6,1,25,1,1,,,,,,,
,,,,,,0,2.471701608,#a3d0fb,,right_blue.png,o,,,,,,o,right_blue.png,right_orange.png,p,right,60fc740c94213cac18d96f10,001,2021-08-01_14h07.43.315,arrow_simon_norep,2021.1.2,Win32,60.04563468,,,,,,,,,,,,,,,,,,,,,p,0,1.8356,27,TRUE,FALSE,6,2,26,1,1,,,,,,,
,,,,,,0,2.491062114,#f3af84,,right_orange.png,p,,,,,,o,right_blue.png,right_orange.png,p,left,60fc740c94213cac18d96f10,001,2021-08-01_14h07.43.315,arrow_simon_norep,2021.1.2,Win32,60.04563468,,,,,,,,,,,,,,,,,,,,,q,0,1.7508,28,TRUE,FALSE,6,3,27,0,1,,,,,,,
,,,,,,0,2.342501528,#a3d0fb,,left_blue.png,w,,,,,,w,left_blue.png,left_orange.png,q,right,60fc740c94213cac18d96f10,001,2021-08-01_14h07.43.315,arrow_simon_norep,2021.1.2,Win32,60.04563468,,,,,,,,,,,,,,,,,,,,,w,1,1.7933,29,TRUE,FALSE,7,0,28,3,1,,,,,,,
,,,,,,0,2.46442888,#f3af84,,right_orange.png,p,,,,,,o,right_blue.png,right_orange.png,p,left,60fc740c94213cac18d96f10,001,2021-08-01_14h07.43.315,arrow_simon_norep,2021.1.2,Win32,60.04563468,,,,,,,,,,,,,,,,,,,,,p,1,1.9371,30,TRUE,FALSE,7,1,29,0,1,,,,,,,
,,,,,,0,1.717709373,#a3d0fb,,right_blue.png,o,,,,,,o,right_blue.png,right_orange.png,p,right,60fc740c94213cac18d96f10,001,2021-08-01_14h07.43.315,arrow_simon_norep,2021.1.2,Win32,60.04563468,,,,,,,,,,,,,,,,,,,,,o,1,1.4666,31,FALSE,FALSE,7,2,30,1,1,,,,,,,
,,,,,,0,1.912975194,#f3af84,,left_orange.png,q,,,,,,w,left_blue.png,left_orange.png,q,right,60fc740c94213cac18d96f10,001,2021-08-01_14h07.43.315,arrow_simon_norep,2021.1.2,Win32,60.04563468,,,,,,,,,,,,,,,,,,,,,q,1,1.5857,32,FALSE,FALSE,7,3,31,3,1,,,,,,,
,,,,,,0,1.9999517,#a3d0fb,,right_blue.png,o,,,,,,o,right_blue.png,right_orange.png,p,left,60fc740c94213cac18d96f10,001,2021-08-01_14h07.43.315,arrow_simon_norep,2021.1.2,Win32,60.04563468,,,,,,,,,,,,,,,,,,,,,o,1,1.5858,33,FALSE,FALSE,8,0,32,0,1,,,,,,,
,,,,,,0,2.417552161,#f3af84,,right_orange.png,p,,,,,,o,right_blue.png,right_orange.png,p,left,60fc740c94213cac18d96f10,001,2021-08-01_14h07.43.315,arrow_simon_norep,2021.1.2,Win32,60.04563468,,,,,,,,,,,,,,,,,,,,,q,0,1.7338,34,TRUE,FALSE,8,1,33,0,1,,,,,,,
,,,,,,0,2.496216922,#a3d0fb,,right_blue.png,o,,,,,,o,right_blue.png,right_orange.png,p,right,60fc740c94213cac18d96f10,001,2021-08-01_14h07.43.315,arrow_simon_norep,2021.1.2,Win32,60.04563468,,,,,,,,,,,,,,,,,,,,,o,1,1.822,35,TRUE,FALSE,8,2,34,1,1,,,,,,,
,,,,,,0,2.308770051,#f3af84,,left_orange.png,q,,,,,,w,left_blue.png,left_orange.png,q,left,60fc740c94213cac18d96f10,001,2021-08-01_14h07.43.315,arrow_simon_norep,2021.1.2,Win32,60.04563468,,,,,,,,,,,,,,,,,,,,,q,1,1.565,36,FALSE,FALSE,8,3,35,2,1,,,,,,,
,,,,,,0,1.685081537,#a3d0fb,,right_blue.png,o,,,,,,o,right_blue.png,right_orange.png,p,right,60fc740c94213cac18d96f10,001,2021-08-01_14h07.43.315,arrow_simon_norep,2021.1.2,Win32,60.04563468,,,,,,,,,,,,,,,,,,,,,o,1,1.2677,37,FALSE,TRUE,9,0,36,1,1,,,,,,,
,,,,,,0,1.828493179,#f3af84,,left_orange.png,q,,,,,,w,left_blue.png,left_orange.png,q,right,60fc740c94213cac18d96f10,001,2021-08-01_14h07.43.315,arrow_simon_norep,2021.1.2,Win32,60.04563468,,,,,,,,,,,,,,,,,,,,,q,1,1.44,38,FALSE,FALSE,9,1,37,3,1,,,,,,,
,,,,,,0,2.227599761,#a3d0fb,,right_blue.png,o,,,,,,o,right_blue.png,right_orange.png,p,left,60fc740c94213cac18d96f10,001,2021-08-01_14h07.43.315,arrow_simon_norep,2021.1.2,Win32,60.04563468,,,,,,,,,,,,,,,,,,,,,w,0,1.6128,39,TRUE,FALSE,9,2,38,0,1,,,,,,,
,,,,,,0,1.68490276,#f3af84,,left_orange.png,q,,,,,,w,left_blue.png,left_orange.png,q,right,60fc740c94213cac18d96f10,001,2021-08-01_14h07.43.315,arrow_simon_norep,2021.1.2,Win32,60.04563468,,,,,,,,,,,,,,,,,,,,,q,1,1.6728,40,TRUE,FALSE,9,3,39,3,1,,,,,,,
,,,,,,0,2.164693193,#a3d0fb,,right_blue.png,o,,,,,,o,right_blue.png,right_orange.png,p,right,60fc740c94213cac18d96f10,001,2021-08-01_14h07.43.315,arrow_simon_norep,2021.1.2,Win32,60.04563468,,,,,,,,,,,,,,,,,,,,,o,1,1.5896,41,FALSE,FALSE,10,0,40,1,1,,,,,,,
,,,,,,1,1.731363192,#f3af84,,right_orange.png,p,,,,,,o,right_blue.png,right_orange.png,p,left,60fc740c94213cac18d96f10,001,2021-08-01_14h07.43.315,arrow_simon_norep,2021.1.2,Win32,60.04563468,,,,,,,,,,,,,,,,,,,,,q,0,1.5214,42,FALSE,FALSE,10,1,41,0,1,,,,,,,
,,,,,,1,1.648241903,#a3d0fb,,right_blue.png,o,,,,,,o,right_blue.png,right_orange.png,p,left,60fc740c94213cac18d96f10,001,2021-08-01_14h07.43.315,arrow_simon_norep,2021.1.2,Win32,60.04563468,,,,,,,,,,,,,,,,,,,,,o,1,1.3737,43,FALSE,TRUE,10,2,42,0,1,,,,,,,
,,,,,,1,2.181272156,#f3af84,,right_orange.png,p,,,,,,o,right_blue.png,right_orange.png,p,left,60fc740c94213cac18d96f10,001,2021-08-01_14h07.43.315,arrow_simon_norep,2021.1.2,Win32,60.04563468,,,,,,,,,,,,,,,,,,,,,p,1,1.676,44,TRUE,FALSE,10,3,43,0,1,,,,,,,
,,,,,,1,2.362638997,#a3d0fb,,left_blue.png,w,,,,,,w,left_blue.png,left_orange.png,q,left,60fc740c94213cac18d96f10,001,2021-08-01_14h07.43.315,arrow_simon_norep,2021.1.2,Win32,60.04563468,,,,,,,,,,,,,,,,,,,,,w,1,1.7781,45,TRUE,FALSE,11,0,44,2,1,,,,,,,
,,,,,,0,1.704872989,#f3af84,,right_orange.png,p,,,,,,o,right_blue.png,right_orange.png,p,right,60fc740c94213cac18d96f10,001,2021-08-01_14h07.43.315,arrow_simon_norep,2021.1.2,Win32,60.04563468,,,,,,,,,,,,,,,,,,,,,p,1,1.4201,46,FALSE,FALSE,11,1,45,1,1,,,,,,,
,,,,,,0,2.08672877,#a3d0fb,,right_blue.png,o,,,,,,o,right_blue.png,right_orange.png,p,right,60fc740c94213cac18d96f10,001,2021-08-01_14h07.43.315,arrow_simon_norep,2021.1.2,Win32,60.04563468,,,,,,,,,,,,,,,,,,,,,o,1,1.6361,47,TRUE,FALSE,11,2,46,1,1,,,,,,,
,,,,,,0,1.516053348,#f3af84,,left_orange.png,q,,,,,,w,left_blue.png,left_orange.png,q,right,60fc740c94213cac18d96f10,001,2021-08-01_14h07.43.315,arrow_simon_norep,2021.1.2,Win32,60.04563468,,,,,,,,,,,,,,,,,,,,,q,1,1.5055,48,FALSE,FALSE,11,3,47,3,1,,,,,,,
,,,,,,0,1.71139952,#a3d0fb,,right_blue.png,o,,,,,,o,right_blue.png,right_orange.png,p,left,60fc740c94213cac18d96f10,001,2021-08-01_14h07.43.315,arrow_simon_norep,2021.1.2,Win32,60.04563468,,,,,,,,,,,,,,,,,,,,,o,1,1.3458,49,FALSE,TRUE,12,0,48,0,1,,,,,,,
,,,,,,0,2.190289331,#f3af84,,left_orange.png,q,,,,,,w,left_blue.png,left_orange.png,q,left,60fc740c94213cac18d96f10,001,2021-08-01_14h07.43.315,arrow_simon_norep,2021.1.2,Win32,60.04563468,,,,,,,,,,,,,,,,,,,,,q,1,1.535,50,FALSE,FALSE,12,1,49,2,1,,,,,,,
,,,,,,0,1.682328991,#a3d0fb,,right_blue.png,o,,,,,,o,right_blue.png,right_orange.png,p,left,60fc740c94213cac18d96f10,001,2021-08-01_14h07.43.315,arrow_simon_norep,2021.1.2,Win32,60.04563468,,,,,,,,,,,,,,,,,,,,,o,1,1.3549,51,FALSE,TRUE,12,2,50,0,1,,,,,,,
,,,,,,0,2.436315822,#f3af84,,right_orange.png,p,,,,,,o,right_blue.png,right_orange.png,p,right,60fc740c94213cac18d96f10,001,2021-08-01_14h07.43.315,arrow_simon_norep,2021.1.2,Win32,60.04563468,,,,,,,,,,,,,,,,,,,,,p,1,1.7941,52,TRUE,FALSE,12,3,51,1,1,,,,,,,
,,,,,,0,2.126549356,#a3d0fb,,right_blue.png,o,,,,,,o,right_blue.png,right_orange.png,p,left,60fc740c94213cac18d96f10,001,2021-08-01_14h07.43.315,arrow_simon_norep,2021.1.2,Win32,60.04563468,,,,,,,,,,,,,,,,,,,,,w,0,1.659,53,TRUE,FALSE,13,0,52,0,1,,,,,,,
,,,,,,0,1.684875357,#f3af84,,right_orange.png,p,,,,,,o,right_blue.png,right_orange.png,p,right,60fc740c94213cac18d96f10,001,2021-08-01_14h07.43.315,arrow_simon_norep,2021.1.2,Win32,60.04563468,,,,,,,,,,,,,,,,,,,,,p,1,1.2442,54,FALSE,TRUE,13,1,53,1,1,,,,,,,
,,,,,,0,1.504597771,#a3d0fb,,left_blue.png,w,,,,,,w,left_blue.png,left_orange.png,q,left,60fc740c94213cac18d96f10,001,2021-08-01_14h07.43.315,arrow_simon_norep,2021.1.2,Win32,60.04563468,,,,,,,,,,,,,,,,,,,,,w,1,1.2133,55,FALSE,TRUE,13,2,54,2,1,,,,,,,
,,,,,,0,1.975611555,#f3af84,,left_orange.png,q,,,,,,w,left_blue.png,left_orange.png,q,right,60fc740c94213cac18d96f10,001,2021-08-01_14h07.43.315,arrow_simon_norep,2021.1.2,Win32,60.04563468,,,,,,,,,,,,,,,,,,,,,q,1,1.6554,56,TRUE,FALSE,13,3,55,3,1,,,,,,,
,,,,,,0,1.749264017,#a3d0fb,,left_blue.png,w,,,,,,w,left_blue.png,left_orange.png,q,left,60fc740c94213cac18d96f10,001,2021-08-01_14h07.43.315,arrow_simon_norep,2021.1.2,Win32,60.04563468,,,,,,,,,,,,,,,,,,,,,w,1,1.3249,57,FALSE,TRUE,14,0,56,2,1,,,,,,,
,,,,,,0,2.278624397,#f3af84,,right_orange.png,p,,,,,,o,right_blue.png,right_orange.png,p,left,60fc740c94213cac18d96f10,001,2021-08-01_14h07.43.315,arrow_simon_norep,2021.1.2,Win32,60.04563468,,,,,,,,,,,,,,,,,,,,,p,1,1.7105,58,TRUE,FALSE,14,1,57,0,1,,,,,,,
,,,,,,1,1.932907339,#a3d0fb,,right_blue.png,o,,,,,,o,right_blue.png,right_orange.png,p,left,60fc740c94213cac18d96f10,001,2021-08-01_14h07.43.315,arrow_simon_norep,2021.1.2,Win32,60.04563468,,,,,,,,,,,,,,,,,,,,,w,0,1.4747,59,FALSE,FALSE,14,2,58,0,1,,,,,,,
,,,,,,0,2.143538295,#f3af84,,left_orange.png,q,,,,,,w,left_blue.png,left_orange.png,q,left,60fc740c94213cac18d96f10,001,2021-08-01_14h07.43.315,arrow_simon_norep,2021.1.2,Win32,60.04563468,,,,,,,,,,,,,,,,,,,,,q,1,1.5055,60,FALSE,FALSE,14,3,59,2,1,,,,,,,
,,,,,,,,,,,,,,,,,,,,,,60fc740c94213cac18d96f10,001,2021-08-01_14h07.43.315,arrow_simon_norep,2021.1.2,Win32,60.04563468,,,,,,,,,,,,,,,,,,,,,,,,,,,,,,,,space,193.8622,1,0,1,0,1
,,,,,,0,2.459967957,#a3d0fb,,left_blue.png,w,,,,,,w,left_blue.png,left_orange.png,q,left,60fc740c94213cac18d96f10,001,2021-08-01_14h07.43.315,arrow_simon_norep,2021.1.2,Win32,60.04563468,,,,,,,,,,,,,,,,,,,,,q,0,1.938,1,TRUE,FALSE,0,0,0,2,1,,,,,,,
,,,,,,0,2.36756627,#f3af84,,right_orange.png,p,,,,,,o,right_blue.png,right_orange.png,p,left,60fc740c94213cac18d96f10,001,2021-08-01_14h07.43.315,arrow_simon_norep,2021.1.2,Win32,60.04563468,,,,,,,,,,,,,,,,,,,,,p,1,1.417,2,FALSE,FALSE,0,1,1,0,1,,,,,,,
,,,,,,0,1.934443007,#a3d0fb,,right_blue.png,o,,,,,,o,right_blue.png,right_orange.png,p,right,60fc740c94213cac18d96f10,001,2021-08-01_14h07.43.315,arrow_simon_norep,2021.1.2,Win32,60.04563468,,,,,,,,,,,,,,,,,,,,,o,1,1.2849,3,FALSE,TRUE,0,2,2,1,1,,,,,,,
,,,,,,0,1.744937356,#f3af84,,right_orange.png,p,,,,,,o,right_blue.png,right_orange.png,p,right,60fc740c94213cac18d96f10,001,2021-08-01_14h07.43.315,arrow_simon_norep,2021.1.2,Win32,60.04563468,,,,,,,,,,,,,,,,,,,,,p,1,1.1023,4,FALSE,TRUE,0,3,3,1,1,,,,,,,
,,,,,,0,2.444072514,#a3d0fb,,right_blue.png,o,,,,,,o,right_blue.png,right_orange.png,p,left,60fc740c94213cac18d96f10,001,2021-08-01_14h07.43.315,arrow_simon_norep,2021.1.2,Win32,60.04563468,,,,,,,,,,,,,,,,,,,,,o,1,1.9499,5,TRUE,FALSE,1,0,4,0,1,,,,,,,
,,,,,,0,1.914526318,#f3af84,,right_orange.png,p,,,,,,o,right_blue.png,right_orange.png,p,left,60fc740c94213cac18d96f10,001,2021-08-01_14h07.43.315,arrow_simon_norep,2021.1.2,Win32,60.04563468,,,,,,,,,,,,,,,,,,,,,p,1,1.5886,6,FALSE,FALSE,1,1,5,0,1,,,,,,,
,,,,,,0,2.46383532,#a3d0fb,,right_blue.png,o,,,,,,o,right_blue.png,right_orange.png,p,right,60fc740c94213cac18d96f10,001,2021-08-01_14h07.43.315,arrow_simon_norep,2021.1.2,Win32,60.04563468,,,,,,,,,,,,,,,,,,,,,o,1,1.7564,7,TRUE,FALSE,1,2,6,1,1,,,,,,,
,,,,,,0,1.502734551,#f3af84,,right_orange.png,p,,,,,,o,right_blue.png,right_orange.png,p,left,60fc740c94213cac18d96f10,001,2021-08-01_14h07.43.315,arrow_simon_norep,2021.1.2,Win32,60.04563468,,,,,,,,,,,,,,,,,,,,,p,1,1.5216,8,FALSE,FALSE,1,3,7,0,1,,,,,,,
,,,,,,0,2.364613238,#a3d0fb,,left_blue.png,w,,,,,,w,left_blue.png,left_orange.png,q,right,60fc740c94213cac18d96f10,001,2021-08-01_14h07.43.315,arrow_simon_norep,2021.1.2,Win32,60.04563468,,,,,,,,,,,,,,,,,,,,,w,1,1.7444,9,TRUE,FALSE,2,0,8,3,1,,,,,,,
,,,,,,0,1.508051719,#f3af84,,right_orange.png,p,,,,,,o,right_blue.png,right_orange.png,p,left,60fc740c94213cac18d96f10,001,2021-08-01_14h07.43.315,arrow_simon_norep,2021.1.2,Win32,60.04563468,,,,,,,,,,,,,,,,,,,,,p,1,1.2113,10,FALSE,TRUE,2,1,9,0,1,,,,,,,
,,,,,,0,2.4815008,#a3d0fb,,left_blue.png,w,,,,,,w,left_blue.png,left_orange.png,q,right,60fc740c94213cac18d96f10,001,2021-08-01_14h07.43.315,arrow_simon_norep,2021.1.2,Win32,60.04563468,,,,,,,,,,,,,,,,,,,,,o,0,1.7654,11,TRUE,FALSE,2,2,10,3,1,,,,,,,
,,,,,,0,2.342632584,#f3af84,,right_orange.png,p,,,,,,o,right_blue.png,right_orange.png,p,left,60fc740c94213cac18d96f10,001,2021-08-01_14h07.43.315,arrow_simon_norep,2021.1.2,Win32,60.04563468,,,,,,,,,,,,,,,,,,,,,p,1,1.6569,12,TRUE,FALSE,2,3,11,0,1,,,,,,,
,,,,,,0,1.933186021,#a3d0fb,,right_blue.png,o,,,,,,o,right_blue.png,right_orange.png,p,right,60fc740c94213cac18d96f10,001,2021-08-01_14h07.43.315,arrow_simon_norep,2021.1.2,Win32,60.04563468,,,,,,,,,,,,,,,,,,,,,o,1,1.3708,13,FALSE,TRUE,3,0,12,1,1,,,,,,,
,,,,,,0,1.991337232,#f3af84,,right_orange.png,p,,,,,,o,right_blue.png,right_orange.png,p,right,60fc740c94213cac18d96f10,001,2021-08-01_14h07.43.315,arrow_simon_norep,2021.1.2,Win32,60.04563468,,,,,,,,,,,,,,,,,,,,,p,1,1.4013,14,FALSE,FALSE,3,1,13,1,1,,,,,,,
,,,,,,0,2.059146575,#a3d0fb,,left_blue.png,w,,,,,,w,left_blue.png,left_orange.png,q,right,60fc740c94213cac18d96f10,001,2021-08-01_14h07.43.315,arrow_simon_norep,2021.1.2,Win32,60.04563468,,,,,,,,,,,,,,,,,,,,,w,1,1.6033,15,TRUE,FALSE,3,2,14,3,1,,,,,,,
,,,,,,0,1.533222901,#f3af84,,right_orange.png,p,,,,,,o,right_blue.png,right_orange.png,p,right,60fc740c94213cac18d96f10,001,2021-08-01_14h07.43.315,arrow_simon_norep,2021.1.2,Win32,60.04563468,,,,,,,,,,,,,,,,,,,,,p,1,1.4356,16,FALSE,FALSE,3,3,15,1,1,,,,,,,
,,,,,,0,1.50693503,#a3d0fb,,left_blue.png,w,,,,,,w,left_blue.png,left_orange.png,q,right,60fc740c94213cac18d96f10,001,2021-08-01_14h07.43.315,arrow_simon_norep,2021.1.2,Win32,60.04563468,,,,,,,,,,,,,,,,,,,,,w,1,1.5201,17,FALSE,FALSE,4,0,16,3,1,,,,,,,
,,,,,,0,2.408947151,#f3af84,,right_orange.png,p,,,,,,o,right_blue.png,right_orange.png,p,left,60fc740c94213cac18d96f10,001,2021-08-01_14h07.43.315,arrow_simon_norep,2021.1.2,Win32,60.04563468,,,,,,,,,,,,,,,,,,,,,p,1,1.6857,18,TRUE,FALSE,4,1,17,0,1,,,,,,,
,,,,,,0,1.91418972,#a3d0fb,,left_blue.png,w,,,,,,w,left_blue.png,left_orange.png,q,left,60fc740c94213cac18d96f10,001,2021-08-01_14h07.43.315,arrow_simon_norep,2021.1.2,Win32,60.04563468,,,,,,,,,,,,,,,,,,,,,w,1,1.4031,19,FALSE,FALSE,4,2,18,2,1,,,,,,,
,,,,,,1,2.444699421,#f3af84,,left_orange.png,q,,,,,,w,left_blue.png,left_orange.png,q,left,60fc740c94213cac18d96f10,001,2021-08-01_14h07.43.315,arrow_simon_norep,2021.1.2,Win32,60.04563468,,,,,,,,,,,,,,,,,,,,,p,0,1.5091,20,FALSE,FALSE,4,3,19,2,1,,,,,,,
,,,,,,0,2.039479049,#a3d0fb,,right_blue.png,o,,,,,,o,right_blue.png,right_orange.png,p,right,60fc740c94213cac18d96f10,001,2021-08-01_14h07.43.315,arrow_simon_norep,2021.1.2,Win32,60.04563468,,,,,,,,,,,,,,,,,,,,,o,1,1.5529,21,FALSE,FALSE,5,0,20,1,1,,,,,,,
,,,,,,0,2.197393667,#f3af84,,left_orange.png,q,,,,,,w,left_blue.png,left_orange.png,q,left,60fc740c94213cac18d96f10,001,2021-08-01_14h07.43.315,arrow_simon_norep,2021.1.2,Win32,60.04563468,,,,,,,,,,,,,,,,,,,,,q,1,1.4643,22,FALSE,FALSE,5,1,21,2,1,,,,,,,
,,,,,,0,2.095273812,#a3d0fb,,right_blue.png,o,,,,,,o,right_blue.png,right_orange.png,p,right,60fc740c94213cac18d96f10,001,2021-08-01_14h07.43.315,arrow_simon_norep,2021.1.2,Win32,60.04563468,,,,,,,,,,,,,,,,,,,,,o,1,1.5108,23,FALSE,FALSE,5,2,22,1,1,,,,,,,
,,,,,,0,1.655050691,#f3af84,,left_orange.png,q,,,,,,w,left_blue.png,left_orange.png,q,right,60fc740c94213cac18d96f10,001,2021-08-01_14h07.43.315,arrow_simon_norep,2021.1.2,Win32,60.04563468,,,,,,,,,,,,,,,,,,,,,q,1,1.212,24,FALSE,TRUE,5,3,23,3,1,,,,,,,
,,,,,,0,2.457236782,#a3d0fb,,left_blue.png,w,,,,,,w,left_blue.png,left_orange.png,q,right,60fc740c94213cac18d96f10,001,2021-08-01_14h07.43.315,arrow_simon_norep,2021.1.2,Win32,60.04563468,,,,,,,,,,,,,,,,,,,,,w,1,1.8521,25,TRUE,FALSE,6,0,24,3,1,,,,,,,
,,,,,,0,2.368483835,#f3af84,,left_orange.png,q,,,,,,w,left_blue.png,left_orange.png,q,left,60fc740c94213cac18d96f10,001,2021-08-01_14h07.43.315,arrow_simon_norep,2021.1.2,Win32,60.04563468,,,,,,,,,,,,,,,,,,,,,q,1,1.478,26,FALSE,FALSE,6,1,25,2,1,,,,,,,
,,,,,,0,2.442018376,#a3d0fb,,left_blue.png,w,,,,,,w,left_blue.png,left_orange.png,q,right,60fc740c94213cac18d96f10,001,2021-08-01_14h07.43.315,arrow_simon_norep,2021.1.2,Win32,60.04563468,,,,,,,,,,,,,,,,,,,,,o,0,1.7198,27,TRUE,FALSE,6,2,26,3,1,,,,,,,
,,,,,,0,1.528435731,#f3af84,,left_orange.png,q,,,,,,w,left_blue.png,left_orange.png,q,left,60fc740c94213cac18d96f10,001,2021-08-01_14h07.43.315,arrow_simon_norep,2021.1.2,Win32,60.04563468,,,,,,,,,,,,,,,,,,,,,q,1,1.3742,28,FALSE,TRUE,6,3,27,2,1,,,,,,,
,,,,,,0,2.084371912,#a3d0fb,,right_blue.png,o,,,,,,o,right_blue.png,right_orange.png,p,right,60fc740c94213cac18d96f10,001,2021-08-01_14h07.43.315,arrow_simon_norep,2021.1.2,Win32,60.04563468,,,,,,,,,,,,,,,,,,,,,o,1,1.8887,29,TRUE,FALSE,7,0,28,1,1,,,,,,,
,,,,,,0,2.479274841,#f3af84,,right_orange.png,p,,,,,,o,right_blue.png,right_orange.png,p,right,60fc740c94213cac18d96f10,001,2021-08-01_14h07.43.315,arrow_simon_norep,2021.1.2,Win32,60.04563468,,,,,,,,,,,,,,,,,,,,,p,1,1.8078,30,TRUE,FALSE,7,1,29,1,1,,,,,,,
,,,,,,0,2.338127216,#a3d0fb,,left_blue.png,w,,,,,,w,left_blue.png,left_orange.png,q,right,60fc740c94213cac18d96f10,001,2021-08-01_14h07.43.315,arrow_simon_norep,2021.1.2,Win32,60.04563468,,,,,,,,,,,,,,,,,,,,,q,0,1.8596,31,TRUE,FALSE,7,2,30,3,1,,,,,,,
,,,,,,0,1.935713605,#f3af84,,left_orange.png,q,,,,,,w,left_blue.png,left_orange.png,q,right,60fc740c94213cac18d96f10,001,2021-08-01_14h07.43.315,arrow_simon_norep,2021.1.2,Win32,60.04563468,,,,,,,,,,,,,,,,,,,,,q,1,1.4428,32,FALSE,FALSE,7,3,31,3,1,,,,,,,
,,,,,,0,2.188607403,#a3d0fb,,right_blue.png,o,,,,,,o,right_blue.png,right_orange.png,p,right,60fc740c94213cac18d96f10,001,2021-08-01_14h07.43.315,arrow_simon_norep,2021.1.2,Win32,60.04563468,,,,,,,,,,,,,,,,,,,,,o,1,1.493,33,FALSE,FALSE,8,0,32,1,1,,,,,,,
,,,,,,0,1.787019338,#f3af84,,left_orange.png,q,,,,,,w,left_blue.png,left_orange.png,q,right,60fc740c94213cac18d96f10,001,2021-08-01_14h07.43.315,arrow_simon_norep,2021.1.2,Win32,60.04563468,,,,,,,,,,,,,,,,,,,,,q,1,1.5082,34,FALSE,FALSE,8,1,33,3,1,,,,,,,
,,,,,,0,2.439748957,#a3d0fb,,left_blue.png,w,,,,,,w,left_blue.png,left_orange.png,q,right,60fc740c94213cac18d96f10,001,2021-08-01_14h07.43.315,arrow_simon_norep,2021.1.2,Win32,60.04563468,,,,,,,,,,,,,,,,,,,,,o,0,1.7776,35,TRUE,FALSE,8,2,34,3,1,,,,,,,
,,,,,,0,1.677803138,#f3af84,,left_orange.png,q,,,,,,w,left_blue.png,left_orange.png,q,left,60fc740c94213cac18d96f10,001,2021-08-01_14h07.43.315,arrow_simon_norep,2021.1.2,Win32,60.04563468,,,,,,,,,,,,,,,,,,,,,q,1,1.3075,36,FALSE,TRUE,8,3,35,2,1,,,,,,,
,,,,,,0,1.773519334,#a3d0fb,,left_blue.png,w,,,,,,w,left_blue.png,left_orange.png,q,left,60fc740c94213cac18d96f10,001,2021-08-01_14h07.43.315,arrow_simon_norep,2021.1.2,Win32,60.04563468,,,,,,,,,,,,,,,,,,,,,w,1,1.1514,37,FALSE,TRUE,9,0,36,2,1,,,,,,,
,,,,,,0,1.954390436,#f3af84,,left_orange.png,q,,,,,,w,left_blue.png,left_orange.png,q,left,60fc740c94213cac18d96f10,001,2021-08-01_14h07.43.315,arrow_simon_norep,2021.1.2,Win32,60.04563468,,,,,,,,,,,,,,,,,,,,,q,1,1.512,38,FALSE,FALSE,9,1,37,2,1,,,,,,,
,,,,,,1,1.916393551,#a3d0fb,,right_blue.png,o,,,,,,o,right_blue.png,right_orange.png,p,left,60fc740c94213cac18d96f10,001,2021-08-01_14h07.43.315,arrow_simon_norep,2021.1.2,Win32,60.04563468,,,,,,,,,,,,,,,,,,,,,w,0,1.4674,39,FALSE,FALSE,9,2,38,0,1,,,,,,,
,,,,,,0,1.611463945,#f3af84,,left_orange.png,q,,,,,,w,left_blue.png,left_orange.png,q,right,60fc740c94213cac18d96f10,001,2021-08-01_14h07.43.315,arrow_simon_norep,2021.1.2,Win32,60.04563468,,,,,,,,,,,,,,,,,,,,,q,1,1.4036,40,FALSE,FALSE,9,3,39,3,1,,,,,,,
,,,,,,0,1.699351075,#a3d0fb,,right_blue.png,o,,,,,,o,right_blue.png,right_orange.png,p,left,60fc740c94213cac18d96f10,001,2021-08-01_14h07.43.315,arrow_simon_norep,2021.1.2,Win32,60.04563468,,,,,,,,,,,,,,,,,,,,,o,1,1.4879,41,FALSE,FALSE,10,0,40,0,1,,,,,,,
,,,,,,0,2.496078526,#f3af84,,right_orange.png,p,,,,,,o,right_blue.png,right_orange.png,p,left,60fc740c94213cac18d96f10,001,2021-08-01_14h07.43.315,arrow_simon_norep,2021.1.2,Win32,60.04563468,,,,,,,,,,,,,,,,,,,,,p,1,2.0522,42,TRUE,FALSE,10,1,41,0,1,,,,,,,
,,,,,,0,1.926249508,#a3d0fb,,right_blue.png,o,,,,,,o,right_blue.png,right_orange.png,p,left,60fc740c94213cac18d96f10,001,2021-08-01_14h07.43.315,arrow_simon_norep,2021.1.2,Win32,60.04563468,,,,,,,,,,,,,,,,,,,,,o,1,1.3697,43,FALSE,TRUE,10,2,42,0,1,,,,,,,
,,,,,,0,1.510988569,#f3af84,,left_orange.png,q,,,,,,w,left_blue.png,left_orange.png,q,right,60fc740c94213cac18d96f10,001,2021-08-01_14h07.43.315,arrow_simon_norep,2021.1.2,Win32,60.04563468,,,,,,,,,,,,,,,,,,,,,q,1,1.5383,44,FALSE,FALSE,10,3,43,3,1,,,,,,,
,,,,,,0,1.64571316,#a3d0fb,,left_blue.png,w,,,,,,w,left_blue.png,left_orange.png,q,left,60fc740c94213cac18d96f10,001,2021-08-01_14h07.43.315,arrow_simon_norep,2021.1.2,Win32,60.04563468,,,,,,,,,,,,,,,,,,,,,w,1,1.3843,45,FALSE,TRUE,11,0,44,2,1,,,,,,,
,,,,,,0,1.639952607,#f3af84,,right_orange.png,p,,,,,,o,right_blue.png,right_orange.png,p,left,60fc740c94213cac18d96f10,001,2021-08-01_14h07.43.315,arrow_simon_norep,2021.1.2,Win32,60.04563468,,,,,,,,,,,,,,,,,,,,,w,0,1.3576,46,FALSE,TRUE,11,1,45,0,1,,,,,,,
,,,,,,0,1.585631224,#a3d0fb,,right_blue.png,o,,,,,,o,right_blue.png,right_orange.png,p,right,60fc740c94213cac18d96f10,001,2021-08-01_14h07.43.315,arrow_simon_norep,2021.1.2,Win32,60.04563468,,,,,,,,,,,,,,,,,,,,,q,0,0.7705,47,FALSE,TRUE,11,2,46,1,1,,,,,,,
,,,,,,0,1.633144102,#f3af84,,right_orange.png,p,,,,,,o,right_blue.png,right_orange.png,p,right,60fc740c94213cac18d96f10,001,2021-08-01_14h07.43.315,arrow_simon_norep,2021.1.2,Win32,60.04563468,,,,,,,,,,,,,,,,,,,,,p,1,1.675,48,TRUE,FALSE,11,3,47,1,1,,,,,,,
,,,,,,0,1.799794643,#a3d0fb,,right_blue.png,o,,,,,,o,right_blue.png,right_orange.png,p,right,60fc740c94213cac18d96f10,001,2021-08-01_14h07.43.315,arrow_simon_norep,2021.1.2,Win32,60.04563468,,,,,,,,,,,,,,,,,,,,,o,1,1.6405,49,TRUE,FALSE,12,0,48,1,1,,,,,,,
,,,,,,0,1.562649602,#f3af84,,left_orange.png,q,,,,,,w,left_blue.png,left_orange.png,q,left,60fc740c94213cac18d96f10,001,2021-08-01_14h07.43.315,arrow_simon_norep,2021.1.2,Win32,60.04563468,,,,,,,,,,,,,,,,,,,,,q,1,1.5442,50,FALSE,FALSE,12,1,49,2,1,,,,,,,
,,,,,,0,2.022166118,#a3d0fb,,right_blue.png,o,,,,,,o,right_blue.png,right_orange.png,p,right,60fc740c94213cac18d96f10,001,2021-08-01_14h07.43.315,arrow_simon_norep,2021.1.2,Win32,60.04563468,,,,,,,,,,,,,,,,,,,,,o,1,1.6512,51,TRUE,FALSE,12,2,50,1,1,,,,,,,
,,,,,,0,2.21773004,#f3af84,,left_orange.png,q,,,,,,w,left_blue.png,left_orange.png,q,right,60fc740c94213cac18d96f10,001,2021-08-01_14h07.43.315,arrow_simon_norep,2021.1.2,Win32,60.04563468,,,,,,,,,,,,,,,,,,,,,q,1,1.8514,52,TRUE,FALSE,12,3,51,3,1,,,,,,,
,,,,,,0,1.509806423,#a3d0fb,,left_blue.png,w,,,,,,w,left_blue.png,left_orange.png,q,left,60fc740c94213cac18d96f10,001,2021-08-01_14h07.43.315,arrow_simon_norep,2021.1.2,Win32,60.04563468,,,,,,,,,,,,,,,,,,,,,w,1,1.1607,53,FALSE,TRUE,13,0,52,2,1,,,,,,,
,,,,,,0,1.53958449,#f3af84,,left_orange.png,q,,,,,,w,left_blue.png,left_orange.png,q,left,60fc740c94213cac18d96f10,001,2021-08-01_14h07.43.315,arrow_simon_norep,2021.1.2,Win32,60.04563468,,,,,,,,,,,,,,,,,,,,,q,1,1.5864,54,FALSE,FALSE,13,1,53,2,1,,,,,,,
,,,,,,0,1.506693962,#a3d0fb,,right_blue.png,o,,,,,,o,right_blue.png,right_orange.png,p,left,60fc740c94213cac18d96f10,001,2021-08-01_14h07.43.315,arrow_simon_norep,2021.1.2,Win32,60.04563468,,,,,,,,,,,,,,,,,,,,,o,1,1.5018,55,FALSE,FALSE,13,2,54,0,1,,,,,,,
,,,,,,0,1.975397441,#f3af84,,left_orange.png,q,,,,,,w,left_blue.png,left_orange.png,q,right,60fc740c94213cac18d96f10,001,2021-08-01_14h07.43.315,arrow_simon_norep,2021.1.2,Win32,60.04563468,,,,,,,,,,,,,,,,,,,,,q,1,1.5847,56,FALSE,FALSE,13,3,55,3,1,,,,,,,
,,,,,,0,2.085066994,#a3d0fb,,left_blue.png,w,,,,,,w,left_blue.png,left_orange.png,q,left,60fc740c94213cac18d96f10,001,2021-08-01_14h07.43.315,arrow_simon_norep,2021.1.2,Win32,60.04563468,,,,,,,,,,,,,,,,,,,,,w,1,1.4817,57,FALSE,FALSE,14,0,56,2,1,,,,,,,
,,,,,,0,2.460740212,#f3af84,,right_orange.png,p,,,,,,o,right_blue.png,right_orange.png,p,left,60fc740c94213cac18d96f10,001,2021-08-01_14h07.43.315,arrow_simon_norep,2021.1.2,Win32,60.04563468,,,,,,,,,,,,,,,,,,,,,p,1,1.4195,58,FALSE,FALSE,14,1,57,0,1,,,,,,,
,,,,,,0,1.88634547,#a3d0fb,,left_blue.png,w,,,,,,w,left_blue.png,left_orange.png,q,left,60fc740c94213cac18d96f10,001,2021-08-01_14h07.43.315,arrow_simon_norep,2021.1.2,Win32,60.04563468,,,,,,,,,,,,,,,,,,,,,w,1,1.4108,59,FALSE,FALSE,14,2,58,2,1,,,,,,,
,,,,,,0,1.973946825,#f3af84,,right_orange.png,p,,,,,,o,right_blue.png,right_orange.png,p,left,60fc740c94213cac18d96f10,001,2021-08-01_14h07.43.315,arrow_simon_norep,2021.1.2,Win32,60.04563468,,,,,,,,,,,,,,,,,,,,,p,1,1.47,60,FALSE,FALSE,14,3,59,0,1,,,,,,,
,,,,,,,,,,,,,,,,,,,,,,60fc740c94213cac18d96f10,001,2021-08-01_14h07.43.315,arrow_simon_norep,2021.1.2,Win32,60.04563468,,,,,,,,,,,,,,,,,,,,,,,,,,,,,,,,space,75.3442,2,0,2,0,1
,,,,,,0,2.263386522,#a3d0fb,,left_blue.png,w,,,,,,w,left_blue.png,left_orange.png,q,right,60fc740c94213cac18d96f10,001,2021-08-01_14h07.43.315,arrow_simon_norep,2021.1.2,Win32,60.04563468,,,,,,,,,,,,,,,,,,,,,w,1,1.6931,1,TRUE,FALSE,0,0,0,3,1,,,,,,,
,,,,,,0,1.513192856,#f3af84,,right_orange.png,p,,,,,,o,right_blue.png,right_orange.png,p,right,60fc740c94213cac18d96f10,001,2021-08-01_14h07.43.315,arrow_simon_norep,2021.1.2,Win32,60.04563468,,,,,,,,,,,,,,,,,,,,,p,1,1.5441,2,FALSE,FALSE,0,1,1,1,1,,,,,,,
,,,,,,0,1.866915149,#a3d0fb,,right_blue.png,o,,,,,,o,right_blue.png,right_orange.png,p,left,60fc740c94213cac18d96f10,001,2021-08-01_14h07.43.315,arrow_simon_norep,2021.1.2,Win32,60.04563468,,,,,,,,,,,,,,,,,,,,,o,1,1.3769,3,FALSE,TRUE,0,2,2,0,1,,,,,,,
,,,,,,0,2.483095012,#f3af84,,left_orange.png,q,,,,,,w,left_blue.png,left_orange.png,q,left,60fc740c94213cac18d96f10,001,2021-08-01_14h07.43.315,arrow_simon_norep,2021.1.2,Win32,60.04563468,,,,,,,,,,,,,,,,,,,,,q,1,1.9929,4,TRUE,FALSE,0,3,3,2,1,,,,,,,
,,,,,,0,1.517568258,#a3d0fb,,left_blue.png,w,,,,,,w,left_blue.png,left_orange.png,q,right,60fc740c94213cac18d96f10,001,2021-08-01_14h07.43.315,arrow_simon_norep,2021.1.2,Win32,60.04563468,,,,,,,,,,,,,,,,,,,,,w,1,1.535,5,FALSE,FALSE,1,0,4,3,1,,,,,,,
,,,,,,0,2.158346272,#f3af84,,left_orange.png,q,,,,,,w,left_blue.png,left_orange.png,q,left,60fc740c94213cac18d96f10,001,2021-08-01_14h07.43.315,arrow_simon_norep,2021.1.2,Win32,60.04563468,,,,,,,,,,,,,,,,,,,,,q,1,1.5262,6,FALSE,FALSE,1,1,5,2,1,,,,,,,
,,,,,,0,1.909747321,#a3d0fb,,right_blue.png,o,,,,,,o,right_blue.png,right_orange.png,p,right,60fc740c94213cac18d96f10,001,2021-08-01_14h07.43.315,arrow_simon_norep,2021.1.2,Win32,60.04563468,,,,,,,,,,,,,,,,,,,,,o,1,1.5816,7,FALSE,FALSE,1,2,6,1,1,,,,,,,
,,,,,,0,2.00965426,#f3af84,,left_orange.png,q,,,,,,w,left_blue.png,left_orange.png,q,left,60fc740c94213cac18d96f10,001,2021-08-01_14h07.43.315,arrow_simon_norep,2021.1.2,Win32,60.04563468,,,,,,,,,,,,,,,,,,,,,q,1,1.8519,8,TRUE,FALSE,1,3,7,2,1,,,,,,,
,,,,,,0,1.79663921,#a3d0fb,,left_blue.png,w,,,,,,w,left_blue.png,left_orange.png,q,left,60fc740c94213cac18d96f10,001,2021-08-01_14h07.43.315,arrow_simon_norep,2021.1.2,Win32,60.04563468,,,,,,,,,,,,,,,,,,,,,w,1,1.5388,9,FALSE,FALSE,2,0,8,2,1,,,,,,,
,,,,,,0,2.296515332,#f3af84,,left_orange.png,q,,,,,,w,left_blue.png,left_orange.png,q,left,60fc740c94213cac18d96f10,001,2021-08-01_14h07.43.315,arrow_simon_norep,2021.1.2,Win32,60.04563468,,,,,,,,,,,,,,,,,,,,,q,1,1.5649,10,FALSE,FALSE,2,1,9,2,1,,,,,,,
,,,,,,0,1.981686295,#a3d0fb,,left_blue.png,w,,,,,,w,left_blue.png,left_orange.png,q,right,60fc740c94213cac18d96f10,001,2021-08-01_14h07.43.315,arrow_simon_norep,2021.1.2,Win32,60.04563468,,,,,,,,,,,,,,,,,,,,,w,1,1.5412,11,FALSE,FALSE,2,2,10,3,1,,,,,,,
,,,,,,0,2.382451698,#f3af84,,right_orange.png,p,,,,,,o,right_blue.png,right_orange.png,p,right,60fc740c94213cac18d96f10,001,2021-08-01_14h07.43.315,arrow_simon_norep,2021.1.2,Win32,60.04563468,,,,,,,,,,,,,,,,,,,,,p,1,1.6683,12,TRUE,FALSE,2,3,11,1,1,,,,,,,
,,,,,,0,2.387303218,#a3d0fb,,right_blue.png,o,,,,,,o,right_blue.png,right_orange.png,p,left,60fc740c94213cac18d96f10,001,2021-08-01_14h07.43.315,arrow_simon_norep,2021.1.2,Win32,60.04563468,,,,,,,,,,,,,,,,,,,,,w,0,1.6685,13,TRUE,FALSE,3,0,12,0,1,,,,,,,
,,,,,,0,1.53796891,#f3af84,,right_orange.png,p,,,,,,o,right_blue.png,right_orange.png,p,left,60fc740c94213cac18d96f10,001,2021-08-01_14h07.43.315,arrow_simon_norep,2021.1.2,Win32,60.04563468,,,,,,,,,,,,,,,,,,,,,p,1,1.4022,14,FALSE,FALSE,3,1,13,0,1,,,,,,,
,,,,,,0,1.634311418,#a3d0fb,,left_blue.png,w,,,,,,w,left_blue.png,left_orange.png,q,left,60fc740c94213cac18d96f10,001,2021-08-01_14h07.43.315,arrow_simon_norep,2021.1.2,Win32,60.04563468,,,,,,,,,,,,,,,,,,,,,w,1,1.0788,15,FALSE,TRUE,3,2,14,2,1,,,,,,,
,,,,,,0,1.619295442,#f3af84,,left_orange.png,q,,,,,,w,left_blue.png,left_orange.png,q,right,60fc740c94213cac18d96f10,001,2021-08-01_14h07.43.315,arrow_simon_norep,2021.1.2,Win32,60.04563468,,,,,,,,,,,,,,,,,,,,,q,1,1.6793,16,TRUE,FALSE,3,3,15,3,1,,,,,,,
,,,,,,0,1.717363947,#a3d0fb,,right_blue.png,o,,,,,,o,right_blue.png,right_orange.png,p,right,60fc740c94213cac18d96f10,001,2021-08-01_14h07.43.315,arrow_simon_norep,2021.1.2,Win32,60.04563468,,,,,,,,,,,,,,,,,,,,,o,1,1.6842,17,TRUE,FALSE,4,0,16,1,1,,,,,,,
,,,,,,0,1.606549208,#f3af84,,right_orange.png,p,,,,,,o,right_blue.png,right_orange.png,p,left,60fc740c94213cac18d96f10,001,2021-08-01_14h07.43.315,arrow_simon_norep,2021.1.2,Win32,60.04563468,,,,,,,,,,,,,,,,,,,,,p,1,1.6035,18,TRUE,FALSE,4,1,17,0,1,,,,,,,
,,,,,,0,2.386853298,#a3d0fb,,right_blue.png,o,,,,,,o,right_blue.png,right_orange.png,p,right,60fc740c94213cac18d96f10,001,2021-08-01_14h07.43.315,arrow_simon_norep,2021.1.2,Win32,60.04563468,,,,,,,,,,,,,,,,,,,,,o,1,1.7239,19,TRUE,FALSE,4,2,18,1,1,,,,,,,
,,,,,,0,1.694360485,#f3af84,,left_orange.png,q,,,,,,w,left_blue.png,left_orange.png,q,right,60fc740c94213cac18d96f10,001,2021-08-01_14h07.43.315,arrow_simon_norep,2021.1.2,Win32,60.04563468,,,,,,,,,,,,,,,,,,,,,q,1,1.6014,20,TRUE,FALSE,4,3,19,3,1,,,,,,,
,,,,,,0,1.867647105,#a3d0fb,,right_blue.png,o,,,,,,o,right_blue.png,right_orange.png,p,right,60fc740c94213cac18d96f10,001,2021-08-01_14h07.43.315,arrow_simon_norep,2021.1.2,Win32,60.04563468,,,,,,,,,,,,,,,,,,,,,o,1,1.4437,21,FALSE,FALSE,5,0,20,1,1,,,,,,,
,,,,,,0,1.605748688,#f3af84,,left_orange.png,q,,,,,,w,left_blue.png,left_orange.png,q,right,60fc740c94213cac18d96f10,001,2021-08-01_14h07.43.315,arrow_simon_norep,2021.1.2,Win32,60.04563468,,,,,,,,,,,,,,,,,,,,,q,1,1.4787,22,FALSE,FALSE,5,1,21,3,1,,,,,,,
,,,,,,0,2.304488307,#a3d0fb,,right_blue.png,o,,,,,,o,right_blue.png,right_orange.png,p,right,60fc740c94213cac18d96f10,001,2021-08-01_14h07.43.315,arrow_simon_norep,2021.1.2,Win32,60.04563468,,,,,,,,,,,,,,,,,,,,,o,1,1.6628,23,TRUE,FALSE,5,2,22,1,1,,,,,,,
,,,,,,0,2.085747482,#f3af84,,right_orange.png,p,,,,,,o,right_blue.png,right_orange.png,p,right,60fc740c94213cac18d96f10,001,2021-08-01_14h07.43.315,arrow_simon_norep,2021.1.2,Win32,60.04563468,,,,,,,,,,,,,,,,,,,,,p,1,1.5638,24,FALSE,FALSE,5,3,23,1,1,,,,,,,
,,,,,,0,2.401169404,#a3d0fb,,right_blue.png,o,,,,,,o,right_blue.png,right_orange.png,p,left,60fc740c94213cac18d96f10,001,2021-08-01_14h07.43.315,arrow_simon_norep,2021.1.2,Win32,60.04563468,,,,,,,,,,,,,,,,,,,,,w,0,1.7268,25,TRUE,FALSE,6,0,24,0,1,,,,,,,
,,,,,,0,2.440973291,#f3af84,,right_orange.png,p,,,,,,o,right_blue.png,right_orange.png,p,left,60fc740c94213cac18d96f10,001,2021-08-01_14h07.43.315,arrow_simon_norep,2021.1.2,Win32,60.04563468,,,,,,,,,,,,,,,,,,,,,q,0,1.6892,26,TRUE,FALSE,6,1,25,0,1,,,,,,,
,,,,,,0,1.960951639,#a3d0fb,,right_blue.png,o,,,,,,o,right_blue.png,right_orange.png,p,right,60fc740c94213cac18d96f10,001,2021-08-01_14h07.43.315,arrow_simon_norep,2021.1.2,Win32,60.04563468,,,,,,,,,,,,,,,,,,,,,o,1,1.4013,27,FALSE,FALSE,6,2,26,1,1,,,,,,,
,,,,,,0,2.325178692,#f3af84,,left_orange.png,q,,,,,,w,left_blue.png,left_orange.png,q,left,60fc740c94213cac18d96f10,001,2021-08-01_14h07.43.315,arrow_simon_norep,2021.1.2,Win32,60.04563468,,,,,,,,,,,,,,,,,,,,,q,1,1.6091,28,TRUE,FALSE,6,3,27,2,1,,,,,,,
,,,,,,0,1.791078664,#a3d0fb,,right_blue.png,o,,,,,,o,right_blue.png,right_orange.png,p,right,60fc740c94213cac18d96f10,001,2021-08-01_14h07.43.315,arrow_simon_norep,2021.1.2,Win32,60.04563468,,,,,,,,,,,,,,,,,,,,,o,1,1.2426,29,FALSE,TRUE,7,0,28,1,1,,,,,,,
,,,,,,0,1.890636316,#f3af84,,right_orange.png,p,,,,,,o,right_blue.png,right_orange.png,p,right,60fc740c94213cac18d96f10,001,2021-08-01_14h07.43.315,arrow_simon_norep,2021.1.2,Win32,60.04563468,,,,,,,,,,,,,,,,,,,,,p,1,1.4509,30,FALSE,FALSE,7,1,29,1,1,,,,,,,
,,,,,,0,2.077385861,#a3d0fb,,right_blue.png,o,,,,,,o,right_blue.png,right_orange.png,p,left,60fc740c94213cac18d96f10,001,2021-08-01_14h07.43.315,arrow_simon_norep,2021.1.2,Win32,60.04563468,,,,,,,,,,,,,,,,,,,,,w,0,1.6874,31,TRUE,FALSE,7,2,30,0,1,,,,,,,
,,,,,,0,1.880216122,#f3af84,,left_orange.png,q,,,,,,w,left_blue.png,left_orange.png,q,left,60fc740c94213cac18d96f10,001,2021-08-01_14h07.43.315,arrow_simon_norep,2021.1.2,Win32,60.04563468,,,,,,,,,,,,,,,,,,,,,q,1,1.5393,32,FALSE,FALSE,7,3,31,2,1,,,,,,,
,,,,,,0,2.041058439,#a3d0fb,,left_blue.png,w,,,,,,w,left_blue.png,left_orange.png,q,right,60fc740c94213cac18d96f10,001,2021-08-01_14h07.43.315,arrow_simon_norep,2021.1.2,Win32,60.04563468,,,,,,,,,,,,,,,,,,,,,w,1,1.4508,33,FALSE,FALSE,8,0,32,3,1,,,,,,,
,,,,,,0,2.13544433,#f3af84,,left_orange.png,q,,,,,,w,left_blue.png,left_orange.png,q,left,60fc740c94213cac18d96f10,001,2021-08-01_14h07.43.315,arrow_simon_norep,2021.1.2,Win32,60.04563468,,,,,,,,,,,,,,,,,,,,,q,1,1.5197,34,FALSE,FALSE,8,1,33,2,1,,,,,,,
,,,,,,1,2.137577391,#a3d0fb,,left_blue.png,w,,,,,,w,left_blue.png,left_orange.png,q,right,60fc740c94213cac18d96f10,001,2021-08-01_14h07.43.315,arrow_simon_norep,2021.1.2,Win32,60.04563468,,,,,,,,,,,,,,,,,,,,,o,0,1.445,35,FALSE,FALSE,8,2,34,3,1,,,,,,,
,,,,,,1,1.838084821,#f3af84,,left_orange.png,q,,,,,,w,left_blue.png,left_orange.png,q,right,60fc740c94213cac18d96f10,001,2021-08-01_14h07.43.315,arrow_simon_norep,2021.1.2,Win32,60.04563468,,,,,,,,,,,,,,,,,,,,,q,1,1.6083,36,TRUE,FALSE,8,3,35,3,1,,,,,,,
,,,,,,1,1.722565127,#a3d0fb,,right_blue.png,o,,,,,,o,right_blue.png,right_orange.png,p,left,60fc740c94213cac18d96f10,001,2021-08-01_14h07.43.315,arrow_simon_norep,2021.1.2,Win32,60.04563468,,,,,,,,,,,,,,,,,,,,,w,0,1.4261,37,FALSE,FALSE,9,0,36,0,1,,,,,,,
,,,,,,1,2.295477374,#f3af84,,left_orange.png,q,,,,,,w,left_blue.png,left_orange.png,q,right,60fc740c94213cac18d96f10,001,2021-08-01_14h07.43.315,arrow_simon_norep,2021.1.2,Win32,60.04563468,,,,,,,,,,,,,,,,,,,,,q,1,1.684,38,TRUE,FALSE,9,1,37,3,1,,,,,,,
,,,,,,1,2.205723496,#a3d0fb,,left_blue.png,w,,,,,,w,left_blue.png,left_orange.png,q,right,60fc740c94213cac18d96f10,001,2021-08-01_14h07.43.315,arrow_simon_norep,2021.1.2,Win32,60.04563468,,,,,,,,,,,,,,,,,,,,,o,0,1.454,39,FALSE,FALSE,9,2,38,3,1,,,,,,,
,,,,,,1,1.819921432,#f3af84,,left_orange.png,q,,,,,,w,left_blue.png,left_orange.png,q,left,60fc740c94213cac18d96f10,001,2021-08-01_14h07.43.315,arrow_simon_norep,2021.1.2,Win32,60.04563468,,,,,,,,,,,,,,,,,,,,,q,1,1.2077,40,FALSE,TRUE,9,3,39,2,1,,,,,,,
,,,,,,1,2.305465121,#a3d0fb,,left_blue.png,w,,,,,,w,left_blue.png,left_orange.png,q,right,60fc740c94213cac18d96f10,001,2021-08-01_14h07.43.315,arrow_simon_norep,2021.1.2,Win32,60.04563468,,,,,,,,,,,,,,,,,,,,,w,1,1.7187,41,TRUE,FALSE,10,0,40,3,1,,,,,,,
,,,,,,0,1.890570529,#f3af84,,right_orange.png,p,,,,,,o,right_blue.png,right_orange.png,p,right,60fc740c94213cac18d96f10,001,2021-08-01_14h07.43.315,arrow_simon_norep,2021.1.2,Win32,60.04563468,,,,,,,,,,,,,,,,,,,,,p,1,1.5896,42,FALSE,FALSE,10,1,41,1,1,,,,,,,
,,,,,,0,1.619421429,#a3d0fb,,left_blue.png,w,,,,,,w,left_blue.png,left_orange.png,q,left,60fc740c94213cac18d96f10,001,2021-08-01_14h07.43.315,arrow_simon_norep,2021.1.2,Win32,60.04563468,,,,,,,,,,,,,,,,,,,,,w,1,1.158,43,FALSE,TRUE,10,2,42,2,1,,,,,,,
,,,,,,0,1.932892786,#f3af84,,right_orange.png,p,,,,,,o,right_blue.png,right_orange.png,p,right,60fc740c94213cac18d96f10,001,2021-08-01_14h07.43.315,arrow_simon_norep,2021.1.2,Win32,60.04563468,,,,,,,,,,,,,,,,,,,,,p,1,1.5679,44,FALSE,FALSE,10,3,43,1,1,,,,,,,
,,,,,,0,1.954203864,#a3d0fb,,right_blue.png,o,,,,,,o,right_blue.png,right_orange.png,p,left,60fc740c94213cac18d96f10,001,2021-08-01_14h07.43.315,arrow_simon_norep,2021.1.2,Win32,60.04563468,,,,,,,,,,,,,,,,,,,,,o,1,1.5778,45,FALSE,FALSE,11,0,44,0,1,,,,,,,
,,,,,,0,1.643060516,#f3af84,,right_orange.png,p,,,,,,o,right_blue.png,right_orange.png,p,left,60fc740c94213cac18d96f10,001,2021-08-01_14h07.43.315,arrow_simon_norep,2021.1.2,Win32,60.04563468,,,,,,,,,,,,,,,,,,,,,p,1,1.2354,46,FALSE,TRUE,11,1,45,0,1,,,,,,,
,,,,,,0,2.169435876,#a3d0fb,,left_blue.png,w,,,,,,w,left_blue.png,left_orange.png,q,left,60fc740c94213cac18d96f10,001,2021-08-01_14h07.43.315,arrow_simon_norep,2021.1.2,Win32,60.04563468,,,,,,,,,,,,,,,,,,,,,w,1,1.5587,47,FALSE,FALSE,11,2,46,2,1,,,,,,,
,,,,,,0,2.164798861,#f3af84,,right_orange.png,p,,,,,,o,right_blue.png,right_orange.png,p,right,60fc740c94213cac18d96f10,001,2021-08-01_14h07.43.315,arrow_simon_norep,2021.1.2,Win32,60.04563468,,,,,,,,,,,,,,,,,,,,,p,1,1.4741,48,FALSE,FALSE,11,3,47,1,1,,,,,,,
,,,,,,0,2.441561551,#a3d0fb,,right_blue.png,o,,,,,,o,right_blue.png,right_orange.png,p,left,60fc740c94213cac18d96f10,001,2021-08-01_14h07.43.315,arrow_simon_norep,2021.1.2,Win32,60.04563468,,,,,,,,,,,,,,,,,,,,,w,0,1.6214,49,TRUE,FALSE,12,0,48,0,1,,,,,,,
,,,,,,0,1.881602476,#f3af84,,left_orange.png,q,,,,,,w,left_blue.png,left_orange.png,q,right,60fc740c94213cac18d96f10,001,2021-08-01_14h07.43.315,arrow_simon_norep,2021.1.2,Win32,60.04563468,,,,,,,,,,,,,,,,,,,,,q,1,1.4064,50,FALSE,FALSE,12,1,49,3,1,,,,,,,
,,,,,,0,2.432512783,#a3d0fb,,left_blue.png,w,,,,,,w,left_blue.png,left_orange.png,q,right,60fc740c94213cac18d96f10,001,2021-08-01_14h07.43.315,arrow_simon_norep,2021.1.2,Win32,60.04563468,,,,,,,,,,,,,,,,,,,,,o,0,1.7416,51,TRUE,FALSE,12,2,50,3,1,,,,,,,
