instruct_resp_simon.keys,instruct_resp_simon.corr,instruct_resp_simon.rt,trial_resp_simon.keys,trial_resp_simon.corr,trial_resp_simon.rt,kerr,target_onset,target_color,target_pos,target_file,target_resp,trials_train_simon.thisRepN,trials_train_simon.thisTrialN,trials_train_simon.thisN,trials_train_simon.thisIndex,trials_train_simon.ran,odd_target_resp,odd_target_file,even_target_file,even_target_resp,target_side,participant,session,date,expName,psychopyVersion,OS,frameRate,train_block_note_resp.keys,train_block_note_resp.rt,blocks_train.thisRepN,blocks_train.thisTrialN,blocks_train.thisN,blocks_train.thisIndex,blocks_train.ran,instruct_resp_timing.keys,instruct_resp_timing.corr,instruct_resp_timing.rt,trial_resp_timing.keys,trial_resp_timing.rt,trials_train_timing.thisRepN,trials_train_timing.thisTrialN,trials_train_timing.thisN,trials_train_timing.thisIndex,trials_train_timing.ran,instruct_resp.keys,instruct_resp.corr,instruct_resp.rt,trial_resp.keys,trial_resp.corr,trial_resp.rt,trial_num,too_slow,too_soon,trials.thisRepN,trials.thisTrialN,trials.thisN,trials.thisIndex,trials.ran,block_note_resp.keys,block_note_resp.rt,blocks.thisRepN,blocks.thisTrialN,blocks.thisN,blocks.thisIndex,blocks.ran
space,0,77.466,o,0,3.576,1,0.579067364,#a3d0fb,,left_blue.png,w,0,0,0,3,1,w,left_blue.png,left_orange.png,q,right,60fcb27a813cad15501fe54e,001,2021-08-01_13h30.40.952,arrow_simon_norep,2021.1.2,MacIntel,28.57142857,,,,,,,,,,,,,,,,,,,,,,,,,,,,,,,,,,,,,,
,,,q,0,3.485,1,0.134755378,#f3af84,,right_orange.png,p,0,1,1,0,1,o,right_blue.png,right_orange.png,p,left,60fcb27a813cad15501fe54e,001,2021-08-01_13h30.40.952,arrow_simon_norep,2021.1.2,MacIntel,28.57142857,,,,,,,,,,,,,,,,,,,,,,,,,,,,,,,,,,,,,,
,,,p,0,1.751,1,0.354888594,#a3d0fb,,left_blue.png,w,0,2,2,3,1,w,left_blue.png,left_orange.png,q,right,60fcb27a813cad15501fe54e,001,2021-08-01_13h30.40.952,arrow_simon_norep,2021.1.2,MacIntel,28.57142857,,,,,,,,,,,,,,,,,,,,,,,,,,,,,,,,,,,,,,
,,,o,0,6.797,1,0.459331946,#f3af84,,right_orange.png,p,0,3,3,1,1,o,right_blue.png,right_orange.png,p,right,60fcb27a813cad15501fe54e,001,2021-08-01_13h30.40.952,arrow_simon_norep,2021.1.2,MacIntel,28.57142857,,,,,,,,,,,,,,,,,,,,,,,,,,,,,,,,,,,,,,
,,,w,1,3.974,0,0.778264933,#a3d0fb,,left_blue.png,w,1,0,4,3,1,w,left_blue.png,left_orange.png,q,right,60fcb27a813cad15501fe54e,001,2021-08-01_13h30.40.952,arrow_simon_norep,2021.1.2,MacIntel,28.57142857,,,,,,,,,,,,,,,,,,,,,,,,,,,,,,,,,,,,,,
,,,q,1,2.321,0,0.035275721,#f3af84,,left_orange.png,q,1,1,5,2,1,w,left_blue.png,left_orange.png,q,left,60fcb27a813cad15501fe54e,001,2021-08-01_13h30.40.952,arrow_simon_norep,2021.1.2,MacIntel,28.57142857,,,,,,,,,,,,,,,,,,,,,,,,,,,,,,,,,,,,,,
,,,w,1,2.018,0,0.95872814,#a3d0fb,,left_blue.png,w,1,2,6,2,1,w,left_blue.png,left_orange.png,q,left,60fcb27a813cad15501fe54e,001,2021-08-01_13h30.40.952,arrow_simon_norep,2021.1.2,MacIntel,28.57142857,,,,,,,,,,,,,,,,,,,,,,,,,,,,,,,,,,,,,,
,,,o,0,1.582,1,0.036286563,#f3af84,,right_orange.png,p,1,3,7,1,1,o,right_blue.png,right_orange.png,p,right,60fcb27a813cad15501fe54e,001,2021-08-01_13h30.40.952,arrow_simon_norep,2021.1.2,MacIntel,28.57142857,,,,,,,,,,,,,,,,,,,,,,,,,,,,,,,,,,,,,,
,,,w,1,1.632,0,0.559909427,#a3d0fb,,left_blue.png,w,2,0,8,2,1,w,left_blue.png,left_orange.png,q,left,60fcb27a813cad15501fe54e,001,2021-08-01_13h30.40.952,arrow_simon_norep,2021.1.2,MacIntel,28.57142857,,,,,,,,,,,,,,,,,,,,,,,,,,,,,,,,,,,,,,
,,,p,1,2.986,0,0.696427036,#f3af84,,right_orange.png,p,2,1,9,0,1,o,right_blue.png,right_orange.png,p,left,60fcb27a813cad15501fe54e,001,2021-08-01_13h30.40.952,arrow_simon_norep,2021.1.2,MacIntel,28.57142857,,,,,,,,,,,,,,,,,,,,,,,,,,,,,,,,,,,,,,
,,,w,1,1.592,0,0.580091755,#a3d0fb,,left_blue.png,w,2,2,10,3,1,w,left_blue.png,left_orange.png,q,right,60fcb27a813cad15501fe54e,001,2021-08-01_13h30.40.952,arrow_simon_norep,2021.1.2,MacIntel,28.57142857,,,,,,,,,,,,,,,,,,,,,,,,,,,,,,,,,,,,,,
,,,p,1,1.873,0,0.640800028,#f3af84,,right_orange.png,p,2,3,11,1,1,o,right_blue.png,right_orange.png,p,right,60fcb27a813cad15501fe54e,001,2021-08-01_13h30.40.952,arrow_simon_norep,2021.1.2,MacIntel,28.57142857,,,,,,,,,,,,,,,,,,,,,,,,,,,,,,,,,,,,,,
,,,w,0,1.128,1,0.069170387,#a3d0fb,,right_blue.png,o,3,0,12,0,1,o,right_blue.png,right_orange.png,p,left,60fcb27a813cad15501fe54e,001,2021-08-01_13h30.40.952,arrow_simon_norep,2021.1.2,MacIntel,28.57142857,,,,,,,,,,,,,,,,,,,,,,,,,,,,,,,,,,,,,,
,,,p,1,2.292,0,0.743765877,#f3af84,,right_orange.png,p,3,1,13,1,1,o,right_blue.png,right_orange.png,p,right,60fcb27a813cad15501fe54e,001,2021-08-01_13h30.40.952,arrow_simon_norep,2021.1.2,MacIntel,28.57142857,,,,,,,,,,,,,,,,,,,,,,,,,,,,,,,,,,,,,,
,,,w,1,2.007,0,0.277999157,#a3d0fb,,left_blue.png,w,3,2,14,3,1,w,left_blue.png,left_orange.png,q,right,60fcb27a813cad15501fe54e,001,2021-08-01_13h30.40.952,arrow_simon_norep,2021.1.2,MacIntel,28.57142857,,,,,,,,,,,,,,,,,,,,,,,,,,,,,,,,,,,,,,
,,,p,1,1.494,0,0.042492915,#f3af84,,right_orange.png,p,3,3,15,0,1,o,right_blue.png,right_orange.png,p,left,60fcb27a813cad15501fe54e,001,2021-08-01_13h30.40.952,arrow_simon_norep,2021.1.2,MacIntel,28.57142857,,,,,,,,,,,,,,,,,,,,,,,,,,,,,,,,,,,,,,
,,,w,1,2.86,0,0.798207322,#a3d0fb,,left_blue.png,w,4,0,16,2,1,w,left_blue.png,left_orange.png,q,left,60fcb27a813cad15501fe54e,001,2021-08-01_13h30.40.952,arrow_simon_norep,2021.1.2,MacIntel,28.57142857,,,,,,,,,,,,,,,,,,,,,,,,,,,,,,,,,,,,,,
,,,q,1,2.548,0,0.812290218,#f3af84,,left_orange.png,q,4,1,17,2,1,w,left_blue.png,left_orange.png,q,left,60fcb27a813cad15501fe54e,001,2021-08-01_13h30.40.952,arrow_simon_norep,2021.1.2,MacIntel,28.57142857,,,,,,,,,,,,,,,,,,,,,,,,,,,,,,,,,,,,,,
,,,w,1,2.108,0,0.688199899,#a3d0fb,,left_blue.png,w,4,2,18,3,1,w,left_blue.png,left_orange.png,q,right,60fcb27a813cad15501fe54e,001,2021-08-01_13h30.40.952,arrow_simon_norep,2021.1.2,MacIntel,28.57142857,,,,,,,,,,,,,,,,,,,,,,,,,,,,,,,,,,,,,,
,,,p,1,1.807,0,0.298087289,#f3af84,,right_orange.png,p,4,3,19,0,1,o,right_blue.png,right_orange.png,p,left,60fcb27a813cad15501fe54e,001,2021-08-01_13h30.40.952,arrow_simon_norep,2021.1.2,MacIntel,28.57142857,,,,,,,,,,,,,,,,,,,,,,,,,,,,,,,,,,,,,,
,,,o,1,1.208,0,0.484901484,#a3d0fb,,right_blue.png,o,5,0,20,1,1,o,right_blue.png,right_orange.png,p,right,60fcb27a813cad15501fe54e,001,2021-08-01_13h30.40.952,arrow_simon_norep,2021.1.2,MacIntel,28.57142857,,,,,,,,,,,,,,,,,,,,,,,,,,,,,,,,,,,,,,
,,,w,0,1.166,1,0.328313755,#f3af84,,left_orange.png,q,5,1,21,2,1,w,left_blue.png,left_orange.png,q,left,60fcb27a813cad15501fe54e,001,2021-08-01_13h30.40.952,arrow_simon_norep,2021.1.2,MacIntel,28.57142857,,,,,,,,,,,,,,,,,,,,,,,,,,,,,,,,,,,,,,
,,,q,0,1.984,1,0.802954698,#a3d0fb,,left_blue.png,w,5,2,22,3,1,w,left_blue.png,left_orange.png,q,right,60fcb27a813cad15501fe54e,001,2021-08-01_13h30.40.952,arrow_simon_norep,2021.1.2,MacIntel,28.57142857,,,,,,,,,,,,,,,,,,,,,,,,,,,,,,,,,,,,,,
,,,w,0,2.121,1,0.73147166,#f3af84,,left_orange.png,q,5,3,23,3,1,w,left_blue.png,left_orange.png,q,right,60fcb27a813cad15501fe54e,001,2021-08-01_13h30.40.952,arrow_simon_norep,2021.1.2,MacIntel,28.57142857,,,,,,,,,,,,,,,,,,,,,,,,,,,,,,,,,,,,,,
,,,p,0,3.153,1,0.928054052,#a3d0fb,,right_blue.png,o,6,0,24,1,1,o,right_blue.png,right_orange.png,p,right,60fcb27a813cad15501fe54e,001,2021-08-01_13h30.40.952,arrow_simon_norep,2021.1.2,MacIntel,28.57142857,,,,,,,,,,,,,,,,,,,,,,,,,,,,,,,,,,,,,,
,,,q,1,4.697,0,0.175294221,#f3af84,,left_orange.png,q,6,1,25,2,1,w,left_blue.png,left_orange.png,q,left,60fcb27a813cad15501fe54e,001,2021-08-01_13h30.40.952,arrow_simon_norep,2021.1.2,MacIntel,28.57142857,,,,,,,,,,,,,,,,,,,,,,,,,,,,,,,,,,,,,,
,,,o,1,3.362,0,0.846589847,#a3d0fb,,right_blue.png,o,6,2,26,0,1,o,right_blue.png,right_orange.png,p,left,60fcb27a813cad15501fe54e,001,2021-08-01_13h30.40.952,arrow_simon_norep,2021.1.2,MacIntel,28.57142857,,,,,,,,,,,,,,,,,,,,,,,,,,,,,,,,,,,,,,
,,,q,1,1.881,0,0.116599019,#f3af84,,left_orange.png,q,6,3,27,3,1,w,left_blue.png,left_orange.png,q,right,60fcb27a813cad15501fe54e,001,2021-08-01_13h30.40.952,arrow_simon_norep,2021.1.2,MacIntel,28.57142857,,,,,,,,,,,,,,,,,,,,,,,,,,,,,,,,,,,,,,
,,,o,1,2.267,0,0.561350807,#a3d0fb,,right_blue.png,o,7,0,28,1,1,o,right_blue.png,right_orange.png,p,right,60fcb27a813cad15501fe54e,001,2021-08-01_13h30.40.952,arrow_simon_norep,2021.1.2,MacIntel,28.57142857,,,,,,,,,,,,,,,,,,,,,,,,,,,,,,,,,,,,,,
,,,q,1,1.558,0,0.255220409,#f3af84,,left_orange.png,q,7,1,29,2,1,w,left_blue.png,left_orange.png,q,left,60fcb27a813cad15501fe54e,001,2021-08-01_13h30.40.952,arrow_simon_norep,2021.1.2,MacIntel,28.57142857,,,,,,,,,,,,,,,,,,,,,,,,,,,,,,,,,,,,,,
,,,w,1,1.809,0,0.688302655,#a3d0fb,,left_blue.png,w,7,2,30,3,1,w,left_blue.png,left_orange.png,q,right,60fcb27a813cad15501fe54e,001,2021-08-01_13h30.40.952,arrow_simon_norep,2021.1.2,MacIntel,28.57142857,,,,,,,,,,,,,,,,,,,,,,,,,,,,,,,,,,,,,,
,,,p,1,1.927,0,0.724046214,#f3af84,,right_orange.png,p,7,3,31,1,1,o,right_blue.png,right_orange.png,p,right,60fcb27a813cad15501fe54e,001,2021-08-01_13h30.40.952,arrow_simon_norep,2021.1.2,MacIntel,28.57142857,,,,,,,,,,,,,,,,,,,,,,,,,,,,,,,,,,,,,,
,,,w,1,1.654,0,0.257691282,#a3d0fb,,left_blue.png,w,8,0,32,2,1,w,left_blue.png,left_orange.png,q,left,60fcb27a813cad15501fe54e,001,2021-08-01_13h30.40.952,arrow_simon_norep,2021.1.2,MacIntel,28.57142857,,,,,,,,,,,,,,,,,,,,,,,,,,,,,,,,,,,,,,
,,,p,1,2.349,0,0.746241674,#f3af84,,right_orange.png,p,8,1,33,0,1,o,right_blue.png,right_orange.png,p,left,60fcb27a813cad15501fe54e,001,2021-08-01_13h30.40.952,arrow_simon_norep,2021.1.2,MacIntel,28.57142857,,,,,,,,,,,,,,,,,,,,,,,,,,,,,,,,,,,,,,
,,,w,1,2.536,0,0.87413949,#a3d0fb,,left_blue.png,w,8,2,34,3,1,w,left_blue.png,left_orange.png,q,right,60fcb27a813cad15501fe54e,001,2021-08-01_13h30.40.952,arrow_simon_norep,2021.1.2,MacIntel,28.57142857,,,,,,,,,,,,,,,,,,,,,,,,,,,,,,,,,,,,,,
,,,p,1,1.343,0,0.556159088,#f3af84,,right_orange.png,p,8,3,35,0,1,o,right_blue.png,right_orange.png,p,left,60fcb27a813cad15501fe54e,001,2021-08-01_13h30.40.952,arrow_simon_norep,2021.1.2,MacIntel,28.57142857,,,,,,,,,,,,,,,,,,,,,,,,,,,,,,,,,,,,,,
,,,p,0,1.226,1,0.195464038,#a3d0fb,,right_blue.png,o,9,0,36,0,1,o,right_blue.png,right_orange.png,p,left,60fcb27a813cad15501fe54e,001,2021-08-01_13h30.40.952,arrow_simon_norep,2021.1.2,MacIntel,28.57142857,,,,,,,,,,,,,,,,,,,,,,,,,,,,,,,,,,,,,,
,,,p,1,1.704,0,0.554424867,#f3af84,,right_orange.png,p,9,1,37,1,1,o,right_blue.png,right_orange.png,p,right,60fcb27a813cad15501fe54e,001,2021-08-01_13h30.40.952,arrow_simon_norep,2021.1.2,MacIntel,28.57142857,,,,,,,,,,,,,,,,,,,,,,,,,,,,,,,,,,,,,,
,,,w,1,1.908,0,0.695558388,#a3d0fb,,left_blue.png,w,9,2,38,3,1,w,left_blue.png,left_orange.png,q,right,60fcb27a813cad15501fe54e,001,2021-08-01_13h30.40.952,arrow_simon_norep,2021.1.2,MacIntel,28.57142857,,,,,,,,,,,,,,,,,,,,,,,,,,,,,,,,,,,,,,
,,,q,1,2.037,0,0.83702724,#f3af84,,left_orange.png,q,9,3,39,3,1,w,left_blue.png,left_orange.png,q,right,60fcb27a813cad15501fe54e,001,2021-08-01_13h30.40.952,arrow_simon_norep,2021.1.2,MacIntel,28.57142857,,,,,,,,,,,,,,,,,,,,,,,,,,,,,,,,,,,,,,
,,,w,1,1.226,0,0.377722631,#a3d0fb,,left_blue.png,w,10,0,40,2,1,w,left_blue.png,left_orange.png,q,left,60fcb27a813cad15501fe54e,001,2021-08-01_13h30.40.952,arrow_simon_norep,2021.1.2,MacIntel,28.57142857,,,,,,,,,,,,,,,,,,,,,,,,,,,,,,,,,,,,,,
,,,q,1,1.316,0,0.174555278,#f3af84,,left_orange.png,q,10,1,41,2,1,w,left_blue.png,left_orange.png,q,left,60fcb27a813cad15501fe54e,001,2021-08-01_13h30.40.952,arrow_simon_norep,2021.1.2,MacIntel,28.57142857,,,,,,,,,,,,,,,,,,,,,,,,,,,,,,,,,,,,,,
,,,o,1,2.693,0,0.900430628,#a3d0fb,,right_blue.png,o,10,2,42,1,1,o,right_blue.png,right_orange.png,p,right,60fcb27a813cad15501fe54e,001,2021-08-01_13h30.40.952,arrow_simon_norep,2021.1.2,MacIntel,28.57142857,,,,,,,,,,,,,,,,,,,,,,,,,,,,,,,,,,,,,,
,,,p,1,1.591,0,0.605011938,#f3af84,,right_orange.png,p,10,3,43,0,1,o,right_blue.png,right_orange.png,p,left,60fcb27a813cad15501fe54e,001,2021-08-01_13h30.40.952,arrow_simon_norep,2021.1.2,MacIntel,28.57142857,,,,,,,,,,,,,,,,,,,,,,,,,,,,,,,,,,,,,,
,,,o,1,1.552,0,0.68673094,#a3d0fb,,right_blue.png,o,11,0,44,1,1,o,right_blue.png,right_orange.png,p,right,60fcb27a813cad15501fe54e,001,2021-08-01_13h30.40.952,arrow_simon_norep,2021.1.2,MacIntel,28.57142857,,,,,,,,,,,,,,,,,,,,,,,,,,,,,,,,,,,,,,
,,,p,1,1.518,0,0.600761922,#f3af84,,right_orange.png,p,11,1,45,0,1,o,right_blue.png,right_orange.png,p,left,60fcb27a813cad15501fe54e,001,2021-08-01_13h30.40.952,arrow_simon_norep,2021.1.2,MacIntel,28.57142857,,,,,,,,,,,,,,,,,,,,,,,,,,,,,,,,,,,,,,
,,,w,1,1.43,0,0.1157954,#a3d0fb,,left_blue.png,w,11,2,46,2,1,w,left_blue.png,left_orange.png,q,left,60fcb27a813cad15501fe54e,001,2021-08-01_13h30.40.952,arrow_simon_norep,2021.1.2,MacIntel,28.57142857,,,,,,,,,,,,,,,,,,,,,,,,,,,,,,,,,,,,,,
,,,p,1,1.173,0,0.065522552,#f3af84,,right_orange.png,p,11,3,47,1,1,o,right_blue.png,right_orange.png,p,right,60fcb27a813cad15501fe54e,001,2021-08-01_13h30.40.952,arrow_simon_norep,2021.1.2,MacIntel,28.57142857,,,,,,,,,,,,,,,,,,,,,,,,,,,,,,,,,,,,,,
,,,w,1,1.1,0,0.085717051,#a3d0fb,,left_blue.png,w,12,0,48,2,1,w,left_blue.png,left_orange.png,q,left,60fcb27a813cad15501fe54e,001,2021-08-01_13h30.40.952,arrow_simon_norep,2021.1.2,MacIntel,28.57142857,,,,,,,,,,,,,,,,,,,,,,,,,,,,,,,,,,,,,,
,,,q,1,1.001,0,0.107765236,#f3af84,,left_orange.png,q,12,1,49,2,1,w,left_blue.png,left_orange.png,q,left,60fcb27a813cad15501fe54e,001,2021-08-01_13h30.40.952,arrow_simon_norep,2021.1.2,MacIntel,28.57142857,,,,,,,,,,,,,,,,,,,,,,,,,,,,,,,,,,,,,,
,,,o,1,2.744,0,0.358603319,#a3d0fb,,right_blue.png,o,12,2,50,0,1,o,right_blue.png,right_orange.png,p,left,60fcb27a813cad15501fe54e,001,2021-08-01_13h30.40.952,arrow_simon_norep,2021.1.2,MacIntel,28.57142857,,,,,,,,,,,,,,,,,,,,,,,,,,,,,,,,,,,,,,
,,,p,1,1.124,0,0.151178171,#f3af84,,right_orange.png,p,12,3,51,1,1,o,right_blue.png,right_orange.png,p,right,60fcb27a813cad15501fe54e,001,2021-08-01_13h30.40.952,arrow_simon_norep,2021.1.2,MacIntel,28.57142857,,,,,,,,,,,,,,,,,,,,,,,,,,,,,,,,,,,,,,
,,,w,1,2.469,0,0.811337967,#a3d0fb,,left_blue.png,w,13,0,52,3,1,w,left_blue.png,left_orange.png,q,right,60fcb27a813cad15501fe54e,001,2021-08-01_13h30.40.952,arrow_simon_norep,2021.1.2,MacIntel,28.57142857,,,,,,,,,,,,,,,,,,,,,,,,,,,,,,,,,,,,,,
,,,p,1,1.496,0,0.023089178,#f3af84,,right_orange.png,p,13,1,53,0,1,o,right_blue.png,right_orange.png,p,left,60fcb27a813cad15501fe54e,001,2021-08-01_13h30.40.952,arrow_simon_norep,2021.1.2,MacIntel,28.57142857,,,,,,,,,,,,,,,,,,,,,,,,,,,,,,,,,,,,,,
,,,o,1,2.238,0,0.643929808,#a3d0fb,,right_blue.png,o,13,2,54,0,1,o,right_blue.png,right_orange.png,p,left,60fcb27a813cad15501fe54e,001,2021-08-01_13h30.40.952,arrow_simon_norep,2021.1.2,MacIntel,28.57142857,,,,,,,,,,,,,,,,,,,,,,,,,,,,,,,,,,,,,,
,,,q,1,2.062,0,0.0156552,#f3af84,,left_orange.png,q,13,3,55,3,1,w,left_blue.png,left_orange.png,q,right,60fcb27a813cad15501fe54e,001,2021-08-01_13h30.40.952,arrow_simon_norep,2021.1.2,MacIntel,28.57142857,,,,,,,,,,,,,,,,,,,,,,,,,,,,,,,,,,,,,,
,,,o,1,2.962,0,0.63849005,#a3d0fb,,right_blue.png,o,14,0,56,1,1,o,right_blue.png,right_orange.png,p,right,60fcb27a813cad15501fe54e,001,2021-08-01_13h30.40.952,arrow_simon_norep,2021.1.2,MacIntel,28.57142857,,,,,,,,,,,,,,,,,,,,,,,,,,,,,,,,,,,,,,
,,,q,1,1.51,0,0.177691613,#f3af84,,left_orange.png,q,14,1,57,2,1,w,left_blue.png,left_orange.png,q,left,60fcb27a813cad15501fe54e,001,2021-08-01_13h30.40.952,arrow_simon_norep,2021.1.2,MacIntel,28.57142857,,,,,,,,,,,,,,,,,,,,,,,,,,,,,,,,,,,,,,
,,,o,1,2.412,0,0.401965489,#a3d0fb,,right_blue.png,o,14,2,58,0,1,o,right_blue.png,right_orange.png,p,left,60fcb27a813cad15501fe54e,001,2021-08-01_13h30.40.952,arrow_simon_norep,2021.1.2,MacIntel,28.57142857,,,,,,,,,,,,,,,,,,,,,,,,,,,,,,,,,,,,,,
,,,o,0,1.675,1,0.953120075,#f3af84,,right_orange.png,p,14,3,59,1,1,o,right_blue.png,right_orange.png,p,right,60fcb27a813cad15501fe54e,001,2021-08-01_13h30.40.952,arrow_simon_norep,2021.1.2,MacIntel,28.57142857,,,,,,,,,,,,,,,,,,,,,,,,,,,,,,,,,,,,,,
,,,,,,,,,,,,,,,,,,,,,,60fcb27a813cad15501fe54e,001,2021-08-01_13h30.40.952,arrow_simon_norep,2021.1.2,MacIntel,28.57142857,space,39.463,0,0,0,0,1,,,,,,,,,,,,,,,,,,,,,,,,,,,,,,,
,,,w,1,1.591,0,0.371752912,#a3d0fb,,left_blue.png,w,0,0,0,2,1,w,left_blue.png,left_orange.png,q,left,60fcb27a813cad15501fe54e,001,2021-08-01_13h30.40.952,arrow_simon_norep,2021.1.2,MacIntel,28.57142857,,,,,,,,,,,,,,,,,,,,,,,,,,,,,,,,,,,,,,
,,,p,1,2.972,0,0.23277483,#f3af84,,right_orange.png,p,0,1,1,1,1,o,right_blue.png,right_orange.png,p,right,60fcb27a813cad15501fe54e,001,2021-08-01_13h30.40.952,arrow_simon_norep,2021.1.2,MacIntel,28.57142857,,,,,,,,,,,,,,,,,,,,,,,,,,,,,,,,,,,,,,
,,,w,1,1.625,0,0.31785259,#a3d0fb,,left_blue.png,w,0,2,2,3,1,w,left_blue.png,left_orange.png,q,right,60fcb27a813cad15501fe54e,001,2021-08-01_13h30.40.952,arrow_simon_norep,2021.1.2,MacIntel,28.57142857,,,,,,,,,,,,,,,,,,,,,,,,,,,,,,,,,,,,,,
,,,p,1,1.65,0,0.693699837,#f3af84,,right_orange.png,p,0,3,3,1,1,o,right_blue.png,right_orange.png,p,right,60fcb27a813cad15501fe54e,001,2021-08-01_13h30.40.952,arrow_simon_norep,2021.1.2,MacIntel,28.57142857,,,,,,,,,,,,,,,,,,,,,,,,,,,,,,,,,,,,,,
,,,w,1,1.724,0,0.449931057,#a3d0fb,,left_blue.png,w,1,0,4,2,1,w,left_blue.png,left_orange.png,q,left,60fcb27a813cad15501fe54e,001,2021-08-01_13h30.40.952,arrow_simon_norep,2021.1.2,MacIntel,28.57142857,,,,,,,,,,,,,,,,,,,,,,,,,,,,,,,,,,,,,,
,,,p,1,1.441,0,0.211015804,#f3af84,,right_orange.png,p,1,1,5,0,1,o,right_blue.png,right_orange.png,p,left,60fcb27a813cad15501fe54e,001,2021-08-01_13h30.40.952,arrow_simon_norep,2021.1.2,MacIntel,28.57142857,,,,,,,,,,,,,,,,,,,,,,,,,,,,,,,,,,,,,,
,,,w,1,1.783,0,0.260561988,#a3d0fb,,left_blue.png,w,1,2,6,3,1,w,left_blue.png,left_orange.png,q,right,60fcb27a813cad15501fe54e,001,2021-08-01_13h30.40.952,arrow_simon_norep,2021.1.2,MacIntel,28.57142857,,,,,,,,,,,,,,,,,,,,,,,,,,,,,,,,,,,,,,
,,,q,1,1.4,0,0.014796948,#f3af84,,left_orange.png,q,1,3,7,2,1,w,left_blue.png,left_orange.png,q,left,60fcb27a813cad15501fe54e,001,2021-08-01_13h30.40.952,arrow_simon_norep,2021.1.2,MacIntel,28.57142857,,,,,,,,,,,,,,,,,,,,,,,,,,,,,,,,,,,,,,
,,,o,1,1.79,0,0.771058353,#a3d0fb,,right_blue.png,o,2,0,8,1,1,o,right_blue.png,right_orange.png,p,right,60fcb27a813cad15501fe54e,001,2021-08-01_13h30.40.952,arrow_simon_norep,2021.1.2,MacIntel,28.57142857,,,,,,,,,,,,,,,,,,,,,,,,,,,,,,,,,,,,,,
,,,q,1,1.737,0,0.693028133,#f3af84,,left_orange.png,q,2,1,9,2,1,w,left_blue.png,left_orange.png,q,left,60fcb27a813cad15501fe54e,001,2021-08-01_13h30.40.952,arrow_simon_norep,2021.1.2,MacIntel,28.57142857,,,,,,,,,,,,,,,,,,,,,,,,,,,,,,,,,,,,,,
,,,w,1,1.602,0,0.721279398,#a3d0fb,,left_blue.png,w,2,2,10,3,1,w,left_blue.png,left_orange.png,q,right,60fcb27a813cad15501fe54e,001,2021-08-01_13h30.40.952,arrow_simon_norep,2021.1.2,MacIntel,28.57142857,,,,,,,,,,,,,,,,,,,,,,,,,,,,,,,,,,,,,,
,,,p,1,1.95,0,0.1764191,#f3af84,,right_orange.png,p,2,3,11,1,1,o,right_blue.png,right_orange.png,p,right,60fcb27a813cad15501fe54e,001,2021-08-01_13h30.40.952,arrow_simon_norep,2021.1.2,MacIntel,28.57142857,,,,,,,,,,,,,,,,,,,,,,,,,,,,,,,,,,,,,,
,,,o,1,0.967,0,0.143914497,#a3d0fb,,right_blue.png,o,3,0,12,1,1,o,right_blue.png,right_orange.png,p,right,60fcb27a813cad15501fe54e,001,2021-08-01_13h30.40.952,arrow_simon_norep,2021.1.2,MacIntel,28.57142857,,,,,,,,,,,,,,,,,,,,,,,,,,,,,,,,,,,,,,
,,,q,1,1.708,0,0.783179389,#f3af84,,left_orange.png,q,3,1,13,2,1,w,left_blue.png,left_orange.png,q,left,60fcb27a813cad15501fe54e,001,2021-08-01_13h30.40.952,arrow_simon_norep,2021.1.2,MacIntel,28.57142857,,,,,,,,,,,,,,,,,,,,,,,,,,,,,,,,,,,,,,
,,,w,1,1.716,0,0.683815319,#a3d0fb,,left_blue.png,w,3,2,14,3,1,w,left_blue.png,left_orange.png,q,right,60fcb27a813cad15501fe54e,001,2021-08-01_13h30.40.952,arrow_simon_norep,2021.1.2,MacIntel,28.57142857,,,,,,,,,,,,,,,,,,,,,,,,,,,,,,,,,,,,,,
,,,q,1,1.184,0,0.298686655,#f3af84,,left_orange.png,q,3,3,15,2,1,w,left_blue.png,left_orange.png,q,left,60fcb27a813cad15501fe54e,001,2021-08-01_13h30.40.952,arrow_simon_norep,2021.1.2,MacIntel,28.57142857,,,,,,,,,,,,,,,,,,,,,,,,,,,,,,,,,,,,,,
,,,o,1,2.42,0,0.318642493,#a3d0fb,,right_blue.png,o,4,0,16,0,1,o,right_blue.png,right_orange.png,p,left,60fcb27a813cad15501fe54e,001,2021-08-01_13h30.40.952,arrow_simon_norep,2021.1.2,MacIntel,28.57142857,,,,,,,,,,,,,,,,,,,,,,,,,,,,,,,,,,,,,,
,,,p,1,3.338,0,0.533220345,#f3af84,,right_orange.png,p,4,1,17,0,1,o,right_blue.png,right_orange.png,p,left,60fcb27a813cad15501fe54e,001,2021-08-01_13h30.40.952,arrow_simon_norep,2021.1.2,MacIntel,28.57142857,,,,,,,,,,,,,,,,,,,,,,,,,,,,,,,,,,,,,,
,,,o,1,1.128,0,0.306713505,#a3d0fb,,right_blue.png,o,4,2,18,0,1,o,right_blue.png,right_orange.png,p,left,60fcb27a813cad15501fe54e,001,2021-08-01_13h30.40.952,arrow_simon_norep,2021.1.2,MacIntel,28.57142857,,,,,,,,,,,,,,,,,,,,,,,,,,,,,,,,,,,,,,
,,,p,1,1.642,0,0.908455673,#f3af84,,right_orange.png,p,4,3,19,0,1,o,right_blue.png,right_orange.png,p,left,60fcb27a813cad15501fe54e,001,2021-08-01_13h30.40.952,arrow_simon_norep,2021.1.2,MacIntel,28.57142857,,,,,,,,,,,,,,,,,,,,,,,,,,,,,,,,,,,,,,
,,,o,1,1.188,0,0.083826013,#a3d0fb,,right_blue.png,o,5,0,20,0,1,o,right_blue.png,right_orange.png,p,left,60fcb27a813cad15501fe54e,001,2021-08-01_13h30.40.952,arrow_simon_norep,2021.1.2,MacIntel,28.57142857,,,,,,,,,,,,,,,,,,,,,,,,,,,,,,,,,,,,,,
,,,p,1,1.456,0,0.003349508,#f3af84,,right_orange.png,p,5,1,21,1,1,o,right_blue.png,right_orange.png,p,right,60fcb27a813cad15501fe54e,001,2021-08-01_13h30.40.952,arrow_simon_norep,2021.1.2,MacIntel,28.57142857,,,,,,,,,,,,,,,,,,,,,,,,,,,,,,,,,,,,,,
,,,o,1,0.755,0,0.084915637,#a3d0fb,,right_blue.png,o,5,2,22,1,1,o,right_blue.png,right_orange.png,p,right,60fcb27a813cad15501fe54e,001,2021-08-01_13h30.40.952,arrow_simon_norep,2021.1.2,MacIntel,28.57142857,,,,,,,,,,,,,,,,,,,,,,,,,,,,,,,,,,,,,,
,,,q,1,1.283,0,0.340174603,#f3af84,,left_orange.png,q,5,3,23,2,1,w,left_blue.png,left_orange.png,q,left,60fcb27a813cad15501fe54e,001,2021-08-01_13h30.40.952,arrow_simon_norep,2021.1.2,MacIntel,28.57142857,,,,,,,,,,,,,,,,,,,,,,,,,,,,,,,,,,,,,,
,,,w,0,0.926,1,0.18151854,#a3d0fb,,right_blue.png,o,6,0,24,0,1,o,right_blue.png,right_orange.png,p,left,60fcb27a813cad15501fe54e,001,2021-08-01_13h30.40.952,arrow_simon_norep,2021.1.2,MacIntel,28.57142857,,,,,,,,,,,,,,,,,,,,,,,,,,,,,,,,,,,,,,
,,,p,1,1.523,0,0.190991566,#f3af84,,right_orange.png,p,6,1,25,1,1,o,right_blue.png,right_orange.png,p,right,60fcb27a813cad15501fe54e,001,2021-08-01_13h30.40.952,arrow_simon_norep,2021.1.2,MacIntel,28.57142857,,,,,,,,,,,,,,,,,,,,,,,,,,,,,,,,,,,,,,
,,,w,1,1.889,0,0.15482755,#a3d0fb,,left_blue.png,w,6,2,26,3,1,w,left_blue.png,left_orange.png,q,right,60fcb27a813cad15501fe54e,001,2021-08-01_13h30.40.952,arrow_simon_norep,2021.1.2,MacIntel,28.57142857,,,,,,,,,,,,,,,,,,,,,,,,,,,,,,,,,,,,,,
,,,p,1,1.857,0,0.324941795,#f3af84,,right_orange.png,p,6,3,27,1,1,o,right_blue.png,right_orange.png,p,right,60fcb27a813cad15501fe54e,001,2021-08-01_13h30.40.952,arrow_simon_norep,2021.1.2,MacIntel,28.57142857,,,,,,,,,,,,,,,,,,,,,,,,,,,,,,,,,,,,,,
,,,w,1,1.744,0,0.399064896,#a3d0fb,,left_blue.png,w,7,0,28,3,1,w,left_blue.png,left_orange.png,q,right,60fcb27a813cad15501fe54e,001,2021-08-01_13h30.40.952,arrow_simon_norep,2021.1.2,MacIntel,28.57142857,,,,,,,,,,,,,,,,,,,,,,,,,,,,,,,,,,,,,,
,,,q,1,1.609,0,0.510472801,#f3af84,,left_orange.png,q,7,1,29,3,1,w,left_blue.png,left_orange.png,q,right,60fcb27a813cad15501fe54e,001,2021-08-01_13h30.40.952,arrow_simon_norep,2021.1.2,MacIntel,28.57142857,,,,,,,,,,,,,,,,,,,,,,,,,,,,,,,,,,,,,,
,,,w,1,2.228,0,0.753776402,#a3d0fb,,left_blue.png,w,7,2,30,2,1,w,left_blue.png,left_orange.png,q,left,60fcb27a813cad15501fe54e,001,2021-08-01_13h30.40.952,arrow_simon_norep,2021.1.2,MacIntel,28.57142857,,,,,,,,,,,,,,,,,,,,,,,,,,,,,,,,,,,,,,
,,,q,1,2.296,0,0.642478187,#f3af84,,left_orange.png,q,7,3,31,3,1,w,left_blue.png,left_orange.png,q,right,60fcb27a813cad15501fe54e,001,2021-08-01_13h30.40.952,arrow_simon_norep,2021.1.2,MacIntel,28.57142857,,,,,,,,,,,,,,,,,,,,,,,,,,,,,,,,,,,,,,
,,,w,1,1.182,0,0.481365952,#a3d0fb,,left_blue.png,w,8,0,32,2,1,w,left_blue.png,left_orange.png,q,left,60fcb27a813cad15501fe54e,001,2021-08-01_13h30.40.952,arrow_simon_norep,2021.1.2,MacIntel,28.57142857,,,,,,,,,,,,,,,,,,,,,,,,,,,,,,,,,,,,,,
,,,p,1,1.494,0,0.448309641,#f3af84,,right_orange.png,p,8,1,33,0,1,o,right_blue.png,right_orange.png,p,left,60fcb27a813cad15501fe54e,001,2021-08-01_13h30.40.952,arrow_simon_norep,2021.1.2,MacIntel,28.57142857,,,,,,,,,,,,,,,,,,,,,,,,,,,,,,,,,,,,,,
,,,w,1,1.954,0,0.709946998,#a3d0fb,,left_blue.png,w,8,2,34,2,1,w,left_blue.png,left_orange.png,q,left,60fcb27a813cad15501fe54e,001,2021-08-01_13h30.40.952,arrow_simon_norep,2021.1.2,MacIntel,28.57142857,,,,,,,,,,,,,,,,,,,,,,,,,,,,,,,,,,,,,,
,,,p,1,1.455,0,0.071042225,#f3af84,,right_orange.png,p,8,3,35,0,1,o,right_blue.png,right_orange.png,p,left,60fcb27a813cad15501fe54e,001,2021-08-01_13h30.40.952,arrow_simon_norep,2021.1.2,MacIntel,28.57142857,,,,,,,,,,,,,,,,,,,,,,,,,,,,,,,,,,,,,,
,,,w,1,1.688,0,0.589628709,#a3d0fb,,left_blue.png,w,9,0,36,2,1,w,left_blue.png,left_orange.png,q,left,60fcb27a813cad15501fe54e,001,2021-08-01_13h30.40.952,arrow_simon_norep,2021.1.2,MacIntel,28.57142857,,,,,,,,,,,,,,,,,,,,,,,,,,,,,,,,,,,,,,
,,,p,1,1.714,0,0.563863418,#f3af84,,right_orange.png,p,9,1,37,0,1,o,right_blue.png,right_orange.png,p,left,60fcb27a813cad15501fe54e,001,2021-08-01_13h30.40.952,arrow_simon_norep,2021.1.2,MacIntel,28.57142857,,,,,,,,,,,,,,,,,,,,,,,,,,,,,,,,,,,,,,
,,,w,1,2.266,0,0.507458609,#a3d0fb,,left_blue.png,w,9,2,38,2,1,w,left_blue.png,left_orange.png,q,left,60fcb27a813cad15501fe54e,001,2021-08-01_13h30.40.952,arrow_simon_norep,2021.1.2,MacIntel,28.57142857,,,,,,,,,,,,,,,,,,,,,,,,,,,,,,,,,,,,,,
,,,p,1,2.249,0,0.627610623,#f3af84,,right_orange.png,p,9,3,39,0,1,o,right_blue.png,right_orange.png,p,left,60fcb27a813cad15501fe54e,001,2021-08-01_13h30.40.952,arrow_simon_norep,2021.1.2,MacIntel,28.57142857,,,,,,,,,,,,,,,,,,,,,,,,,,,,,,,,,,,,,,
,,,w,1,1.564,0,0.390775343,#a3d0fb,,left_blue.png,w,10,0,40,3,1,w,left_blue.png,left_orange.png,q,right,60fcb27a813cad15501fe54e,001,2021-08-01_13h30.40.952,arrow_simon_norep,2021.1.2,MacIntel,28.57142857,,,,,,,,,,,,,,,,,,,,,,,,,,,,,,,,,,,,,,
,,,q,1,1.924,0,0.179470013,#f3af84,,left_orange.png,q,10,1,41,2,1,w,left_blue.png,left_orange.png,q,left,60fcb27a813cad15501fe54e,001,2021-08-01_13h30.40.952,arrow_simon_norep,2021.1.2,MacIntel,28.57142857,,,,,,,,,,,,,,,,,,,,,,,,,,,,,,,,,,,,,,
,,,o,1,1.633,0,0.384359344,#a3d0fb,,right_blue.png,o,10,2,42,1,1,o,right_blue.png,right_orange.png,p,right,60fcb27a813cad15501fe54e,001,2021-08-01_13h30.40.952,arrow_simon_norep,2021.1.2,MacIntel,28.57142857,,,,,,,,,,,,,,,,,,,,,,,,,,,,,,,,,,,,,,
,,,p,1,1.807,0,0.824181018,#f3af84,,right_orange.png,p,10,3,43,0,1,o,right_blue.png,right_orange.png,p,left,60fcb27a813cad15501fe54e,001,2021-08-01_13h30.40.952,arrow_simon_norep,2021.1.2,MacIntel,28.57142857,,,,,,,,,,,,,,,,,,,,,,,,,,,,,,,,,,,,,,
,,,o,1,1.855,0,0.453594853,#a3d0fb,,right_blue.png,o,11,0,44,1,1,o,right_blue.png,right_orange.png,p,right,60fcb27a813cad15501fe54e,001,2021-08-01_13h30.40.952,arrow_simon_norep,2021.1.2,MacIntel,28.57142857,,,,,,,,,,,,,,,,,,,,,,,,,,,,,,,,,,,,,,
,,,q,1,1.791,0,0.163973132,#f3af84,,left_orange.png,q,11,1,45,3,1,w,left_blue.png,left_orange.png,q,right,60fcb27a813cad15501fe54e,001,2021-08-01_13h30.40.952,arrow_simon_norep,2021.1.2,MacIntel,28.57142857,,,,,,,,,,,,,,,,,,,,,,,,,,,,,,,,,,,,,,
,,,w,1,1.68,0,0.48730281,#a3d0fb,,left_blue.png,w,11,2,46,3,1,w,left_blue.png,left_orange.png,q,right,60fcb27a813cad15501fe54e,001,2021-08-01_13h30.40.952,arrow_simon_norep,2021.1.2,MacIntel,28.57142857,,,,,,,,,,,,,,,,,,,,,,,,,,,,,,,,,,,,,,
,,,p,1,1.656,0,0.587172751,#f3af84,,right_orange.png,p,11,3,47,1,1,o,right_blue.png,right_orange.png,p,right,60fcb27a813cad15501fe54e,001,2021-08-01_13h30.40.952,arrow_simon_norep,2021.1.2,MacIntel,28.57142857,,,,,,,,,,,,,,,,,,,,,,,,,,,,,,,,,,,,,,
,,,w,1,1.424,0,0.117894215,#a3d0fb,,left_blue.png,w,12,0,48,3,1,w,left_blue.png,left_orange.png,q,right,60fcb27a813cad15501fe54e,001,2021-08-01_13h30.40.952,arrow_simon_norep,2021.1.2,MacIntel,28.57142857,,,,,,,,,,,,,,,,,,,,,,,,,,,,,,,,,,,,,,
,,,p,1,1.322,0,0.247239234,#f3af84,,right_orange.png,p,12,1,49,1,1,o,right_blue.png,right_orange.png,p,right,60fcb27a813cad15501fe54e,001,2021-08-01_13h30.40.952,arrow_simon_norep,2021.1.2,MacIntel,28.57142857,,,,,,,,,,,,,,,,,,,,,,,,,,,,,,,,,,,,,,
,,,w,1,1.011,0,0.120559257,#a3d0fb,,left_blue.png,w,12,2,50,3,1,w,left_blue.png,left_orange.png,q,right,60fcb27a813cad15501fe54e,001,2021-08-01_13h30.40.952,arrow_simon_norep,2021.1.2,MacIntel,28.57142857,,,,,,,,,,,,,,,,,,,,,,,,,,,,,,,,,,,,,,
,,,p,1,1.25,0,0.342314154,#f3af84,,right_orange.png,p,12,3,51,1,1,o,right_blue.png,right_orange.png,p,right,60fcb27a813cad15501fe54e,001,2021-08-01_13h30.40.952,arrow_simon_norep,2021.1.2,MacIntel,28.57142857,,,,,,,,,,,,,,,,,,,,,,,,,,,,,,,,,,,,,,
,,,o,1,2.328,0,0.568296478,#a3d0fb,,right_blue.png,o,13,0,52,0,1,o,right_blue.png,right_orange.png,p,left,60fcb27a813cad15501fe54e,001,2021-08-01_13h30.40.952,arrow_simon_norep,2021.1.2,MacIntel,28.57142857,,,,,,,,,,,,,,,,,,,,,,,,,,,,,,,,,,,,,,
,,,q,1,2.148,0,0.7431301,#f3af84,,left_orange.png,q,13,1,53,2,1,w,left_blue.png,left_orange.png,q,left,60fcb27a813cad15501fe54e,001,2021-08-01_13h30.40.952,arrow_simon_norep,2021.1.2,MacIntel,28.57142857,,,,,,,,,,,,,,,,,,,,,,,,,,,,,,,,,,,,,,
,,,w,1,3.031,0,0.323993922,#a3d0fb,,left_blue.png,w,13,2,54,3,1,w,left_blue.png,left_orange.png,q,right,60fcb27a813cad15501fe54e,001,2021-08-01_13h30.40.952,arrow_simon_norep,2021.1.2,MacIntel,28.57142857,,,,,,,,,,,,,,,,,,,,,,,,,,,,,,,,,,,,,,
,,,p,1,1.347,0,0.356178105,#f3af84,,right_orange.png,p,13,3,55,0,1,o,right_blue.png,right_orange.png,p,left,60fcb27a813cad15501fe54e,001,2021-08-01_13h30.40.952,arrow_simon_norep,2021.1.2,MacIntel,28.57142857,,,,,,,,,,,,,,,,,,,,,,,,,,,,,,,,,,,,,,
,,,o,1,1.501,0,0.476763909,#a3d0fb,,right_blue.png,o,14,0,56,0,1,o,right_blue.png,right_orange.png,p,left,60fcb27a813cad15501fe54e,001,2021-08-01_13h30.40.952,arrow_simon_norep,2021.1.2,MacIntel,28.57142857,,,,,,,,,,,,,,,,,,,,,,,,,,,,,,,,,,,,,,
,,,p,1,1.498,0,0.740141324,#f3af84,,right_orange.png,p,14,1,57,1,1,o,right_blue.png,right_orange.png,p,right,60fcb27a813cad15501fe54e,001,2021-08-01_13h30.40.952,arrow_simon_norep,2021.1.2,MacIntel,28.57142857,,,,,,,,,,,,,,,,,,,,,,,,,,,,,,,,,,,,,,
,,,w,1,1.631,0,0.618808481,#a3d0fb,,left_blue.png,w,14,2,58,3,1,w,left_blue.png,left_orange.png,q,right,60fcb27a813cad15501fe54e,001,2021-08-01_13h30.40.952,arrow_simon_norep,2021.1.2,MacIntel,28.57142857,,,,,,,,,,,,,,,,,,,,,,,,,,,,,,,,,,,,,,
,,,q,1,2.618,0,0.668992541,#f3af84,,left_orange.png,q,14,3,59,2,1,w,left_blue.png,left_orange.png,q,left,60fcb27a813cad15501fe54e,001,2021-08-01_13h30.40.952,arrow_simon_norep,2021.1.2,MacIntel,28.57142857,,,,,,,,,,,,,,,,,,,,,,,,,,,,,,,,,,,,,,
,,,,,,,,,,,,,,,,,,,,,,60fcb27a813cad15501fe54e,001,2021-08-01_13h30.40.952,arrow_simon_norep,2021.1.2,MacIntel,28.57142857,space,21.102,1,0,1,0,1,,,,,,,,,,,,,,,,,,,,,,,,,,,,,,,
,,,,,,,,,,,,,,,,,,,,,,60fcb27a813cad15501fe54e,001,2021-08-01_13h30.40.952,arrow_simon_norep,2021.1.2,MacIntel,28.57142857,,,,,,,,space,0,48.473,o,2.874,0,0,0,0,1,,,,,,,,,,,,,,,,,,,,,
,,,,,,,,,,,,,,,,,,,,,,60fcb27a813cad15501fe54e,001,2021-08-01_13h30.40.952,arrow_simon_norep,2021.1.2,MacIntel,28.57142857,,,,,,,,,,,q,2.849,1,0,1,0,1,,,,,,,,,,,,,,,,,,,,,
,,,,,,,,,,,,,,,,,,,,,,60fcb27a813cad15501fe54e,001,2021-08-01_13h30.40.952,arrow_simon_norep,2021.1.2,MacIntel,28.57142857,,,,,,,,,,,p,2.254,2,0,2,0,1,,,,,,,,,,,,,,,,,,,,,
,,,,,,,,,,,,,,,,,,,,,,60fcb27a813cad15501fe54e,001,2021-08-01_13h30.40.952,arrow_simon_norep,2021.1.2,MacIntel,28.57142857,,,,,,,,,,,o,2.727,3,0,3,0,1,,,,,,,,,,,,,,,,,,,,,
,,,,,,,,,,,,,,,,,,,,,,60fcb27a813cad15501fe54e,001,2021-08-01_13h30.40.952,arrow_simon_norep,2021.1.2,MacIntel,28.57142857,,,,,,,,,,,p,2.486,4,0,4,0,1,,,,,,,,,,,,,,,,,,,,,
,,,,,,,,,,,,,,,,,,,,,,60fcb27a813cad15501fe54e,001,2021-08-01_13h30.40.952,arrow_simon_norep,2021.1.2,MacIntel,28.57142857,,,,,,,,,,,p,2.402,5,0,5,0,1,,,,,,,,,,,,,,,,,,,,,
,,,,,,,,,,,,,,,,,,,,,,60fcb27a813cad15501fe54e,001,2021-08-01_13h30.40.952,arrow_simon_norep,2021.1.2,MacIntel,28.57142857,,,,,,,,,,,o,2.604,6,0,6,0,1,,,,,,,,,,,,,,,,,,,,,
,,,,,,,,,,,,,,,,,,,,,,60fcb27a813cad15501fe54e,001,2021-08-01_13h30.40.952,arrow_simon_norep,2021.1.2,MacIntel,28.57142857,,,,,,,,,,,q,2.384,7,0,7,0,1,,,,,,,,,,,,,,,,,,,,,
,,,,,,,,,,,,,,,,,,,,,,60fcb27a813cad15501fe54e,001,2021-08-01_13h30.40.952,arrow_simon_norep,2021.1.2,MacIntel,28.57142857,,,,,,,,,,,o,2.402,8,0,8,0,1,,,,,,,,,,,,,,,,,,,,,
,,,,,,,,,,,,,,,,,,,,,,60fcb27a813cad15501fe54e,001,2021-08-01_13h30.40.952,arrow_simon_norep,2021.1.2,MacIntel,28.57142857,,,,,,,,,,,p,2.482,9,0,9,0,1,,,,,,,,,,,,,,,,,,,,,
,,,,,,,,,,,,,,,,,,,,,,60fcb27a813cad15501fe54e,001,2021-08-01_13h30.40.952,arrow_simon_norep,2021.1.2,MacIntel,28.57142857,,,,,,,,,,,o,2.604,10,0,10,0,1,,,,,,,,,,,,,,,,,,,,,
,,,,,,,,,,,,,,,,,,,,,,60fcb27a813cad15501fe54e,001,2021-08-01_13h30.40.952,arrow_simon_norep,2021.1.2,MacIntel,28.57142857,,,,,,,,,,,q,2.395,11,0,11,0,1,,,,,,,,,,,,,,,,,,,,,
,,,,,,,,,,,,,,,,,,,,,,60fcb27a813cad15501fe54e,001,2021-08-01_13h30.40.952,arrow_simon_norep,2021.1.2,MacIntel,28.57142857,,,,,,,,,,,w,2.625,12,0,12,0,1,,,,,,,,,,,,,,,,,,,,,
,,,,,,,,,,,,,,,,,,,,,,60fcb27a813cad15501fe54e,001,2021-08-01_13h30.40.952,arrow_simon_norep,2021.1.2,MacIntel,28.57142857,,,,,,,,,,,p,2.511,13,0,13,0,1,,,,,,,,,,,,,,,,,,,,,
,,,,,,,,,,,,,,,,,,,,,,60fcb27a813cad15501fe54e,001,2021-08-01_13h30.40.952,arrow_simon_norep,2021.1.2,MacIntel,28.57142857,,,,,,,,,,,o,2.444,14,0,14,0,1,,,,,,,,,,,,,,,,,,,,,
,,,,,,,,,,,,,,,,,,,,,,60fcb27a813cad15501fe54e,001,2021-08-01_13h30.40.952,arrow_simon_norep,2021.1.2,MacIntel,28.57142857,,,,,,,,,,,q,2.479,15,0,15,0,1,,,,,,,,,,,,,,,,,,,,,
,,,,,,,,,,,,,,,,,,,,,,60fcb27a813cad15501fe54e,001,2021-08-01_13h30.40.952,arrow_simon_norep,2021.1.2,MacIntel,28.57142857,,,,,,,,,,,w,2.561,16,0,16,0,1,,,,,,,,,,,,,,,,,,,,,
,,,,,,,,,,,,,,,,,,,,,,60fcb27a813cad15501fe54e,001,2021-08-01_13h30.40.952,arrow_simon_norep,2021.1.2,MacIntel,28.57142857,,,,,,,,,,,p,2.604,17,0,17,0,1,,,,,,,,,,,,,,,,,,,,,
,,,,,,,,,,,,,,,,,,,,,,60fcb27a813cad15501fe54e,001,2021-08-01_13h30.40.952,arrow_simon_norep,2021.1.2,MacIntel,28.57142857,,,,,,,,,,,o,2.595,18,0,18,0,1,,,,,,,,,,,,,,,,,,,,,
,,,,,,,,,,,,,,,,,,,,,,60fcb27a813cad15501fe54e,001,2021-08-01_13h30.40.952,arrow_simon_norep,2021.1.2,MacIntel,28.57142857,,,,,,,,,,,p,2.618,19,0,19,0,1,,,,,,,,,,,,,,,,,,,,,
,,,,,,,,,,,,,,,,,,,,,,60fcb27a813cad15501fe54e,001,2021-08-01_13h30.40.952,arrow_simon_norep,2021.1.2,MacIntel,28.57142857,,,,,,,,,,,o,2.569,20,0,20,0,1,,,,,,,,,,,,,,,,,,,,,
,,,,,,,,,,,,,,,,,,,,,,60fcb27a813cad15501fe54e,001,2021-08-01_13h30.40.952,arrow_simon_norep,2021.1.2,MacIntel,28.57142857,,,,,,,,,,,p,2.244,21,0,21,0,1,,,,,,,,,,,,,,,,,,,,,
,,,,,,,,,,,,,,,,,,,,,,60fcb27a813cad15501fe54e,001,2021-08-01_13h30.40.952,arrow_simon_norep,2021.1.2,MacIntel,28.57142857,,,,,,,,,,,o,2.449,22,0,22,0,1,,,,,,,,,,,,,,,,,,,,,
,,,,,,,,,,,,,,,,,,,,,,60fcb27a813cad15501fe54e,001,2021-08-01_13h30.40.952,arrow_simon_norep,2021.1.2,MacIntel,28.57142857,,,,,,,,,,,q,2.495,23,0,23,0,1,,,,,,,,,,,,,,,,,,,,,
,,,,,,,,,,,,,,,,,,,,,,60fcb27a813cad15501fe54e,001,2021-08-01_13h30.40.952,arrow_simon_norep,2021.1.2,MacIntel,28.57142857,,,,,,,,,,,o,2.517,24,0,24,0,1,,,,,,,,,,,,,,,,,,,,,
,,,,,,,,,,,,,,,,,,,,,,60fcb27a813cad15501fe54e,001,2021-08-01_13h30.40.952,arrow_simon_norep,2021.1.2,MacIntel,28.57142857,,,,,,,,,,,q,2.476,25,0,25,0,1,,,,,,,,,,,,,,,,,,,,,
,,,,,,,,,,,,,,,,,,,,,,60fcb27a813cad15501fe54e,001,2021-08-01_13h30.40.952,arrow_simon_norep,2021.1.2,MacIntel,28.57142857,,,,,,,,,,,o,2.504,26,0,26,0,1,,,,,,,,,,,,,,,,,,,,,
,,,,,,,,,,,,,,,,,,,,,,60fcb27a813cad15501fe54e,001,2021-08-01_13h30.40.952,arrow_simon_norep,2021.1.2,MacIntel,28.57142857,,,,,,,,,,,p,2.628,27,0,27,0,1,,,,,,,,,,,,,,,,,,,,,
,,,,,,,,,,,,,,,,,,,,,,60fcb27a813cad15501fe54e,001,2021-08-01_13h30.40.952,arrow_simon_norep,2021.1.2,MacIntel,28.57142857,,,,,,,,,,,o,2.515,28,0,28,0,1,,,,,,,,,,,,,,,,,,,,,
,,,,,,,,,,,,,,,,,,,,,,60fcb27a813cad15501fe54e,001,2021-08-01_13h30.40.952,arrow_simon_norep,2021.1.2,MacIntel,28.57142857,,,,,,,,,,,q,2.467,29,0,29,0,1,,,,,,,,,,,,,,,,,,,,,
,,,,,,,,,,,,,,,,,,,,,,60fcb27a813cad15501fe54e,001,2021-08-01_13h30.40.952,arrow_simon_norep,2021.1.2,MacIntel,28.57142857,,,,,,,,,,,w,2.508,30,0,30,0,1,,,,,,,,,,,,,,,,,,,,,
,,,,,,,,,,,,,,,,,,,,,,60fcb27a813cad15501fe54e,001,2021-08-01_13h30.40.952,arrow_simon_norep,2021.1.2,MacIntel,28.57142857,,,,,,,,,,,p,2.419,31,0,31,0,1,,,,,,,,,,,,,,,,,,,,,
,,,,,,,,,,,,,,,,,,,,,,60fcb27a813cad15501fe54e,001,2021-08-01_13h30.40.952,arrow_simon_norep,2021.1.2,MacIntel,28.57142857,,,,,,,,,,,o,2.554,32,0,32,0,1,,,,,,,,,,,,,,,,,,,,,
,,,,,,,,,,,,,,,,,,,,,,60fcb27a813cad15501fe54e,001,2021-08-01_13h30.40.952,arrow_simon_norep,2021.1.2,MacIntel,28.57142857,,,,,,,,,,,p,2.432,33,0,33,0,1,,,,,,,,,,,,,,,,,,,,,
,,,,,,,,,,,,,,,,,,,,,,60fcb27a813cad15501fe54e,001,2021-08-01_13h30.40.952,arrow_simon_norep,2021.1.2,MacIntel,28.57142857,,,,,,,,,,,o,2.412,34,0,34,0,1,,,,,,,,,,,,,,,,,,,,,
,,,,,,,,,,,,,,,,,,,,,,60fcb27a813cad15501fe54e,001,2021-08-01_13h30.40.952,arrow_simon_norep,2021.1.2,MacIntel,28.57142857,,,,,,,,,,,p,2.463,35,0,35,0,1,,,,,,,,,,,,,,,,,,,,,
,,,,,,,,,,,,,,,,,,,,,,60fcb27a813cad15501fe54e,001,2021-08-01_13h30.40.952,arrow_simon_norep,2021.1.2,MacIntel,28.57142857,,,,,,,,,,,o,2.45,36,0,36,0,1,,,,,,,,,,,,,,,,,,,,,
,,,,,,,,,,,,,,,,,,,,,,60fcb27a813cad15501fe54e,001,2021-08-01_13h30.40.952,arrow_simon_norep,2021.1.2,MacIntel,28.57142857,,,,,,,,,,,p,2.508,37,0,37,0,1,,,,,,,,,,,,,,,,,,,,,
,,,,,,,,,,,,,,,,,,,,,,60fcb27a813cad15501fe54e,001,2021-08-01_13h30.40.952,arrow_simon_norep,2021.1.2,MacIntel,28.57142857,,,,,,,,,,,o,1.232,38,0,38,0,1,,,,,,,,,,,,,,,,,,,,,
,,,,,,,,,,,,,,,,,,,,,,60fcb27a813cad15501fe54e,001,2021-08-01_13h30.40.952,arrow_simon_norep,2021.1.2,MacIntel,28.57142857,,,,,,,,,,,p,2.544,39,0,39,0,1,,,,,,,,,,,,,,,,,,,,,
,,,,,,,,,,,,,,,,,,,,,,60fcb27a813cad15501fe54e,001,2021-08-01_13h30.40.952,arrow_simon_norep,2021.1.2,MacIntel,28.57142857,,,,,,,,,,,o,2.385,40,0,40,0,1,,,,,,,,,,,,,,,,,,,,,
,,,,,,,,,,,,,,,,,,,,,,60fcb27a813cad15501fe54e,001,2021-08-01_13h30.40.952,arrow_simon_norep,2021.1.2,MacIntel,28.57142857,,,,,,,,,,,p,2.562,41,0,41,0,1,,,,,,,,,,,,,,,,,,,,,
,,,,,,,,,,,,,,,,,,,,,,60fcb27a813cad15501fe54e,001,2021-08-01_13h30.40.952,arrow_simon_norep,2021.1.2,MacIntel,28.57142857,,,,,,,,,,,o,2.503,42,0,42,0,1,,,,,,,,,,,,,,,,,,,,,
,,,,,,,,,,,,,,,,,,,,,,60fcb27a813cad15501fe54e,001,2021-08-01_13h30.40.952,arrow_simon_norep,2021.1.2,MacIntel,28.57142857,,,,,,,,,,,p,2.556,43,0,43,0,1,,,,,,,,,,,,,,,,,,,,,
,,,,,,,,,,,,,,,,,,,,,,60fcb27a813cad15501fe54e,001,2021-08-01_13h30.40.952,arrow_simon_norep,2021.1.2,MacIntel,28.57142857,,,,,,,,,,,o,2.535,44,0,44,0,1,,,,,,,,,,,,,,,,,,,,,
,,,,,,,,,,,,,,,,,,,,,,60fcb27a813cad15501fe54e,001,2021-08-01_13h30.40.952,arrow_simon_norep,2021.1.2,MacIntel,28.57142857,,,,,,,,,,,p,2.361,45,0,45,0,1,,,,,,,,,,,,,,,,,,,,,
,,,,,,,,,,,,,,,,,,,,,,60fcb27a813cad15501fe54e,001,2021-08-01_13h30.40.952,arrow_simon_norep,2021.1.2,MacIntel,28.57142857,,,,,,,,,,,o,2.401,46,0,46,0,1,,,,,,,,,,,,,,,,,,,,,
,,,,,,,,,,,,,,,,,,,,,,60fcb27a813cad15501fe54e,001,2021-08-01_13h30.40.952,arrow_simon_norep,2021.1.2,MacIntel,28.57142857,,,,,,,,,,,p,2.469,47,0,47,0,1,,,,,,,,,,,,,,,,,,,,,
,,,,,,,,,,,,,,,,,,,,,,60fcb27a813cad15501fe54e,001,2021-08-01_13h30.40.952,arrow_simon_norep,2021.1.2,MacIntel,28.57142857,,,,,,,,,,,o,2.439,48,0,48,0,1,,,,,,,,,,,,,,,,,,,,,
,,,,,,,,,,,,,,,,,,,,,,60fcb27a813cad15501fe54e,001,2021-08-01_13h30.40.952,arrow_simon_norep,2021.1.2,MacIntel,28.57142857,,,,,,,,,,,p,2.504,49,0,49,0,1,,,,,,,,,,,,,,,,,,,,,
,,,,,,,,,,,,,,,,,,,,,,60fcb27a813cad15501fe54e,001,2021-08-01_13h30.40.952,arrow_simon_norep,2021.1.2,MacIntel,28.57142857,,,,,,,,,,,o,2.396,50,0,50,0,1,,,,,,,,,,,,,,,,,,,,,
,,,,,,,,,,,,,,,,,,,,,,60fcb27a813cad15501fe54e,001,2021-08-01_13h30.40.952,arrow_simon_norep,2021.1.2,MacIntel,28.57142857,,,,,,,,,,,p,2.445,51,0,51,0,1,,,,,,,,,,,,,,,,,,,,,
,,,,,,,,,,,,,,,,,,,,,,60fcb27a813cad15501fe54e,001,2021-08-01_13h30.40.952,arrow_simon_norep,2021.1.2,MacIntel,28.57142857,,,,,,,,,,,o,2.49,52,0,52,0,1,,,,,,,,,,,,,,,,,,,,,
,,,,,,,,,,,,,,,,,,,,,,60fcb27a813cad15501fe54e,001,2021-08-01_13h30.40.952,arrow_simon_norep,2021.1.2,MacIntel,28.57142857,,,,,,,,,,,p,2.441,53,0,53,0,1,,,,,,,,,,,,,,,,,,,,,
,,,,,,,,,,,,,,,,,,,,,,60fcb27a813cad15501fe54e,001,2021-08-01_13h30.40.952,arrow_simon_norep,2021.1.2,MacIntel,28.57142857,,,,,,,,,,,o,2.437,54,0,54,0,1,,,,,,,,,,,,,,,,,,,,,
,,,,,,,,,,,,,,,,,,,,,,60fcb27a813cad15501fe54e,001,2021-08-01_13h30.40.952,arrow_simon_norep,2021.1.2,MacIntel,28.57142857,,,,,,,,,,,p,2.552,55,0,55,0,1,,,,,,,,,,,,,,,,,,,,,
,,,,,,,,,,,,,,,,,,,,,,60fcb27a813cad15501fe54e,001,2021-08-01_13h30.40.952,arrow_simon_norep,2021.1.2,MacIntel,28.57142857,,,,,,,,,,,o,2.503,56,0,56,0,1,,,,,,,,,,,,,,,,,,,,,
,,,,,,,,,,,,,,,,,,,,,,60fcb27a813cad15501fe54e,001,2021-08-01_13h30.40.952,arrow_simon_norep,2021.1.2,MacIntel,28.57142857,,,,,,,,,,,p,2.477,57,0,57,0,1,,,,,,,,,,,,,,,,,,,,,
,,,,,,,,,,,,,,,,,,,,,,60fcb27a813cad15501fe54e,001,2021-08-01_13h30.40.952,arrow_simon_norep,2021.1.2,MacIntel,28.57142857,,,,,,,,,,,o,2.532,58,0,58,0,1,,,,,,,,,,,,,,,,,,,,,
,,,,,,,,,,,,,,,,,,,,,,60fcb27a813cad15501fe54e,001,2021-08-01_13h30.40.952,arrow_simon_norep,2021.1.2,MacIntel,28.57142857,,,,,,,,,,,p,2.359,59,0,59,0,1,,,,,,,,,,,,,,,,,,,,,
,,,,,,0,1.624022261,#a3d0fb,,right_blue.png,o,,,,,,o,right_blue.png,right_orange.png,p,left,60fcb27a813cad15501fe54e,001,2021-08-01_13h30.40.952,arrow_simon_norep,2021.1.2,MacIntel,28.57142857,,,,,,,,,,,,,,,,,,space,0,39.778,w,0,1.707,1,TRUE,FALSE,0,0,0,0,1,,,,,,,
,,,,,,0,2.499867221,#f3af84,,left_orange.png,q,,,,,,w,left_blue.png,left_orange.png,q,left,60fcb27a813cad15501fe54e,001,2021-08-01_13h30.40.952,arrow_simon_norep,2021.1.2,MacIntel,28.57142857,,,,,,,,,,,,,,,,,,,,,q,1,1.99,2,TRUE,FALSE,0,1,1,2,1,,,,,,,
,,,,,,0,2.108684168,#a3d0fb,,right_blue.png,o,,,,,,o,right_blue.png,right_orange.png,p,left,60fcb27a813cad15501fe54e,001,2021-08-01_13h30.40.952,arrow_simon_norep,2021.1.2,MacIntel,28.57142857,,,,,,,,,,,,,,,,,,,,,o,1,1.746,3,TRUE,FALSE,0,2,2,0,1,,,,,,,
,,,,,,0,2.02873442,#f3af84,,right_orange.png,p,,,,,,o,right_blue.png,right_orange.png,p,right,60fcb27a813cad15501fe54e,001,2021-08-01_13h30.40.952,arrow_simon_norep,2021.1.2,MacIntel,28.57142857,,,,,,,,,,,,,,,,,,,,,p,1,1.551,4,FALSE,FALSE,0,3,3,1,1,,,,,,,
,,,,,,0,2.106586912,#a3d0fb,,left_blue.png,w,,,,,,w,left_blue.png,left_orange.png,q,right,60fcb27a813cad15501fe54e,001,2021-08-01_13h30.40.952,arrow_simon_norep,2021.1.2,MacIntel,28.57142857,,,,,,,,,,,,,,,,,,,,,o,0,1.612,5,TRUE,FALSE,1,0,4,3,1,,,,,,,
,,,,,,0,2.025832131,#f3af84,,right_orange.png,p,,,,,,o,right_blue.png,right_orange.png,p,right,60fcb27a813cad15501fe54e,001,2021-08-01_13h30.40.952,arrow_simon_norep,2021.1.2,MacIntel,28.57142857,,,,,,,,,,,,,,,,,,,,,p,1,1.496,6,FALSE,FALSE,1,1,5,1,1,,,,,,,
,,,,,,0,1.512770751,#a3d0fb,,right_blue.png,o,,,,,,o,right_blue.png,right_orange.png,p,right,60fcb27a813cad15501fe54e,001,2021-08-01_13h30.40.952,arrow_simon_norep,2021.1.2,MacIntel,28.57142857,,,,,,,,,,,,,,,,,,,,,o,1,1.448,7,FALSE,FALSE,1,2,6,1,1,,,,,,,
,,,,,,0,2.012431051,#f3af84,,right_orange.png,p,,,,,,o,right_blue.png,right_orange.png,p,right,60fcb27a813cad15501fe54e,001,2021-08-01_13h30.40.952,arrow_simon_norep,2021.1.2,MacIntel,28.57142857,,,,,,,,,,,,,,,,,,,,,p,1,1.487,8,FALSE,FALSE,1,3,7,1,1,,,,,,,
,,,,,,0,1.556173015,#a3d0fb,,left_blue.png,w,,,,,,w,left_blue.png,left_orange.png,q,left,60fcb27a813cad15501fe54e,001,2021-08-01_13h30.40.952,arrow_simon_norep,2021.1.2,MacIntel,28.57142857,,,,,,,,,,,,,,,,,,,,,w,1,1.388,9,FALSE,TRUE,2,0,8,2,1,,,,,,,
,,,,,,0,1.938419584,#f3af84,,left_orange.png,q,,,,,,w,left_blue.png,left_orange.png,q,left,60fcb27a813cad15501fe54e,001,2021-08-01_13h30.40.952,arrow_simon_norep,2021.1.2,MacIntel,28.57142857,,,,,,,,,,,,,,,,,,,,,q,1,1.382,10,FALSE,TRUE,2,1,9,2,1,,,,,,,
,,,,,,0,2.15020022,#a3d0fb,,left_blue.png,w,,,,,,w,left_blue.png,left_orange.png,q,left,60fcb27a813cad15501fe54e,001,2021-08-01_13h30.40.952,arrow_simon_norep,2021.1.2,MacIntel,28.57142857,,,,,,,,,,,,,,,,,,,,,q,0,1.646,11,TRUE,FALSE,2,2,10,2,1,,,,,,,
,,,,,,0,2.265138533,#f3af84,,right_orange.png,p,,,,,,o,right_blue.png,right_orange.png,p,right,60fcb27a813cad15501fe54e,001,2021-08-01_13h30.40.952,arrow_simon_norep,2021.1.2,MacIntel,28.57142857,,,,,,,,,,,,,,,,,,,,,p,1,1.671,12,TRUE,FALSE,2,3,11,1,1,,,,,,,
,,,,,,0,2.36196523,#a3d0fb,,right_blue.png,o,,,,,,o,right_blue.png,right_orange.png,p,left,60fcb27a813cad15501fe54e,001,2021-08-01_13h30.40.952,arrow_simon_norep,2021.1.2,MacIntel,28.57142857,,,,,,,,,,,,,,,,,,,,,w,0,3.152,13,TRUE,FALSE,3,0,12,0,1,,,,,,,
,,,,,,0,1.84379123,#f3af84,,right_orange.png,p,,,,,,o,right_blue.png,right_orange.png,p,right,60fcb27a813cad15501fe54e,001,2021-08-01_13h30.40.952,arrow_simon_norep,2021.1.2,MacIntel,28.57142857,,,,,,,,,,,,,,,,,,,,,p,1,1.387,14,FALSE,TRUE,3,1,13,1,1,,,,,,,
,,,,,,0,2.416779165,#a3d0fb,,left_blue.png,w,,,,,,w,left_blue.png,left_orange.png,q,right,60fcb27a813cad15501fe54e,001,2021-08-01_13h30.40.952,arrow_simon_norep,2021.1.2,MacIntel,28.57142857,,,,,,,,,,,,,,,,,,,,,o,0,1.888,15,TRUE,FALSE,3,2,14,3,1,,,,,,,
,,,,,,0,2.020398919,#f3af84,,right_orange.png,p,,,,,,o,right_blue.png,right_orange.png,p,left,60fcb27a813cad15501fe54e,001,2021-08-01_13h30.40.952,arrow_simon_norep,2021.1.2,MacIntel,28.57142857,,,,,,,,,,,,,,,,,,,,,p,1,1.642,16,TRUE,FALSE,3,3,15,0,1,,,,,,,
,,,,,,0,2.358614512,#a3d0fb,,right_blue.png,o,,,,,,o,right_blue.png,right_orange.png,p,left,60fcb27a813cad15501fe54e,001,2021-08-01_13h30.40.952,arrow_simon_norep,2021.1.2,MacIntel,28.57142857,,,,,,,,,,,,,,,,,,,,,o,1,3.24,17,TRUE,FALSE,4,0,16,0,1,,,,,,,
,,,,,,0,2.413091446,#f3af84,,left_orange.png,q,,,,,,w,left_blue.png,left_orange.png,q,left,60fcb27a813cad15501fe54e,001,2021-08-01_13h30.40.952,arrow_simon_norep,2021.1.2,MacIntel,28.57142857,,,,,,,,,,,,,,,,,,,,,q,1,2.094,18,TRUE,FALSE,4,1,17,2,1,,,,,,,
,,,,,,0,1.644477418,#a3d0fb,,right_blue.png,o,,,,,,o,right_blue.png,right_orange.png,p,left,60fcb27a813cad15501fe54e,001,2021-08-01_13h30.40.952,arrow_simon_norep,2021.1.2,MacIntel,28.57142857,,,,,,,,,,,,,,,,,,,,,w,0,1.367,19,FALSE,TRUE,4,2,18,0,1,,,,,,,
,,,,,,0,2.132283896,#f3af84,,left_orange.png,q,,,,,,w,left_blue.png,left_orange.png,q,right,60fcb27a813cad15501fe54e,001,2021-08-01_13h30.40.952,arrow_simon_norep,2021.1.2,MacIntel,28.57142857,,,,,,,,,,,,,,,,,,,,,o,0,1.854,20,TRUE,FALSE,4,3,19,3,1,,,,,,,
,,,,,,0,1.621401895,#a3d0fb,,right_blue.png,o,,,,,,o,right_blue.png,right_orange.png,p,left,60fcb27a813cad15501fe54e,001,2021-08-01_13h30.40.952,arrow_simon_norep,2021.1.2,MacIntel,28.57142857,,,,,,,,,,,,,,,,,,,,,o,1,1.542,21,FALSE,FALSE,5,0,20,0,1,,,,,,,
,,,,,,0,2.224510952,#f3af84,,right_orange.png,p,,,,,,o,right_blue.png,right_orange.png,p,right,60fcb27a813cad15501fe54e,001,2021-08-01_13h30.40.952,arrow_simon_norep,2021.1.2,MacIntel,28.57142857,,,,,,,,,,,,,,,,,,,,,p,1,1.682,22,TRUE,FALSE,5,1,21,1,1,,,,,,,
,,,,,,1,1.612008645,#a3d0fb,,right_blue.png,o,,,,,,o,right_blue.png,right_orange.png,p,left,60fcb27a813cad15501fe54e,001,2021-08-01_13h30.40.952,arrow_simon_norep,2021.1.2,MacIntel,28.57142857,,,,,,,,,,,,,,,,,,,,,w,0,1.455,23,FALSE,FALSE,5,2,22,0,1,,,,,,,
,,,,,,1,2.202901203,#f3af84,,left_orange.png,q,,,,,,w,left_blue.png,left_orange.png,q,left,60fcb27a813cad15501fe54e,001,2021-08-01_13h30.40.952,arrow_simon_norep,2021.1.2,MacIntel,28.57142857,,,,,,,,,,,,,,,,,,,,,q,1,2.632,24,TRUE,FALSE,5,3,23,2,1,,,,,,,
,,,,,,1,1.886781946,#a3d0fb,,right_blue.png,o,,,,,,o,right_blue.png,right_orange.png,p,right,60fcb27a813cad15501fe54e,001,2021-08-01_13h30.40.952,arrow_simon_norep,2021.1.2,MacIntel,28.57142857,,,,,,,,,,,,,,,,,,,,,p,0,1.477,25,FALSE,FALSE,6,0,24,1,1,,,,,,,
,,,,,,1,2.402939874,#f3af84,,right_orange.png,p,,,,,,o,right_blue.png,right_orange.png,p,left,60fcb27a813cad15501fe54e,001,2021-08-01_13h30.40.952,arrow_simon_norep,2021.1.2,MacIntel,28.57142857,,,,,,,,,,,,,,,,,,,,,p,1,1.962,26,TRUE,FALSE,6,1,25,0,1,,,,,,,
,,,,,,1,2.388903579,#a3d0fb,,right_blue.png,o,,,,,,o,right_blue.png,right_orange.png,p,left,60fcb27a813cad15501fe54e,001,2021-08-01_13h30.40.952,arrow_simon_norep,2021.1.2,MacIntel,28.57142857,,,,,,,,,,,,,,,,,,,,,p,0,1.941,27,TRUE,FALSE,6,2,26,0,1,,,,,,,
,,,,,,1,1.776494773,#f3af84,,left_orange.png,q,,,,,,w,left_blue.png,left_orange.png,q,left,60fcb27a813cad15501fe54e,001,2021-08-01_13h30.40.952,arrow_simon_norep,2021.1.2,MacIntel,28.57142857,,,,,,,,,,,,,,,,,,,,,q,1,1.836,28,TRUE,FALSE,6,3,27,2,1,,,,,,,
,,,,,,0,1.533299548,#a3d0fb,,right_blue.png,o,,,,,,o,right_blue.png,right_orange.png,p,right,60fcb27a813cad15501fe54e,001,2021-08-01_13h30.40.952,arrow_simon_norep,2021.1.2,MacIntel,28.57142857,,,,,,,,,,,,,,,,,,,,,o,1,1.564,29,FALSE,FALSE,7,0,28,1,1,,,,,,,
,,,,,,0,2.348183149,#f3af84,,left_orange.png,q,,,,,,w,left_blue.png,left_orange.png,q,left,60fcb27a813cad15501fe54e,001,2021-08-01_13h30.40.952,arrow_simon_norep,2021.1.2,MacIntel,28.57142857,,,,,,,,,,,,,,,,,,,,,q,1,3.094,30,TRUE,FALSE,7,1,29,2,1,,,,,,,
,,,,,,0,2.326496034,#a3d0fb,,right_blue.png,o,,,,,,o,right_blue.png,right_orange.png,p,left,60fcb27a813cad15501fe54e,001,2021-08-01_13h30.40.952,arrow_simon_norep,2021.1.2,MacIntel,28.57142857,,,,,,,,,,,,,,,,,,,,,o,1,2.87,31,TRUE,FALSE,7,2,30,0,1,,,,,,,
,,,,,,0,2.322642163,#f3af84,,right_orange.png,p,,,,,,o,right_blue.png,right_orange.png,p,right,60fcb27a813cad15501fe54e,001,2021-08-01_13h30.40.952,arrow_simon_norep,2021.1.2,MacIntel,28.57142857,,,,,,,,,,,,,,,,,,,,,p,1,1.998,32,TRUE,FALSE,7,3,31,1,1,,,,,,,
,,,,,,1,1.82562127,#a3d0fb,,left_blue.png,w,,,,,,w,left_blue.png,left_orange.png,q,right,60fcb27a813cad15501fe54e,001,2021-08-01_13h30.40.952,arrow_simon_norep,2021.1.2,MacIntel,28.57142857,,,,,,,,,,,,,,,,,,,,,q,0,1.598,33,FALSE,FALSE,8,0,32,3,1,,,,,,,
,,,,,,1,2.447305147,#f3af84,,left_orange.png,q,,,,,,w,left_blue.png,left_orange.png,q,left,60fcb27a813cad15501fe54e,001,2021-08-01_13h30.40.952,arrow_simon_norep,2021.1.2,MacIntel,28.57142857,,,,,,,,,,,,,,,,,,,,,q,1,2.012,34,TRUE,FALSE,8,1,33,2,1,,,,,,,
,,,,,,1,1.751708761,#a3d0fb,,left_blue.png,w,,,,,,w,left_blue.png,left_orange.png,q,right,60fcb27a813cad15501fe54e,001,2021-08-01_13h30.40.952,arrow_simon_norep,2021.1.2,MacIntel,28.57142857,,,,,,,,,,,,,,,,,,,,,w,1,1.67,35,TRUE,FALSE,8,2,34,3,1,,,,,,,
,,,,,,1,1.592551298,#f3af84,,left_orange.png,q,,,,,,w,left_blue.png,left_orange.png,q,right,60fcb27a813cad15501fe54e,001,2021-08-01_13h30.40.952,arrow_simon_norep,2021.1.2,MacIntel,28.57142857,,,,,,,,,,,,,,,,,,,,,q,1,1.623,36,TRUE,FALSE,8,3,35,3,1,,,,,,,
,,,,,,1,2.401944129,#a3d0fb,,right_blue.png,o,,,,,,o,right_blue.png,right_orange.png,p,left,60fcb27a813cad15501fe54e,001,2021-08-01_13h30.40.952,arrow_simon_norep,2021.1.2,MacIntel,28.57142857,,,,,,,,,,,,,,,,,,,,,o,1,2.24,37,TRUE,FALSE,9,0,36,0,1,,,,,,,
,,,,,,0,2.130963825,#f3af84,,left_orange.png,q,,,,,,w,left_blue.png,left_orange.png,q,left,60fcb27a813cad15501fe54e,001,2021-08-01_13h30.40.952,arrow_simon_norep,2021.1.2,MacIntel,28.57142857,,,,,,,,,,,,,,,,,,,,,q,1,1.526,38,FALSE,FALSE,9,1,37,2,1,,,,,,,
,,,,,,0,1.918515881,#a3d0fb,,left_blue.png,w,,,,,,w,left_blue.png,left_orange.png,q,left,60fcb27a813cad15501fe54e,001,2021-08-01_13h30.40.952,arrow_simon_norep,2021.1.2,MacIntel,28.57142857,,,,,,,,,,,,,,,,,,,,,w,1,1.551,39,FALSE,FALSE,9,2,38,2,1,,,,,,,
,,,,,,0,2.484213029,#f3af84,,right_orange.png,p,,,,,,o,right_blue.png,right_orange.png,p,right,60fcb27a813cad15501fe54e,001,2021-08-01_13h30.40.952,arrow_simon_norep,2021.1.2,MacIntel,28.57142857,,,,,,,,,,,,,,,,,,,,,p,1,1.801,40,TRUE,FALSE,9,3,39,1,1,,,,,,,
,,,,,,0,2.002446621,#a3d0fb,,right_blue.png,o,,,,,,o,right_blue.png,right_orange.png,p,right,60fcb27a813cad15501fe54e,001,2021-08-01_13h30.40.952,arrow_simon_norep,2021.1.2,MacIntel,28.57142857,,,,,,,,,,,,,,,,,,,,,o,1,1.441,41,FALSE,FALSE,10,0,40,1,1,,,,,,,
,,,,,,0,1.735402002,#f3af84,,left_orange.png,q,,,,,,w,left_blue.png,left_orange.png,q,right,60fcb27a813cad15501fe54e,001,2021-08-01_13h30.40.952,arrow_simon_norep,2021.1.2,MacIntel,28.57142857,,,,,,,,,,,,,,,,,,,,,q,1,1.558,42,FALSE,FALSE,10,1,41,3,1,,,,,,,
,,,,,,0,2.018284271,#a3d0fb,,left_blue.png,w,,,,,,w,left_blue.png,left_orange.png,q,left,60fcb27a813cad15501fe54e,001,2021-08-01_13h30.40.952,arrow_simon_norep,2021.1.2,MacIntel,28.57142857,,,,,,,,,,,,,,,,,,,,,w,1,1.569,43,FALSE,FALSE,10,2,42,2,1,,,,,,,
,,,,,,0,1.950705408,#f3af84,,left_orange.png,q,,,,,,w,left_blue.png,left_orange.png,q,left,60fcb27a813cad15501fe54e,001,2021-08-01_13h30.40.952,arrow_simon_norep,2021.1.2,MacIntel,28.57142857,,,,,,,,,,,,,,,,,,,,,q,1,1.539,44,FALSE,FALSE,10,3,43,2,1,,,,,,,
,,,,,,1,1.607431441,#a3d0fb,,right_blue.png,o,,,,,,o,right_blue.png,right_orange.png,p,left,60fcb27a813cad15501fe54e,001,2021-08-01_13h30.40.952,arrow_simon_norep,2021.1.2,MacIntel,28.57142857,,,,,,,,,,,,,,,,,,,,,p,0,1.408,45,FALSE,FALSE,11,0,44,0,1,,,,,,,
,,,,,,0,1.589511002,#f3af84,,left_orange.png,q,,,,,,w,left_blue.png,left_orange.png,q,right,60fcb27a813cad15501fe54e,001,2021-08-01_13h30.40.952,arrow_simon_norep,2021.1.2,MacIntel,28.57142857,,,,,,,,,,,,,,,,,,,,,q,1,1.405,46,FALSE,FALSE,11,1,45,3,1,,,,,,,
,,,,,,0,1.513169394,#a3d0fb,,right_blue.png,o,,,,,,o,right_blue.png,right_orange.png,p,left,60fcb27a813cad15501fe54e,001,2021-08-01_13h30.40.952,arrow_simon_norep,2021.1.2,MacIntel,28.57142857,,,,,,,,,,,,,,,,,,,,,o,1,1.385,47,FALSE,TRUE,11,2,46,0,1,,,,,,,
,,,,,,0,1.74973631,#f3af84,,left_orange.png,q,,,,,,w,left_blue.png,left_orange.png,q,right,60fcb27a813cad15501fe54e,001,2021-08-01_13h30.40.952,arrow_simon_norep,2021.1.2,MacIntel,28.57142857,,,,,,,,,,,,,,,,,,,,,q,1,1.518,48,FALSE,FALSE,11,3,47,3,1,,,,,,,
,,,,,,0,1.749122001,#a3d0fb,,left_blue.png,w,,,,,,w,left_blue.png,left_orange.png,q,right,60fcb27a813cad15501fe54e,001,2021-08-01_13h30.40.952,arrow_simon_norep,2021.1.2,MacIntel,28.57142857,,,,,,,,,,,,,,,,,,,,,w,1,1.554,49,FALSE,FALSE,12,0,48,3,1,,,,,,,
,,,,,,0,2.400920994,#f3af84,,left_orange.png,q,,,,,,w,left_blue.png,left_orange.png,q,left,60fcb27a813cad15501fe54e,001,2021-08-01_13h30.40.952,arrow_simon_norep,2021.1.2,MacIntel,28.57142857,,,,,,,,,,,,,,,,,,,,,q,1,1.836,50,TRUE,FALSE,12,1,49,2,1,,,,,,,
,,,,,,0,1.62218396,#a3d0fb,,left_blue.png,w,,,,,,w,left_blue.png,left_orange.png,q,right,60fcb27a813cad15501fe54e,001,2021-08-01_13h30.40.952,arrow_simon_norep,2021.1.2,MacIntel,28.57142857,,,,,,,,,,,,,,,,,,,,,o,0,1.692,51,TRUE,FALSE,12,2,50,3,1,,,,,,,
,,,,,,0,2.463567154,#f3af84,,left_orange.png,q,,,,,,w,left_blue.png,left_orange.png,q,right,60fcb27a813cad15501fe54e,001,2021-08-01_13h30.40.952,arrow_simon_norep,2021.1.2,MacIntel,28.57142857,,,,,,,,,,,,,,,,,,,,,q,1,2.068,52,TRUE,FALSE,12,3,51,3,1,,,,,,,
,,,,,,0,2.097817449,#a3d0fb,,right_blue.png,o,,,,,,o,right_blue.png,right_orange.png,p,right,60fcb27a813cad15501fe54e,001,2021-08-01_13h30.40.952,arrow_simon_norep,2021.1.2,MacIntel,28.57142857,,,,,,,,,,,,,,,,,,,,,o,1,1.818,53,TRUE,FALSE,13,0,52,1,1,,,,,,,
,,,,,,0,1.80357189,#f3af84,,left_orange.png,q,,,,,,w,left_blue.png,left_orange.png,q,left,60fcb27a813cad15501fe54e,001,2021-08-01_13h30.40.952,arrow_simon_norep,2021.1.2,MacIntel,28.57142857,,,,,,,,,,,,,,,,,,,,,q,1,1.5,54,FALSE,FALSE,13,1,53,2,1,,,,,,,
,,,,,,0,1.68155469,#a3d0fb,,right_blue.png,o,,,,,,o,right_blue.png,right_orange.png,p,left,60fcb27a813cad15501fe54e,001,2021-08-01_13h30.40.952,arrow_simon_norep,2021.1.2,MacIntel,28.57142857,,,,,,,,,,,,,,,,,,,,,o,1,1.508,55,FALSE,FALSE,13,2,54,0,1,,,,,,,
,,,,,,0,1.595518281,#f3af84,,left_orange.png,q,,,,,,w,left_blue.png,left_orange.png,q,right,60fcb27a813cad15501fe54e,001,2021-08-01_13h30.40.952,arrow_simon_norep,2021.1.2,MacIntel,28.57142857,,,,,,,,,,,,,,,,,,,,,q,1,1.458,56,FALSE,FALSE,13,3,55,3,1,,,,,,,
,,,,,,0,2.290396725,#a3d0fb,,right_blue.png,o,,,,,,o,right_blue.png,right_orange.png,p,right,60fcb27a813cad15501fe54e,001,2021-08-01_13h30.40.952,arrow_simon_norep,2021.1.2,MacIntel,28.57142857,,,,,,,,,,,,,,,,,,,,,o,1,1.732,57,TRUE,FALSE,14,0,56,1,1,,,,,,,
,,,,,,0,2.291149356,#f3af84,,right_orange.png,p,,,,,,o,right_blue.png,right_orange.png,p,right,60fcb27a813cad15501fe54e,001,2021-08-01_13h30.40.952,arrow_simon_norep,2021.1.2,MacIntel,28.57142857,,,,,,,,,,,,,,,,,,,,,p,1,1.787,58,TRUE,FALSE,14,1,57,1,1,,,,,,,
,,,,,,1,2.171690315,#a3d0fb,,left_blue.png,w,,,,,,w,left_blue.png,left_orange.png,q,right,60fcb27a813cad15501fe54e,001,2021-08-01_13h30.40.952,arrow_simon_norep,2021.1.2,MacIntel,28.57142857,,,,,,,,,,,,,,,,,,,,,q,0,1.543,59,FALSE,FALSE,14,2,58,3,1,,,,,,,
,,,,,,1,1.533722726,#f3af84,,left_orange.png,q,,,,,,w,left_blue.png,left_orange.png,q,right,60fcb27a813cad15501fe54e,001,2021-08-01_13h30.40.952,arrow_simon_norep,2021.1.2,MacIntel,28.57142857,,,,,,,,,,,,,,,,,,,,,w,0,1.4,60,FALSE,FALSE,14,3,59,3,1,,,,,,,
,,,,,,,,,,,,,,,,,,,,,,60fcb27a813cad15501fe54e,001,2021-08-01_13h30.40.952,arrow_simon_norep,2021.1.2,MacIntel,28.57142857,,,,,,,,,,,,,,,,,,,,,,,,,,,,,,,,space,24.798,0,0,0,0,1
,,,,,,1,1.733824767,#a3d0fb,,left_blue.png,w,,,,,,w,left_blue.png,left_orange.png,q,right,60fcb27a813cad15501fe54e,001,2021-08-01_13h30.40.952,arrow_simon_norep,2021.1.2,MacIntel,28.57142857,,,,,,,,,,,,,,,,,,,,,w,1,4.158,1,TRUE,FALSE,0,0,0,3,1,,,,,,,
,,,,,,1,2.451397427,#f3af84,,left_orange.png,q,,,,,,w,left_blue.png,left_orange.png,q,right,60fcb27a813cad15501fe54e,001,2021-08-01_13h30.40.952,arrow_simon_norep,2021.1.2,MacIntel,28.57142857,,,,,,,,,,,,,,,,,,,,,q,1,2.837,2,TRUE,FALSE,0,1,1,3,1,,,,,,,
,,,,,,1,1.566690809,#a3d0fb,,left_blue.png,w,,,,,,w,left_blue.png,left_orange.png,q,left,60fcb27a813cad15501fe54e,001,2021-08-01_13h30.40.952,arrow_simon_norep,2021.1.2,MacIntel,28.57142857,,,,,,,,,,,,,,,,,,,,,w,1,1.094,3,FALSE,TRUE,0,2,2,2,1,,,,,,,
,,,,,,1,2.200747725,#f3af84,,right_orange.png,p,,,,,,o,right_blue.png,right_orange.png,p,right,60fcb27a813cad15501fe54e,001,2021-08-01_13h30.40.952,arrow_simon_norep,2021.1.2,MacIntel,28.57142857,,,,,,,,,,,,,,,,,,,,,p,1,1.638,4,TRUE,FALSE,0,3,3,1,1,,,,,,,
,,,,,,1,1.786472382,#a3d0fb,,left_blue.png,w,,,,,,w,left_blue.png,left_orange.png,q,left,60fcb27a813cad15501fe54e,001,2021-08-01_13h30.40.952,arrow_simon_norep,2021.1.2,MacIntel,28.57142857,,,,,,,,,,,,,,,,,,,,,w,1,1.214,5,FALSE,TRUE,1,0,4,2,1,,,,,,,
,,,,,,0,1.818407109,#f3af84,,left_orange.png,q,,,,,,w,left_blue.png,left_orange.png,q,right,60fcb27a813cad15501fe54e,001,2021-08-01_13h30.40.952,arrow_simon_norep,2021.1.2,MacIntel,28.57142857,,,,,,,,,,,,,,,,,,,,,q,1,1.521,6,FALSE,FALSE,1,1,5,3,1,,,,,,,
,,,,,,1,1.538183222,#a3d0fb,,left_blue.png,w,,,,,,w,left_blue.png,left_orange.png,q,right,60fcb27a813cad15501fe54e,001,2021-08-01_13h30.40.952,arrow_simon_norep,2021.1.2,MacIntel,28.57142857,,,,,,,,,,,,,,,,,,,,,o,0,1.43,7,FALSE,FALSE,1,2,6,3,1,,,,,,,
,,,,,,1,2.230739584,#f3af84,,left_orange.png,q,,,,,,w,left_blue.png,left_orange.png,q,right,60fcb27a813cad15501fe54e,001,2021-08-01_13h30.40.952,arrow_simon_norep,2021.1.2,MacIntel,28.57142857,,,,,,,,,,,,,,,,,,,,,q,1,1.754,8,TRUE,FALSE,1,3,7,3,1,,,,,,,
,,,,,,1,2.109858667,#a3d0fb,,right_blue.png,o,,,,,,o,right_blue.png,right_orange.png,p,left,60fcb27a813cad15501fe54e,001,2021-08-01_13h30.40.952,arrow_simon_norep,2021.1.2,MacIntel,28.57142857,,,,,,,,,,,,,,,,,,,,,o,1,1.665,9,TRUE,FALSE,2,0,8,0,1,,,,,,,
,,,,,,0,1.739671698,#f3af84,,left_orange.png,q,,,,,,w,left_blue.png,left_orange.png,q,left,60fcb27a813cad15501fe54e,001,2021-08-01_13h30.40.952,arrow_simon_norep,2021.1.2,MacIntel,28.57142857,,,,,,,,,,,,,,,,,,,,,q,1,1.47,10,FALSE,FALSE,2,1,9,2,1,,,,,,,
,,,,,,0,2.137394636,#a3d0fb,,right_blue.png,o,,,,,,o,right_blue.png,right_orange.png,p,right,60fcb27a813cad15501fe54e,001,2021-08-01_13h30.40.952,arrow_simon_norep,2021.1.2,MacIntel,28.57142857,,,,,,,,,,,,,,,,,,,,,o,1,1.533,11,FALSE,FALSE,2,2,10,1,1,,,,,,,
,,,,,,0,1.648091241,#f3af84,,left_orange.png,q,,,,,,w,left_blue.png,left_orange.png,q,left,60fcb27a813cad15501fe54e,001,2021-08-01_13h30.40.952,arrow_simon_norep,2021.1.2,MacIntel,28.57142857,,,,,,,,,,,,,,,,,,,,,q,1,1.469,12,FALSE,FALSE,2,3,11,2,1,,,,,,,
,,,,,,0,2.465699984,#a3d0fb,,right_blue.png,o,,,,,,o,right_blue.png,right_orange.png,p,right,60fcb27a813cad15501fe54e,001,2021-08-01_13h30.40.952,arrow_simon_norep,2021.1.2,MacIntel,28.57142857,,,,,,,,,,,,,,,,,,,,,o,1,1.753,13,TRUE,FALSE,3,0,12,1,1,,,,,,,
,,,,,,0,2.226437275,#f3af84,,right_orange.png,p,,,,,,o,right_blue.png,right_orange.png,p,right,60fcb27a813cad15501fe54e,001,2021-08-01_13h30.40.952,arrow_simon_norep,2021.1.2,MacIntel,28.57142857,,,,,,,,,,,,,,,,,,,,,p,1,1.571,14,FALSE,FALSE,3,1,13,1,1,,,,,,,
,,,,,,0,2.367980487,#a3d0fb,,left_blue.png,w,,,,,,w,left_blue.png,left_orange.png,q,right,60fcb27a813cad15501fe54e,001,2021-08-01_13h30.40.952,arrow_simon_norep,2021.1.2,MacIntel,28.57142857,,,,,,,,,,,,,,,,,,,,,w,1,1.82,15,TRUE,FALSE,3,2,14,3,1,,,,,,,
,,,,,,0,2.32918801,#f3af84,,right_orange.png,p,,,,,,o,right_blue.png,right_orange.png,p,right,60fcb27a813cad15501fe54e,001,2021-08-01_13h30.40.952,arrow_simon_norep,2021.1.2,MacIntel,28.57142857,,,,,,,,,,,,,,,,,,,,,p,1,1.729,16,TRUE,FALSE,3,3,15,1,1,,,,,,,
,,,,,,0,1.752819036,#a3d0fb,,right_blue.png,o,,,,,,o,right_blue.png,right_orange.png,p,left,60fcb27a813cad15501fe54e,001,2021-08-01_13h30.40.952,arrow_simon_norep,2021.1.2,MacIntel,28.57142857,,,,,,,,,,,,,,,,,,,,,o,1,1.348,17,FALSE,TRUE,4,0,16,0,1,,,,,,,
,,,,,,0,1.613338749,#f3af84,,right_orange.png,p,,,,,,o,right_blue.png,right_orange.png,p,right,60fcb27a813cad15501fe54e,001,2021-08-01_13h30.40.952,arrow_simon_norep,2021.1.2,MacIntel,28.57142857,,,,,,,,,,,,,,,,,,,,,p,1,1.551,18,FALSE,FALSE,4,1,17,1,1,,,,,,,
,,,,,,0,1.982611286,#a3d0fb,,left_blue.png,w,,,,,,w,left_blue.png,left_orange.png,q,left,60fcb27a813cad15501fe54e,001,2021-08-01_13h30.40.952,arrow_simon_norep,2021.1.2,MacIntel,28.57142857,,,,,,,,,,,,,,,,,,,,,w,1,1.683,19,TRUE,FALSE,4,2,18,2,1,,,,,,,
,,,,,,0,1.784589716,#f3af84,,right_orange.png,p,,,,,,o,right_blue.png,right_orange.png,p,right,60fcb27a813cad15501fe54e,001,2021-08-01_13h30.40.952,arrow_simon_norep,2021.1.2,MacIntel,28.57142857,,,,,,,,,,,,,,,,,,,,,p,1,1.556,20,FALSE,FALSE,4,3,19,1,1,,,,,,,
,,,,,,0,1.657190511,#a3d0fb,,right_blue.png,o,,,,,,o,right_blue.png,right_orange.png,p,right,60fcb27a813cad15501fe54e,001,2021-08-01_13h30.40.952,arrow_simon_norep,2021.1.2,MacIntel,28.57142857,,,,,,,,,,,,,,,,,,,,,o,1,1.371,21,FALSE,TRUE,5,0,20,1,1,,,,,,,
,,,,,,0,1.551501285,#f3af84,,left_orange.png,q,,,,,,w,left_blue.png,left_orange.png,q,right,60fcb27a813cad15501fe54e,001,2021-08-01_13h30.40.952,arrow_simon_norep,2021.1.2,MacIntel,28.57142857,,,,,,,,,,,,,,,,,,,,,q,1,1.498,22,FALSE,FALSE,5,1,21,3,1,,,,,,,
,,,,,,0,2.455549414,#a3d0fb,,left_blue.png,w,,,,,,w,left_blue.png,left_orange.png,q,left,60fcb27a813cad15501fe54e,001,2021-08-01_13h30.40.952,arrow_simon_norep,2021.1.2,MacIntel,28.57142857,,,,,,,,,,,,,,,,,,,,,w,1,1.669,23,TRUE,FALSE,5,2,22,2,1,,,,,,,
,,,,,,0,1.830264531,#f3af84,,right_orange.png,p,,,,,,o,right_blue.png,right_orange.png,p,left,60fcb27a813cad15501fe54e,001,2021-08-01_13h30.40.952,arrow_simon_norep,2021.1.2,MacIntel,28.57142857,,,,,,,,,,,,,,,,,,,,,p,1,1.641,24,TRUE,FALSE,5,3,23,0,1,,,,,,,
,,,,,,0,2.06476295,#a3d0fb,,left_blue.png,w,,,,,,w,left_blue.png,left_orange.png,q,left,60fcb27a813cad15501fe54e,001,2021-08-01_13h30.40.952,arrow_simon_norep,2021.1.2,MacIntel,28.57142857,,,,,,,,,,,,,,,,,,,,,w,1,1.617,25,TRUE,FALSE,6,0,24,2,1,,,,,,,
,,,,,,0,2.480743757,#f3af84,,right_orange.png,p,,,,,,o,right_blue.png,right_orange.png,p,left,60fcb27a813cad15501fe54e,001,2021-08-01_13h30.40.952,arrow_simon_norep,2021.1.2,MacIntel,28.57142857,,,,,,,,,,,,,,,,,,,,,p,1,1.612,26,TRUE,FALSE,6,1,25,0,1,,,,,,,
,,,,,,0,2.351478534,#a3d0fb,,right_blue.png,o,,,,,,o,right_blue.png,right_orange.png,p,left,60fcb27a813cad15501fe54e,001,2021-08-01_13h30.40.952,arrow_simon_norep,2021.1.2,MacIntel,28.57142857,,,,,,,,,,,,,,,,,,,,,w,0,1.621,27,TRUE,FALSE,6,2,26,0,1,,,,,,,
,,,,,,0,2.225488502,#f3af84,,left_orange.png,q,,,,,,w,left_blue.png,left_orange.png,q,left,60fcb27a813cad15501fe54e,001,2021-08-01_13h30.40.952,arrow_simon_norep,2021.1.2,MacIntel,28.57142857,,,,,,,,,,,,,,,,,,,,,q,1,1.646,28,TRUE,FALSE,6,3,27,2,1,,,,,,,
,,,,,,0,2.056332971,#a3d0fb,,right_blue.png,o,,,,,,o,right_blue.png,right_orange.png,p,left,60fcb27a813cad15501fe54e,001,2021-08-01_13h30.40.952,arrow_simon_norep,2021.1.2,MacIntel,28.57142857,,,,,,,,,,,,,,,,,,,,,o,1,1.44,29,FALSE,FALSE,7,0,28,0,1,,,,,,,
,,,,,,0,1.935903371,#f3af84,,right_orange.png,p,,,,,,o,right_blue.png,right_orange.png,p,left,60fcb27a813cad15501fe54e,001,2021-08-01_13h30.40.952,arrow_simon_norep,2021.1.2,MacIntel,28.57142857,,,,,,,,,,,,,,,,,,,,,p,1,1.637,30,TRUE,FALSE,7,1,29,0,1,,,,,,,
,,,,,,0,2.203381901,#a3d0fb,,left_blue.png,w,,,,,,w,left_blue.png,left_orange.png,q,right,60fcb27a813cad15501fe54e,001,2021-08-01_13h30.40.952,arrow_simon_norep,2021.1.2,MacIntel,28.57142857,,,,,,,,,,,,,,,,,,,,,w,1,1.607,31,TRUE,FALSE,7,2,30,3,1,,,,,,,
,,,,,,0,1.54168383,#f3af84,,left_orange.png,q,,,,,,w,left_blue.png,left_orange.png,q,left,60fcb27a813cad15501fe54e,001,2021-08-01_13h30.40.952,arrow_simon_norep,2021.1.2,MacIntel,28.57142857,,,,,,,,,,,,,,,,,,,,,q,1,1.339,32,FALSE,TRUE,7,3,31,2,1,,,,,,,
,,,,,,0,1.644635371,#a3d0fb,,left_blue.png,w,,,,,,w,left_blue.png,left_orange.png,q,right,60fcb27a813cad15501fe54e,001,2021-08-01_13h30.40.952,arrow_simon_norep,2021.1.2,MacIntel,28.57142857,,,,,,,,,,,,,,,,,,,,,w,1,1.502,33,FALSE,FALSE,8,0,32,3,1,,,,,,,
,,,,,,0,1.827335207,#f3af84,,left_orange.png,q,,,,,,w,left_blue.png,left_orange.png,q,right,60fcb27a813cad15501fe54e,001,2021-08-01_13h30.40.952,arrow_simon_norep,2021.1.2,MacIntel,28.57142857,,,,,,,,,,,,,,,,,,,,,q,1,1.606,34,TRUE,FALSE,8,1,33,3,1,,,,,,,
,,,,,,0,1.52492709,#a3d0fb,,left_blue.png,w,,,,,,w,left_blue.png,left_orange.png,q,left,60fcb27a813cad15501fe54e,001,2021-08-01_13h30.40.952,arrow_simon_norep,2021.1.2,MacIntel,28.57142857,,,,,,,,,,,,,,,,,,,,,w,1,1.505,35,FALSE,FALSE,8,2,34,2,1,,,,,,,
,,,,,,0,1.908865269,#f3af84,,right_orange.png,p,,,,,,o,right_blue.png,right_orange.png,p,left,60fcb27a813cad15501fe54e,001,2021-08-01_13h30.40.952,arrow_simon_norep,2021.1.2,MacIntel,28.57142857,,,,,,,,,,,,,,,,,,,,,p,1,1.513,36,FALSE,FALSE,8,3,35,0,1,,,,,,,
,,,,,,0,2.012123601,#a3d0fb,,right_blue.png,o,,,,,,o,right_blue.png,right_orange.png,p,right,60fcb27a813cad15501fe54e,001,2021-08-01_13h30.40.952,arrow_simon_norep,2021.1.2,MacIntel,28.57142857,,,,,,,,,,,,,,,,,,,,,o,1,1.618,37,TRUE,FALSE,9,0,36,1,1,,,,,,,
,,,,,,0,1.717100734,#f3af84,,left_orange.png,q,,,,,,w,left_blue.png,left_orange.png,q,left,60fcb27a813cad15501fe54e,001,2021-08-01_13h30.40.952,arrow_simon_norep,2021.1.2,MacIntel,28.57142857,,,,,,,,,,,,,,,,,,,,,q,1,1.558,38,FALSE,FALSE,9,1,37,2,1,,,,,,,
,,,,,,0,1.882567855,#a3d0fb,,right_blue.png,o,,,,,,o,right_blue.png,right_orange.png,p,right,60fcb27a813cad15501fe54e,001,2021-08-01_13h30.40.952,arrow_simon_norep,2021.1.2,MacIntel,28.57142857,,,,,,,,,,,,,,,,,,,,,o,1,1.55,39,FALSE,FALSE,9,2,38,1,1,,,,,,,
,,,,,,0,1.912888261,#f3af84,,left_orange.png,q,,,,,,w,left_blue.png,left_orange.png,q,right,60fcb27a813cad15501fe54e,001,2021-08-01_13h30.40.952,arrow_simon_norep,2021.1.2,MacIntel,28.57142857,,,,,,,,,,,,,,,,,,,,,q,1,1.499,40,FALSE,FALSE,9,3,39,3,1,,,,,,,
,,,,,,0,1.990831186,#a3d0fb,,right_blue.png,o,,,,,,o,right_blue.png,right_orange.png,p,left,60fcb27a813cad15501fe54e,001,2021-08-01_13h30.40.952,arrow_simon_norep,2021.1.2,MacIntel,28.57142857,,,,,,,,,,,,,,,,,,,,,o,1,1.568,41,FALSE,FALSE,10,0,40,0,1,,,,,,,
,,,,,,0,2.303497648,#f3af84,,left_orange.png,q,,,,,,w,left_blue.png,left_orange.png,q,left,60fcb27a813cad15501fe54e,001,2021-08-01_13h30.40.952,arrow_simon_norep,2021.1.2,MacIntel,28.57142857,,,,,,,,,,,,,,,,,,,,,q,1,1.588,42,FALSE,FALSE,10,1,41,2,1,,,,,,,
,,,,,,0,1.53482047,#a3d0fb,,right_blue.png,o,,,,,,o,right_blue.png,right_orange.png,p,right,60fcb27a813cad15501fe54e,001,2021-08-01_13h30.40.952,arrow_simon_norep,2021.1.2,MacIntel,28.57142857,,,,,,,,,,,,,,,,,,,,,o,1,1.617,43,TRUE,FALSE,10,2,42,1,1,,,,,,,
,,,,,,0,1.895315648,#f3af84,,left_orange.png,q,,,,,,w,left_blue.png,left_orange.png,q,left,60fcb27a813cad15501fe54e,001,2021-08-01_13h30.40.952,arrow_simon_norep,2021.1.2,MacIntel,28.57142857,,,,,,,,,,,,,,,,,,,,,q,1,1.468,44,FALSE,FALSE,10,3,43,2,1,,,,,,,
,,,,,,0,1.897580429,#a3d0fb,,left_blue.png,w,,,,,,w,left_blue.png,left_orange.png,q,right,60fcb27a813cad15501fe54e,001,2021-08-01_13h30.40.952,arrow_simon_norep,2021.1.2,MacIntel,28.57142857,,,,,,,,,,,,,,,,,,,,,w,1,1.353,45,FALSE,TRUE,11,0,44,3,1,,,,,,,
,,,,,,0,2.260038012,#f3af84,,left_orange.png,q,,,,,,w,left_blue.png,left_orange.png,q,left,60fcb27a813cad15501fe54e,001,2021-08-01_13h30.40.952,arrow_simon_norep,2021.1.2,MacIntel,28.57142857,,,,,,,,,,,,,,,,,,,,,q,1,1.541,46,FALSE,FALSE,11,1,45,2,1,,,,,,,
,,,,,,0,2.068942007,#a3d0fb,,right_blue.png,o,,,,,,o,right_blue.png,right_orange.png,p,left,60fcb27a813cad15501fe54e,001,2021-08-01_13h30.40.952,arrow_simon_norep,2021.1.2,MacIntel,28.57142857,,,,,,,,,,,,,,,,,,,,,o,1,1.642,47,TRUE,FALSE,11,2,46,0,1,,,,,,,
,,,,,,1,2.298984464,#f3af84,,right_orange.png,p,,,,,,o,right_blue.png,right_orange.png,p,right,60fcb27a813cad15501fe54e,001,2021-08-01_13h30.40.952,arrow_simon_norep,2021.1.2,MacIntel,28.57142857,,,,,,,,,,,,,,,,,,,,,q,0,1.551,48,FALSE,FALSE,11,3,47,1,1,,,,,,,
,,,,,,1,2.39361228,#a3d0fb,,right_blue.png,o,,,,,,o,right_blue.png,right_orange.png,p,right,60fcb27a813cad15501fe54e,001,2021-08-01_13h30.40.952,arrow_simon_norep,2021.1.2,MacIntel,28.57142857,,,,,,,,,,,,,,,,,,,,,o,1,1.605,49,TRUE,FALSE,12,0,48,1,1,,,,,,,
,,,,,,0,2.045154408,#f3af84,,left_orange.png,q,,,,,,w,left_blue.png,left_orange.png,q,right,60fcb27a813cad15501fe54e,001,2021-08-01_13h30.40.952,arrow_simon_norep,2021.1.2,MacIntel,28.57142857,,,,,,,,,,,,,,,,,,,,,q,1,1.45,50,FALSE,FALSE,12,1,49,3,1,,,,,,,
,,,,,,0,2.26077766,#a3d0fb,,left_blue.png,w,,,,,,w,left_blue.png,left_orange.png,q,right,60fcb27a813cad15501fe54e,001,2021-08-01_13h30.40.952,arrow_simon_norep,2021.1.2,MacIntel,28.57142857,,,,,,,,,,,,,,,,,,,,,w,1,1.625,51,TRUE,FALSE,12,2,50,3,1,,,,,,,
,,,,,,1,2.272438164,#f3af84,,right_orange.png,p,,,,,,o,right_blue.png,right_orange.png,p,left,60fcb27a813cad15501fe54e,001,2021-08-01_13h30.40.952,arrow_simon_norep,2021.1.2,MacIntel,28.57142857,,,,,,,,,,,,,,,,,,,,,q,0,1.54,52,FALSE,FALSE,12,3,51,0,1,,,,,,,
,,,,,,0,1.787642642,#a3d0fb,,right_blue.png,o,,,,,,o,right_blue.png,right_orange.png,p,right,60fcb27a813cad15501fe54e,001,2021-08-01_13h30.40.952,arrow_simon_norep,2021.1.2,MacIntel,28.57142857,,,,,,,,,,,,,,,,,,,,,o,1,1.401,53,FALSE,FALSE,13,0,52,1,1,,,,,,,
,,,,,,0,1.636049634,#f3af84,,left_orange.png,q,,,,,,w,left_blue.png,left_orange.png,q,right,60fcb27a813cad15501fe54e,001,2021-08-01_13h30.40.952,arrow_simon_norep,2021.1.2,MacIntel,28.57142857,,,,,,,,,,,,,,,,,,,,,q,1,1.586,54,FALSE,FALSE,13,1,53,3,1,,,,,,,
,,,,,,0,2.231679119,#a3d0fb,,right_blue.png,o,,,,,,o,right_blue.png,right_orange.png,p,left,60fcb27a813cad15501fe54e,001,2021-08-01_13h30.40.952,arrow_simon_norep,2021.1.2,MacIntel,28.57142857,,,,,,,,,,,,,,,,,,,,,w,0,1.627,55,TRUE,FALSE,13,2,54,0,1,,,,,,,
,,,,,,0,1.615757051,#f3af84,,right_orange.png,p,,,,,,o,right_blue.png,right_orange.png,p,left,60fcb27a813cad15501fe54e,001,2021-08-01_13h30.40.952,arrow_simon_norep,2021.1.2,MacIntel,28.57142857,,,,,,,,,,,,,,,,,,,,,p,1,1.287,56,FALSE,TRUE,13,3,55,0,1,,,,,,,
,,,,,,0,2.318970541,#a3d0fb,,right_blue.png,o,,,,,,o,right_blue.png,right_orange.png,p,left,60fcb27a813cad15501fe54e,001,2021-08-01_13h30.40.952,arrow_simon_norep,2021.1.2,MacIntel,28.57142857,,,,,,,,,,,,,,,,,,,,,o,1,1.754,57,TRUE,FALSE,14,0,56,0,1,,,,,,,
,,,,,,0,1.900516219,#f3af84,,right_orange.png,p,,,,,,o,right_blue.png,right_orange.png,p,left,60fcb27a813cad15501fe54e,001,2021-08-01_13h30.40.952,arrow_simon_norep,2021.1.2,MacIntel,28.57142857,,,,,,,,,,,,,,,,,,,,,p,1,1.358,58,FALSE,TRUE,14,1,57,0,1,,,,,,,
,,,,,,0,2.461401355,#a3d0fb,,right_blue.png,o,,,,,,o,right_blue.png,right_orange.png,p,right,60fcb27a813cad15501fe54e,001,2021-08-01_13h30.40.952,arrow_simon_norep,2021.1.2,MacIntel,28.57142857,,,,,,,,,,,,,,,,,,,,,w,0,1.801,59,TRUE,FALSE,14,2,58,1,1,,,,,,,
,,,,,,0,1.733071354,#f3af84,,left_orange.png,q,,,,,,w,left_blue.png,left_orange.png,q,left,60fcb27a813cad15501fe54e,001,2021-08-01_13h30.40.952,arrow_simon_norep,2021.1.2,MacIntel,28.57142857,,,,,,,,,,,,,,,,,,,,,q,1,1.61,60,TRUE,FALSE,14,3,59,2,1,,,,,,,
,,,,,,,,,,,,,,,,,,,,,,60fcb27a813cad15501fe54e,001,2021-08-01_13h30.40.952,arrow_simon_norep,2021.1.2,MacIntel,28.57142857,,,,,,,,,,,,,,,,,,,,,,,,,,,,,,,,space,20.604,1,0,1,0,1
,,,,,,0,1.838694617,#a3d0fb,,right_blue.png,o,,,,,,o,right_blue.png,right_orange.png,p,left,60fcb27a813cad15501fe54e,001,2021-08-01_13h30.40.952,arrow_simon_norep,2021.1.2,MacIntel,28.57142857,,,,,,,,,,,,,,,,,,,,,w,0,1.603,1,TRUE,FALSE,0,0,0,0,1,,,,,,,
,,,,,,0,1.74777965,#f3af84,,left_orange.png,q,,,,,,w,left_blue.png,left_orange.png,q,left,60fcb27a813cad15501fe54e,001,2021-08-01_13h30.40.952,arrow_simon_norep,2021.1.2,MacIntel,28.57142857,,,,,,,,,,,,,,,,,,,,,q,1,1.331,2,FALSE,TRUE,0,1,1,2,1,,,,,,,
,,,,,,0,2.318744523,#a3d0fb,,left_blue.png,w,,,,,,w,left_blue.png,left_orange.png,q,right,60fcb27a813cad15501fe54e,001,2021-08-01_13h30.40.952,arrow_simon_norep,2021.1.2,MacIntel,28.57142857,,,,,,,,,,,,,,,,,,,,,w,1,1.733,3,TRUE,FALSE,0,2,2,3,1,,,,,,,
,,,,,,0,1.707860993,#f3af84,,right_orange.png,p,,,,,,o,right_blue.png,right_orange.png,p,right,60fcb27a813cad15501fe54e,001,2021-08-01_13h30.40.952,arrow_simon_norep,2021.1.2,MacIntel,28.57142857,,,,,,,,,,,,,,,,,,,,,p,1,1.135,4,FALSE,TRUE,0,3,3,1,1,,,,,,,
,,,,,,0,1.913388596,#a3d0fb,,left_blue.png,w,,,,,,w,left_blue.png,left_orange.png,q,right,60fcb27a813cad15501fe54e,001,2021-08-01_13h30.40.952,arrow_simon_norep,2021.1.2,MacIntel,28.57142857,,,,,,,,,,,,,,,,,,,,,w,1,1.675,5,TRUE,FALSE,1,0,4,3,1,,,,,,,
,,,,,,0,2.022040624,#f3af84,,right_orange.png,p,,,,,,o,right_blue.png,right_orange.png,p,left,60fcb27a813cad15501fe54e,001,2021-08-01_13h30.40.952,arrow_simon_norep,2021.1.2,MacIntel,28.57142857,,,,,,,,,,,,,,,,,,,,,p,1,1.472,6,FALSE,FALSE,1,1,5,0,1,,,,,,,
,,,,,,0,1.577882326,#a3d0fb,,left_blue.png,w,,,,,,w,left_blue.png,left_orange.png,q,left,60fcb27a813cad15501fe54e,001,2021-08-01_13h30.40.952,arrow_simon_norep,2021.1.2,MacIntel,28.57142857,,,,,,,,,,,,,,,,,,,,,w,1,1.53,7,FALSE,FALSE,1,2,6,2,1,,,,,,,
,,,,,,0,1.736176111,#f3af84,,left_orange.png,q,,,,,,w,left_blue.png,left_orange.png,q,left,60fcb27a813cad15501fe54e,001,2021-08-01_13h30.40.952,arrow_simon_norep,2021.1.2,MacIntel,28.57142857,,,,,,,,,,,,,,,,,,,,,q,1,1.623,8,TRUE,FALSE,1,3,7,2,1,,,,,,,
,,,,,,1,1.759554351,#a3d0fb,,right_blue.png,o,,,,,,o,right_blue.png,right_orange.png,p,left,60fcb27a813cad15501fe54e,001,2021-08-01_13h30.40.952,arrow_simon_norep,2021.1.2,MacIntel,28.57142857,,,,,,,,,,,,,,,,,,,,,p,0,1.573,9,FALSE,FALSE,2,0,8,0,1,,,,,,,
,,,,,,1,1.543243133,#f3af84,,right_orange.png,p,,,,,,o,right_blue.png,right_orange.png,p,left,60fcb27a813cad15501fe54e,001,2021-08-01_13h30.40.952,arrow_simon_norep,2021.1.2,MacIntel,28.57142857,,,,,,,,,,,,,,,,,,,,,p,1,1.161,10,FALSE,TRUE,2,1,9,0,1,,,,,,,
,,,,,,1,2.411307063,#a3d0fb,,left_blue.png,w,,,,,,w,left_blue.png,left_orange.png,q,right,60fcb27a813cad15501fe54e,001,2021-08-01_13h30.40.952,arrow_simon_norep,2021.1.2,MacIntel,28.57142857,,,,,,,,,,,,,,,,,,,,,w,1,1.634,11,TRUE,FALSE,2,2,10,3,1,,,,,,,
,,,,,,0,1.800026081,#f3af84,,left_orange.png,q,,,,,,w,left_blue.png,left_orange.png,q,right,60fcb27a813cad15501fe54e,001,2021-08-01_13h30.40.952,arrow_simon_norep,2021.1.2,MacIntel,28.57142857,,,,,,,,,,,,,,,,,,,,,q,1,1.419,12,FALSE,FALSE,2,3,11,3,1,,,,,,,
,,,,,,0,1.729218381,#a3d0fb,,right_blue.png,o,,,,,,o,right_blue.png,right_orange.png,p,left,60fcb27a813cad15501fe54e,001,2021-08-01_13h30.40.952,arrow_simon_norep,2021.1.2,MacIntel,28.57142857,,,,,,,,,,,,,,,,,,,,,o,1,1.523,13,FALSE,FALSE,3,0,12,0,1,,,,,,,
,,,,,,0,1.799572145,#f3af84,,left_orange.png,q,,,,,,w,left_blue.png,left_orange.png,q,right,60fcb27a813cad15501fe54e,001,2021-08-01_13h30.40.952,arrow_simon_norep,2021.1.2,MacIntel,28.57142857,,,,,,,,,,,,,,,,,,,,,q,1,1.33,14,FALSE,TRUE,3,1,13,3,1,,,,,,,
,,,,,,1,2.17889158,#a3d0fb,,right_blue.png,o,,,,,,o,right_blue.png,right_orange.png,p,left,60fcb27a813cad15501fe54e,001,2021-08-01_13h30.40.952,arrow_simon_norep,2021.1.2,MacIntel,28.57142857,,,,,,,,,,,,,,,,,,,,,w,0,1.479,15,FALSE,FALSE,3,2,14,0,1,,,,,,,
,,,,,,0,2.067496706,#f3af84,,left_orange.png,q,,,,,,w,left_blue.png,left_orange.png,q,left,60fcb27a813cad15501fe54e,001,2021-08-01_13h30.40.952,arrow_simon_norep,2021.1.2,MacIntel,28.57142857,,,,,,,,,,,,,,,,,,,,,q,1,1.422,16,FALSE,FALSE,3,3,15,2,1,,,,,,,
,,,,,,0,2.118465586,#a3d0fb,,right_blue.png,o,,,,,,o,right_blue.png,right_orange.png,p,right,60fcb27a813cad15501fe54e,001,2021-08-01_13h30.40.952,arrow_simon_norep,2021.1.2,MacIntel,28.57142857,,,,,,,,,,,,,,,,,,,,,o,1,1.488,17,FALSE,FALSE,4,0,16,1,1,,,,,,,
,,,,,,0,1.511247778,#f3af84,,right_orange.png,p,,,,,,o,right_blue.png,right_orange.png,p,right,60fcb27a813cad15501fe54e,001,2021-08-01_13h30.40.952,arrow_simon_norep,2021.1.2,MacIntel,28.57142857,,,,,,,,,,,,,,,,,,,,,p,1,1.528,18,FALSE,FALSE,4,1,17,1,1,,,,,,,
,,,,,,1,1.94097597,#a3d0fb,,right_blue.png,o,,,,,,o,right_blue.png,right_orange.png,p,left,60fcb27a813cad15501fe54e,001,2021-08-01_13h30.40.952,arrow_simon_norep,2021.1.2,MacIntel,28.57142857,,,,,,,,,,,,,,,,,,,,,w,0,1.559,19,FALSE,FALSE,4,2,18,0,1,,,,,,,
,,,,,,1,1.907266449,#f3af84,,left_orange.png,q,,,,,,w,left_blue.png,left_orange.png,q,left,60fcb27a813cad15501fe54e,001,2021-08-01_13h30.40.952,arrow_simon_norep,2021.1.2,MacIntel,28.57142857,,,,,,,,,,,,,,,,,,,,,q,1,1.264,20,FALSE,TRUE,4,3,19,2,1,,,,,,,
,,,,,,0,1.611116442,#a3d0fb,,right_blue.png,o,,,,,,o,right_blue.png,right_orange.png,p,right,60fcb27a813cad15501fe54e,001,2021-08-01_13h30.40.952,arrow_simon_norep,2021.1.2,MacIntel,28.57142857,,,,,,,,,,,,,,,,,,,,,o,1,1.487,21,FALSE,FALSE,5,0,20,1,1,,,,,,,
,,,,,,0,1.903128107,#f3af84,,left_orange.png,q,,,,,,w,left_blue.png,left_orange.png,q,left,60fcb27a813cad15501fe54e,001,2021-08-01_13h30.40.952,arrow_simon_norep,2021.1.2,MacIntel,28.57142857,,,,,,,,,,,,,,,,,,,,,q,1,1.44,22,FALSE,FALSE,5,1,21,2,1,,,,,,,
,,,,,,0,1.938263609,#a3d0fb,,left_blue.png,w,,,,,,w,left_blue.png,left_orange.png,q,left,60fcb27a813cad15501fe54e,001,2021-08-01_13h30.40.952,arrow_simon_norep,2021.1.2,MacIntel,28.57142857,,,,,,,,,,,,,,,,,,,,,w,1,1.57,23,FALSE,FALSE,5,2,22,2,1,,,,,,,
,,,,,,0,2.436372091,#f3af84,,right_orange.png,p,,,,,,o,right_blue.png,right_orange.png,p,right,60fcb27a813cad15501fe54e,001,2021-08-01_13h30.40.952,arrow_simon_norep,2021.1.2,MacIntel,28.57142857,,,,,,,,,,,,,,,,,,,,,q,0,1.704,24,TRUE,FALSE,5,3,23,1,1,,,,,,,
,,,,,,0,2.366940449,#a3d0fb,,left_blue.png,w,,,,,,w,left_blue.png,left_orange.png,q,left,60fcb27a813cad15501fe54e,001,2021-08-01_13h30.40.952,arrow_simon_norep,2021.1.2,MacIntel,28.57142857,,,,,,,,,,,,,,,,,,,,,w,1,1.594,25,FALSE,FALSE,6,0,24,2,1,,,,,,,
,,,,,,1,2.034982411,#f3af84,,left_orange.png,q,,,,,,w,left_blue.png,left_orange.png,q,right,60fcb27a813cad15501fe54e,001,2021-08-01_13h30.40.952,arrow_simon_norep,2021.1.2,MacIntel,28.57142857,,,,,,,,,,,,,,,,,,,,,p,0,1.429,26,FALSE,FALSE,6,1,25,3,1,,,,,,,
,,,,,,0,2.058125756,#a3d0fb,,right_blue.png,o,,,,,,o,right_blue.png,right_orange.png,p,right,60fcb27a813cad15501fe54e,001,2021-08-01_13h30.40.952,arrow_simon_norep,2021.1.2,MacIntel,28.57142857,,,,,,,,,,,,,,,,,,,,,o,1,1.464,27,FALSE,FALSE,6,2,26,1,1,,,,,,,
,,,,,,0,1.764733421,#f3af84,,right_orange.png,p,,,,,,o,right_blue.png,right_orange.png,p,left,60fcb27a813cad15501fe54e,001,2021-08-01_13h30.40.952,arrow_simon_norep,2021.1.2,MacIntel,28.57142857,,,,,,,,,,,,,,,,,,,,,p,1,1.518,28,FALSE,FALSE,6,3,27,0,1,,,,,,,
,,,,,,0,1.561815616,#a3d0fb,,right_blue.png,o,,,,,,o,right_blue.png,right_orange.png,p,right,60fcb27a813cad15501fe54e,001,2021-08-01_13h30.40.952,arrow_simon_norep,2021.1.2,MacIntel,28.57142857,,,,,,,,,,,,,,,,,,,,,o,1,1.596,29,FALSE,FALSE,7,0,28,1,1,,,,,,,
,,,,,,0,1.607664454,#f3af84,,right_orange.png,p,,,,,,o,right_blue.png,right_orange.png,p,right,60fcb27a813cad15501fe54e,001,2021-08-01_13h30.40.952,arrow_simon_norep,2021.1.2,MacIntel,28.57142857,,,,,,,,,,,,,,,,,,,,,p,1,1.604,30,TRUE,FALSE,7,1,29,1,1,,,,,,,
,,,,,,1,2.349967603,#a3d0fb,,left_blue.png,w,,,,,,w,left_blue.png,left_orange.png,q,right,60fcb27a813cad15501fe54e,001,2021-08-01_13h30.40.952,arrow_simon_norep,2021.1.2,MacIntel,28.57142857,,,,,,,,,,,,,,,,,,,,,o,0,1.56,31,FALSE,FALSE,7,2,30,3,1,,,,,,,
,,,,,,0,1.917426035,#f3af84,,left_orange.png,q,,,,,,w,left_blue.png,left_orange.png,q,right,60fcb27a813cad15501fe54e,001,2021-08-01_13h30.40.952,arrow_simon_norep,2021.1.2,MacIntel,28.57142857,,,,,,,,,,,,,,,,,,,,,q,1,1.523,32,FALSE,FALSE,7,3,31,3,1,,,,,,,
,,,,,,0,2.46816864,#a3d0fb,,left_blue.png,w,,,,,,w,left_blue.png,left_orange.png,q,right,60fcb27a813cad15501fe54e,001,2021-08-01_13h30.40.952,arrow_simon_norep,2021.1.2,MacIntel,28.57142857,,,,,,,,,,,,,,,,,,,,,w,1,1.858,33,TRUE,FALSE,8,0,32,3,1,,,,,,,
,,,,,,0,1.708297852,#f3af84,,left_orange.png,q,,,,,,w,left_blue.png,left_orange.png,q,right,60fcb27a813cad15501fe54e,001,2021-08-01_13h30.40.952,arrow_simon_norep,2021.1.2,MacIntel,28.57142857,,,,,,,,,,,,,,,,,,,,,q,1,1.578,34,FALSE,FALSE,8,1,33,3,1,,,,,,,
,,,,,,0,1.998307668,#a3d0fb,,left_blue.png,w,,,,,,w,left_blue.png,left_orange.png,q,left,60fcb27a813cad15501fe54e,001,2021-08-01_13h30.40.952,arrow_simon_norep,2021.1.2,MacIntel,28.57142857,,,,,,,,,,,,,,,,,,,,,w,1,1.426,35,FALSE,FALSE,8,2,34,2,1,,,,,,,
,,,,,,0,2.498540172,#f3af84,,right_orange.png,p,,,,,,o,right_blue.png,right_orange.png,p,right,60fcb27a813cad15501fe54e,001,2021-08-01_13h30.40.952,arrow_simon_norep,2021.1.2,MacIntel,28.57142857,,,,,,,,,,,,,,,,,,,,,q,0,1.87,36,TRUE,FALSE,8,3,35,1,1,,,,,,,
,,,,,,0,1.866965592,#a3d0fb,,right_blue.png,o,,,,,,o,right_blue.png,right_orange.png,p,left,60fcb27a813cad15501fe54e,001,2021-08-01_13h30.40.952,arrow_simon_norep,2021.1.2,MacIntel,28.57142857,,,,,,,,,,,,,,,,,,,,,o,1,1.497,37,FALSE,FALSE,9,0,36,0,1,,,,,,,
,,,,,,0,1.851490532,#f3af84,,left_orange.png,q,,,,,,w,left_blue.png,left_orange.png,q,right,60fcb27a813cad15501fe54e,001,2021-08-01_13h30.40.952,arrow_simon_norep,2021.1.2,MacIntel,28.57142857,,,,,,,,,,,,,,,,,,,,,q,1,1.391,38,FALSE,TRUE,9,1,37,3,1,,,,,,,
,,,,,,1,1.582853931,#a3d0fb,,right_blue.png,o,,,,,,o,right_blue.png,right_orange.png,p,right,60fcb27a813cad15501fe54e,001,2021-08-01_13h30.40.952,arrow_simon_norep,2021.1.2,MacIntel,28.57142857,,,,,,,,,,,,,,,,,,,,,w,0,1.549,39,FALSE,FALSE,9,2,38,1,1,,,,,,,
,,,,,,1,1.701043459,#f3af84,,right_orange.png,p,,,,,,o,right_blue.png,right_orange.png,p,left,60fcb27a813cad15501fe54e,001,2021-08-01_13h30.40.952,arrow_simon_norep,2021.1.2,MacIntel,28.57142857,,,,,,,,,,,,,,,,,,,,,p,1,1.611,40,TRUE,FALSE,9,3,39,0,1,,,,,,,
,,,,,,0,1.700058234,#a3d0fb,,right_blue.png,o,,,,,,o,right_blue.png,right_orange.png,p,right,60fcb27a813cad15501fe54e,001,2021-08-01_13h30.40.952,arrow_simon_norep,2021.1.2,MacIntel,28.57142857,,,,,,,,,,,,,,,,,,,,,o,1,1.52,41,FALSE,FALSE,10,0,40,1,1,,,,,,,
,,,,,,0,2.377370285,#f3af84,,right_orange.png,p,,,,,,o,right_blue.png,right_orange.png,p,left,60fcb27a813cad15501fe54e,001,2021-08-01_13h30.40.952,arrow_simon_norep,2021.1.2,MacIntel,28.57142857,,,,,,,,,,,,,,,,,,,,,q,0,1.683,42,TRUE,FALSE,10,1,41,0,1,,,,,,,
,,,,,,0,1.661933197,#a3d0fb,,right_blue.png,o,,,,,,o,right_blue.png,right_orange.png,p,left,60fcb27a813cad15501fe54e,001,2021-08-01_13h30.40.952,arrow_simon_norep,2021.1.2,MacIntel,28.57142857,,,,,,,,,,,,,,,,,,,,,o,1,1.673,43,TRUE,FALSE,10,2,42,0,1,,,,,,,
,,,,,,1,2.283878332,#f3af84,,left_orange.png,q,,,,,,w,left_blue.png,left_orange.png,q,left,60fcb27a813cad15501fe54e,001,2021-08-01_13h30.40.952,arrow_simon_norep,2021.1.2,MacIntel,28.57142857,,,,,,,,,,,,,,,,,,,,,p,0,1.585,44,FALSE,FALSE,10,3,43,2,1,,,,,,,
,,,,,,1,2.156067868,#a3d0fb,,left_blue.png,w,,,,,,w,left_blue.png,left_orange.png,q,left,60fcb27a813cad15501fe54e,001,2021-08-01_13h30.40.952,arrow_simon_norep,2021.1.2,MacIntel,28.57142857,,,,,,,,,,,,,,,,,,,,,w,1,1.636,45,TRUE,FALSE,11,0,44,2,1,,,,,,,
,,,,,,1,1.847396976,#f3af84,,right_orange.png,p,,,,,,o,right_blue.png,right_orange.png,p,right,60fcb27a813cad15501fe54e,001,2021-08-01_13h30.40.952,arrow_simon_norep,2021.1.2,MacIntel,28.57142857,,,,,,,,,,,,,,,,,,,,,p,1,1.302,46,FALSE,TRUE,11,1,45,1,1,,,,,,,
,,,,,,0,2.181675427,#a3d0fb,,left_blue.png,w,,,,,,w,left_blue.png,left_orange.png,q,left,60fcb27a813cad15501fe54e,001,2021-08-01_13h30.40.952,arrow_simon_norep,2021.1.2,MacIntel,28.57142857,,,,,,,,,,,,,,,,,,,,,w,1,1.519,47,FALSE,FALSE,11,2,46,2,1,,,,,,,
,,,,,,0,2.327296455,#f3af84,,left_orange.png,q,,,,,,w,left_blue.png,left_orange.png,q,right,60fcb27a813cad15501fe54e,001,2021-08-01_13h30.40.952,arrow_simon_norep,2021.1.2,MacIntel,28.57142857,,,,,,,,,,,,,,,,,,,,,p,0,1.629,48,TRUE,FALSE,11,3,47,3,1,,,,,,,
,,,,,,0,2.336307328,#a3d0fb,,right_blue.png,o,,,,,,o,right_blue.png,right_orange.png,p,left,60fcb27a813cad15501fe54e,001,2021-08-01_13h30.40.952,arrow_simon_norep,2021.1.2,MacIntel,28.57142857,,,,,,,,,,,,,,,,,,,,,w,0,1.604,49,TRUE,FALSE,12,0,48,0,1,,,,,,,
,,,,,,0,1.993296585,#f3af84,,right_orange.png,p,,,,,,o,right_blue.png,right_orange.png,p,left,60fcb27a813cad15501fe54e,001,2021-08-01_13h30.40.952,arrow_simon_norep,2021.1.2,MacIntel,28.57142857,,,,,,,,,,,,,,,,,,,,,p,1,1.538,50,FALSE,FALSE,12,1,49,0,1,,,,,,,
,,,,,,1,1.521087062,#a3d0fb,,right_blue.png,o,,,,,,o,right_blue.png,right_orange.png,p,right,60fcb27a813cad15501fe54e,001,2021-08-01_13h30.40.952,arrow_simon_norep,2021.1.2,MacIntel,28.57142857,,,,,,,,,,,,,,,,,,,,,w,0,1.406,51,FALSE,FALSE,12,2,50,1,1,,,,,,,
,,,,,,1,2.357644156,#f3af84,,left_orange.png,q,,,,,,w,left_blue.png,left_orange.png,q,right,60fcb27a813cad15501fe54e,001,2021-08-01_13h30.40.952,arrow_simon_norep,2021.1.2,MacIntel,28.57142857,,,,,,,,,,,,,,,,,,,,,q,1,1.799,52,TRUE,FALSE,12,3,51,3,1,,,,,,,
,,,,,,1,2.035415629,#a3d0fb,,right_blue.png,o,,,,,,o,right_blue.png,right_orange.png,p,left,60fcb27a813cad15501fe54e,001,2021-08-01_13h30.40.952,arrow_simon_norep,2021.1.2,MacIntel,28.57142857,,,,,,,,,,,,,,,,,,,,,o,1,1.642,53,TRUE,FALSE,13,0,52,0,1,,,,,,,
,,,,,,0,2.182706618,#f3af84,,left_orange.png,q,,,,,,w,left_blue.png,left_orange.png,q,left,60fcb27a813cad15501fe54e,001,2021-08-01_13h30.40.952,arrow_simon_norep,2021.1.2,MacIntel,28.57142857,,,,,,,,,,,,,,,,,,,,,q,1,1.485,54,FALSE,FALSE,13,1,53,2,1,,,,,,,
,,,,,,0,1.713740914,#a3d0fb,,left_blue.png,w,,,,,,w,left_blue.png,left_orange.png,q,left,60fcb27a813cad15501fe54e,001,2021-08-01_13h30.40.952,arrow_simon_norep,2021.1.2,MacIntel,28.57142857,,,,,,,,,,,,,,,,,,,,,q,0,1.235,55,FALSE,TRUE,13,2,54,2,1,,,,,,,
,,,,,,1,2.173704916,#f3af84,,left_orange.png,q,,,,,,w,left_blue.png,left_orange.png,q,right,60fcb27a813cad15501fe54e,001,2021-08-01_13h30.40.952,arrow_simon_norep,2021.1.2,MacIntel,28.57142857,,,,,,,,,,,,,,,,,,,,,p,0,1.56,56,FALSE,FALSE,13,3,55,3,1,,,,,,,
,,,,,,0,2.036531753,#a3d0fb,,right_blue.png,o,,,,,,o,right_blue.png,right_orange.png,p,right,60fcb27a813cad15501fe54e,001,2021-08-01_13h30.40.952,arrow_simon_norep,2021.1.2,MacIntel,28.57142857,,,,,,,,,,,,,,,,,,,,,o,1,1.525,57,FALSE,FALSE,14,0,56,1,1,,,,,,,
,,,,,,0,1.538901556,#f3af84,,left_orange.png,q,,,,,,w,left_blue.png,left_orange.png,q,right,60fcb27a813cad15501fe54e,001,2021-08-01_13h30.40.952,arrow_simon_norep,2021.1.2,MacIntel,28.57142857,,,,,,,,,,,,,,,,,,,,,q,1,1.348,58,FALSE,TRUE,14,1,57,3,1,,,,,,,
,,,,,,0,1.878493857,#a3d0fb,,right_blue.png,o,,,,,,o,right_blue.png,right_orange.png,p,right,60fcb27a813cad15501fe54e,001,2021-08-01_13h30.40.952,arrow_simon_norep,2021.1.2,MacIntel,28.57142857,,,,,,,,,,,,,,,,,,,,,o,1,1.652,59,TRUE,FALSE,14,2,58,1,1,,,,,,,
,,,,,,0,1.981482172,#f3af84,,left_orange.png,q,,,,,,w,left_blue.png,left_orange.png,q,left,60fcb27a813cad15501fe54e,001,2021-08-01_13h30.40.952,arrow_simon_norep,2021.1.2,MacIntel,28.57142857,,,,,,,,,,,,,,,,,,,,,q,1,1.583,60,FALSE,FALSE,14,3,59,2,1,,,,,,,
,,,,,,,,,,,,,,,,,,,,,,60fcb27a813cad15501fe54e,001,2021-08-01_13h30.40.952,arrow_simon_norep,2021.1.2,MacIntel,28.57142857,,,,,,,,,,,,,,,,,,,,,,,,,,,,,,,,space,27.199,2,0,2,0,1
,,,,,,0,2.327332376,#a3d0fb,,right_blue.png,o,,,,,,o,right_blue.png,right_orange.png,p,left,60fcb27a813cad15501fe54e,001,2021-08-01_13h30.40.952,arrow_simon_norep,2021.1.2,MacIntel,28.57142857,,,,,,,,,,,,,,,,,,,,,w,0,1.678,1,TRUE,FALSE,0,0,0,0,1,,,,,,,
,,,,,,0,1.681937645,#f3af84,,left_orange.png,q,,,,,,w,left_blue.png,left_orange.png,q,right,60fcb27a813cad15501fe54e,001,2021-08-01_13h30.40.952,arrow_simon_norep,2021.1.2,MacIntel,28.57142857,,,,,,,,,,,,,,,,,,,,,q,1,1.511,2,FALSE,FALSE,0,1,1,3,1,,,,,,,
,,,,,,1,1.517400316,#a3d0fb,,left_blue.png,w,,,,,,w,left_blue.png,left_orange.png,q,left,60fcb27a813cad15501fe54e,001,2021-08-01_13h30.40.952,arrow_simon_norep,2021.1.2,MacIntel,28.57142857,,,,,,,,,,,,,,,,,,,,,q,0,1.579,3,FALSE,FALSE,0,2,2,2,1,,,,,,,
,,,,,,1,2.439719448,#f3af84,,right_orange.png,p,,,,,,o,right_blue.png,right_orange.png,p,right,60fcb27a813cad15501fe54e,001,2021-08-01_13h30.40.952,arrow_simon_norep,2021.1.2,MacIntel,28.57142857,,,,,,,,,,,,,,,,,,,,,p,1,1.815,4,TRUE,FALSE,0,3,3,1,1,,,,,,,
,,,,,,1,1.938618877,#a3d0fb,,right_blue.png,o,,,,,,o,right_blue.png,right_orange.png,p,left,60fcb27a813cad15501fe54e,001,2021-08-01_13h30.40.952,arrow_simon_norep,2021.1.2,MacIntel,28.57142857,,,,,,,,,,,,,,,,,,,,,w,0,1.652,5,TRUE,FALSE,1,0,4,0,1,,,,,,,
,,,,,,1,2.49265852,#f3af84,,left_orange.png,q,,,,,,w,left_blue.png,left_orange.png,q,right,60fcb27a813cad15501fe54e,001,2021-08-01_13h30.40.952,arrow_simon_norep,2021.1.2,MacIntel,28.57142857,,,,,,,,,,,,,,,,,,,,,p,0,1.992,6,TRUE,FALSE,1,1,5,3,1,,,,,,,
,,,,,,1,2.423730874,#a3d0fb,,right_blue.png,o,,,,,,o,right_blue.png,right_orange.png,p,left,60fcb27a813cad15501fe54e,001,2021-08-01_13h30.40.952,arrow_simon_norep,2021.1.2,MacIntel,28.57142857,,,,,,,,,,,,,,,,,,,,,w,0,1.753,7,TRUE,FALSE,1,2,6,0,1,,,,,,,
,,,,,,0,1.60621693,#f3af84,,right_orange.png,p,,,,,,o,right_blue.png,right_orange.png,p,right,60fcb27a813cad15501fe54e,001,2021-08-01_13h30.40.952,arrow_simon_norep,2021.1.2,MacIntel,28.57142857,,,,,,,,,,,,,,,,,,,,,p,1,1.563,8,FALSE,FALSE,1,3,7,1,1,,,,,,,
,,,,,,0,1.591728344,#a3d0fb,,right_blue.png,o,,,,,,o,right_blue.png,right_orange.png,p,left,60fcb27a813cad15501fe54e,001,2021-08-01_13h30.40.952,arrow_simon_norep,2021.1.2,MacIntel,28.57142857,,,,,,,,,,,,,,,,,,,,,o,1,1.412,9,FALSE,FALSE,2,0,8,0,1,,,,,,,
,,,,,,0,1.595837828,#f3af84,,right_orange.png,p,,,,,,o,right_blue.png,right_orange.png,p,left,60fcb27a813cad15501fe54e,001,2021-08-01_13h30.40.952,arrow_simon_norep,2021.1.2,MacIntel,28.57142857,,,,,,,,,,,,,,,,,,,,,p,1,1.421,10,FALSE,FALSE,2,1,9,0,1,,,,,,,
,,,,,,0,2.481261294,#a3d0fb,,left_blue.png,w,,,,,,w,left_blue.png,left_orange.png,q,right,60fcb27a813cad15501fe54e,001,2021-08-01_13h30.40.952,arrow_simon_norep,2021.1.2,MacIntel,28.57142857,,,,,,,,,,,,,,,,,,,,,w,1,1.808,11,TRUE,FALSE,2,2,10,3,1,,,,,,,
,,,,,,1,1.711009823,#f3af84,,left_orange.png,q,,,,,,w,left_blue.png,left_orange.png,q,left,60fcb27a813cad15501fe54e,001,2021-08-01_13h30.40.952,arrow_simon_norep,2021.1.2,MacIntel,28.57142857,,,,,,,,,,,,,,,,,,,,,p,0,1.571,12,FALSE,FALSE,2,3,11,2,1,,,,,,,
,,,,,,1,2.352113182,#a3d0fb,,right_blue.png,o,,,,,,o,right_blue.png,right_orange.png,p,right,60fcb27a813cad15501fe54e,001,2021-08-01_13h30.40.952,arrow_simon_norep,2021.1.2,MacIntel,28.57142857,,,,,,,,,,,,,,,,,,,,,w,0,1.655,13,TRUE,FALSE,3,0,12,1,1,,,,,,,
,,,,,,1,2.322860617,#f3af84,,left_orange.png,q,,,,,,w,left_blue.png,left_orange.png,q,left,60fcb27a813cad15501fe54e,001,2021-08-01_13h30.40.952,arrow_simon_norep,2021.1.2,MacIntel,28.57142857,,,,,,,,,,,,,,,,,,,,,q,1,1.768,14,TRUE,FALSE,3,1,13,2,1,,,,,,,
,,,,,,1,1.777328878,#a3d0fb,,right_blue.png,o,,,,,,o,right_blue.png,right_orange.png,p,left,60fcb27a813cad15501fe54e,001,2021-08-01_13h30.40.952,arrow_simon_norep,2021.1.2,MacIntel,28.57142857,,,,,,,,,,,,,,,,,,,,,w,0,1.403,15,FALSE,FALSE,3,2,14,0,1,,,,,,,
,,,,,,1,2.343120916,#f3af84,,left_orange.png,q,,,,,,w,left_blue.png,left_orange.png,q,right,60fcb27a813cad15501fe54e,001,2021-08-01_13h30.40.952,arrow_simon_norep,2021.1.2,MacIntel,28.57142857,,,,,,,,,,,,,,,,,,,,,q,1,1.652,16,TRUE,FALSE,3,3,15,3,1,,,,,,,
,,,,,,1,1.786611982,#a3d0fb,,left_blue.png,w,,,,,,w,left_blue.png,left_orange.png,q,right,60fcb27a813cad15501fe54e,001,2021-08-01_13h30.40.952,arrow_simon_norep,2021.1.2,MacIntel,28.57142857,,,,,,,,,,,,,,,,,,,,,w,1,1.607,17,TRUE,FALSE,4,0,16,3,1,,,,,,,
,,,,,,1,1.873510476,#f3af84,,left_orange.png,q,,,,,,w,left_blue.png,left_orange.png,q,right,60fcb27a813cad15501fe54e,001,2021-08-01_13h30.40.952,arrow_simon_norep,2021.1.2,MacIntel,28.57142857,,,,,,,,,,,,,,,,,,,,,q,1,1.357,18,FALSE,TRUE,4,1,17,3,1,,,,,,,
,,,,,,1,1.520186487,#a3d0fb,,right_blue.png,o,,,,,,o,right_blue.png,right_orange.png,p,left,60fcb27a813cad15501fe54e,001,2021-08-01_13h30.40.952,arrow_simon_norep,2021.1.2,MacIntel,28.57142857,,,,,,,,,,,,,,,,,,,,,o,1,1.376,19,FALSE,TRUE,4,2,18,0,1,,,,,,,
,,,,,,1,2.20056193,#f3af84,,right_orange.png,p,,,,,,o,right_blue.png,right_orange.png,p,left,60fcb27a813cad15501fe54e,001,2021-08-01_13h30.40.952,arrow_simon_norep,2021.1.2,MacIntel,28.57142857,,,,,,,,,,,,,,,,,,,,,p,1,1.688,20,TRUE,FALSE,4,3,19,0,1,,,,,,,
,,,,,,0,1.870892825,#a3d0fb,,right_blue.png,o,,,,,,o,right_blue.png,right_orange.png,p,left,60fcb27a813cad15501fe54e,001,2021-08-01_13h30.40.952,arrow_simon_norep,2021.1.2,MacIntel,28.57142857,,,,,,,,,,,,,,,,,,,,,o,1,1.472,21,FALSE,FALSE,5,0,20,0,1,,,,,,,
,,,,,,0,1.710380008,#f3af84,,right_orange.png,p,,,,,,o,right_blue.png,right_orange.png,p,right,60fcb27a813cad15501fe54e,001,2021-08-01_13h30.40.952,arrow_simon_norep,2021.1.2,MacIntel,28.57142857,,,,,,,,,,,,,,,,,,,,,p,1,1.466,22,FALSE,FALSE,5,1,21,1,1,,,,,,,
,,,,,,0,2.330641955,#a3d0fb,,right_blue.png,o,,,,,,o,right_blue.png,right_orange.png,p,left,60fcb27a813cad15501fe54e,001,2021-08-01_13h30.40.952,arrow_simon_norep,2021.1.2,MacIntel,28.57142857,,,,,,,,,,,,,,,,,,,,,o,1,1.787,23,TRUE,FALSE,5,2,22,0,1,,,,,,,
,,,,,,1,2.243653699,#f3af84,,left_orange.png,q,,,,,,w,left_blue.png,left_orange.png,q,right,60fcb27a813cad15501fe54e,001,2021-08-01_13h30.40.952,arrow_simon_norep,2021.1.2,MacIntel,28.57142857,,,,,,,,,,,,,,,,,,,,,p,0,1.53,24,FALSE,FALSE,5,3,23,3,1,,,,,,,
,,,,,,0,1.884895426,#a3d0fb,,right_blue.png,o,,,,,,o,right_blue.png,right_orange.png,p,left,60fcb27a813cad15501fe54e,001,2021-08-01_13h30.40.952,arrow_simon_norep,2021.1.2,MacIntel,28.57142857,,,,,,,,,,,,,,,,,,,,,o,1,1.505,25,FALSE,FALSE,6,0,24,0,1,,,,,,,
,,,,,,0,2.138407798,#f3af84,,right_orange.png,p,,,,,,o,right_blue.png,right_orange.png,p,right,60fcb27a813cad15501fe54e,001,2021-08-01_13h30.40.952,arrow_simon_norep,2021.1.2,MacIntel,28.57142857,,,,,,,,,,,,,,,,,,,,,p,1,1.6,26,TRUE,FALSE,6,1,25,1,1,,,,,,,
,,,,,,0,2.028888283,#a3d0fb,,left_blue.png,w,,,,,,w,left_blue.png,left_orange.png,q,right,60fcb27a813cad15501fe54e,001,2021-08-01_13h30.40.952,arrow_simon_norep,2021.1.2,MacIntel,28.57142857,,,,,,,,,,,,,,,,,,,,,w,1,1.675,27,TRUE,FALSE,6,2,26,3,1,,,,,,,
,,,,,,0,1.679396909,#f3af84,,left_orange.png,q,,,,,,w,left_blue.png,left_orange.png,q,left,60fcb27a813cad15501fe54e,001,2021-08-01_13h30.40.952,arrow_simon_norep,2021.1.2,MacIntel,28.57142857,,,,,,,,,,,,,,,,,,,,,q,1,1.502,28,FALSE,FALSE,6,3,27,2,1,,,,,,,
,,,,,,0,1.828954593,#a3d0fb,,right_blue.png,o,,,,,,o,right_blue.png,right_orange.png,p,right,60fcb27a813cad15501fe54e,001,2021-08-01_13h30.40.952,arrow_simon_norep,2021.1.2,MacIntel,28.57142857,,,,,,,,,,,,,,,,,,,,,o,1,1.621,29,TRUE,FALSE,7,0,28,1,1,,,,,,,
,,,,,,0,2.032669322,#f3af84,,left_orange.png,q,,,,,,w,left_blue.png,left_orange.png,q,left,60fcb27a813cad15501fe54e,001,2021-08-01_13h30.40.952,arrow_simon_norep,2021.1.2,MacIntel,28.57142857,,,,,,,,,,,,,,,,,,,,,q,1,1.369,30,FALSE,TRUE,7,1,29,2,1,,,,,,,
,,,,,,0,1.679773243,#a3d0fb,,left_blue.png,w,,,,,,w,left_blue.png,left_orange.png,q,right,60fcb27a813cad15501fe54e,001,2021-08-01_13h30.40.952,arrow_simon_norep,2021.1.2,MacIntel,28.57142857,,,,,,,,,,,,,,,,,,,,,w,1,1.415,31,FALSE,FALSE,7,2,30,3,1,,,,,,,
,,,,,,0,1.660793362,#f3af84,,left_orange.png,q,,,,,,w,left_blue.png,left_orange.png,q,right,60fcb27a813cad15501fe54e,001,2021-08-01_13h30.40.952,arrow_simon_norep,2021.1.2,MacIntel,28.57142857,,,,,,,,,,,,,,,,,,,,,q,1,1.505,32,FALSE,FALSE,7,3,31,3,1,,,,,,,
,,,,,,0,2.467795205,#a3d0fb,,right_blue.png,o,,,,,,o,right_blue.png,right_orange.png,p,right,60fcb27a813cad15501fe54e,001,2021-08-01_13h30.40.952,arrow_simon_norep,2021.1.2,MacIntel,28.57142857,,,,,,,,,,,,,,,,,,,,,o,1,1.707,33,TRUE,FALSE,8,0,32,1,1,,,,,,,
,,,,,,1,1.984855825,#f3af84,,left_orange.png,q,,,,,,w,left_blue.png,left_orange.png,q,right,60fcb27a813cad15501fe54e,001,2021-08-01_13h30.40.952,arrow_simon_norep,2021.1.2,MacIntel,28.57142857,,,,,,,,,,,,,,,,,,,,,o,0,1.489,34,FALSE,FALSE,8,1,33,3,1,,,,,,,
,,,,,,1,1.65537177,#a3d0fb,,right_blue.png,o,,,,,,o,right_blue.png,right_orange.png,p,left,60fcb27a813cad15501fe54e,001,2021-08-01_13h30.40.952,arrow_simon_norep,2021.1.2,MacIntel,28.57142857,,,,,,,,,,,,,,,,,,,,,w,0,1.186,35,FALSE,TRUE,8,2,34,0,1,,,,,,,
,,,,,,1,2.44677,#f3af84,,right_orange.png,p,,,,,,o,right_blue.png,right_orange.png,p,right,60fcb27a813cad15501fe54e,001,2021-08-01_13h30.40.952,arrow_simon_norep,2021.1.2,MacIntel,28.57142857,,,,,,,,,,,,,,,,,,,,,q,0,1.605,36,TRUE,FALSE,8,3,35,1,1,,,,,,,
,,,,,,1,2.358952337,#a3d0fb,,left_blue.png,w,,,,,,w,left_blue.png,left_orange.png,q,left,60fcb27a813cad15501fe54e,001,2021-08-01_13h30.40.952,arrow_simon_norep,2021.1.2,MacIntel,28.57142857,,,,,,,,,,,,,,,,,,,,,w,1,1.659,37,TRUE,FALSE,9,0,36,2,1,,,,,,,
,,,,,,1,2.014244379,#f3af84,,left_orange.png,q,,,,,,w,left_blue.png,left_orange.png,q,left,60fcb27a813cad15501fe54e,001,2021-08-01_13h30.40.952,arrow_simon_norep,2021.1.2,MacIntel,28.57142857,,,,,,,,,,,,,,,,,,,,,q,1,1.757,38,TRUE,FALSE,9,1,37,2,1,,,,,,,
,,,,,,0,1.710305224,#a3d0fb,,left_blue.png,w,,,,,,w,left_blue.png,left_orange.png,q,left,60fcb27a813cad15501fe54e,001,2021-08-01_13h30.40.952,arrow_simon_norep,2021.1.2,MacIntel,28.57142857,,,,,,,,,,,,,,,,,,,,,w,1,1.547,39,FALSE,FALSE,9,2,38,2,1,,,,,,,
,,,,,,0,1.715878462,#f3af84,,left_orange.png,q,,,,,,w,left_blue.png,left_orange.png,q,left,60fcb27a813cad15501fe54e,001,2021-08-01_13h30.40.952,arrow_simon_norep,2021.1.2,MacIntel,28.57142857,,,,,,,,,,,,,,,,,,,,,q,1,1.484,40,FALSE,FALSE,9,3,39,2,1,,,,,,,
,,,,,,1,1.774051635,#a3d0fb,,left_blue.png,w,,,,,,w,left_blue.png,left_orange.png,q,right,60fcb27a813cad15501fe54e,001,2021-08-01_13h30.40.952,arrow_simon_norep,2021.1.2,MacIntel,28.57142857,,,,,,,,,,,,,,,,,,,,,o,0,1.537,41,FALSE,FALSE,10,0,40,3,1,,,,,,,
,,,,,,1,2.402233487,#f3af84,,right_orange.png,p,,,,,,o,right_blue.png,right_orange.png,p,right,60fcb27a813cad15501fe54e,001,2021-08-01_13h30.40.952,arrow_simon_norep,2021.1.2,MacIntel,28.57142857,,,,,,,,,,,,,,,,,,,,,q,0,1.647,42,TRUE,FALSE,10,1,41,1,1,,,,,,,
,,,,,,1,2.270456361,#a3d0fb,,left_blue.png,w,,,,,,w,left_blue.png,left_orange.png,q,right,60fcb27a813cad15501fe54e,001,2021-08-01_13h30.40.952,arrow_simon_norep,2021.1.2,MacIntel,28.57142857,,,,,,,,,,,,,,,,,,,,,o,0,1.516,43,FALSE,FALSE,10,2,42,3,1,,,,,,,
,,,,,,1,1.633977369,#f3af84,,left_orange.png,q,,,,,,w,left_blue.png,left_orange.png,q,left,60fcb27a813cad15501fe54e,001,2021-08-01_13h30.40.952,arrow_simon_norep,2021.1.2,MacIntel,28.57142857,,,,,,,,,,,,,,,,,,,,,q,1,1.635,44,TRUE,FALSE,10,3,43,2,1,,,,,,,
,,,,,,0,1.690296692,#a3d0fb,,left_blue.png,w,,,,,,w,left_blue.png,left_orange.png,q,left,60fcb27a813cad15501fe54e,001,2021-08-01_13h30.40.952,arrow_simon_norep,2021.1.2,MacIntel,28.57142857,,,,,,,,,,,,,,,,,,,,,w,1,1.561,45,FALSE,FALSE,11,0,44,2,1,,,,,,,
,,,,,,0,1.845213764,#f3af84,,right_orange.png,p,,,,,,o,right_blue.png,right_orange.png,p,left,60fcb27a813cad15501fe54e,001,2021-08-01_13h30.40.952,arrow_simon_norep,2021.1.2,MacIntel,28.57142857,,,,,,,,,,,,,,,,,,,,,p,1,1.398,46,FALSE,TRUE,11,1,45,0,1,,,,,,,
,,,,,,0,2.230797473,#a3d0fb,,right_blue.png,o,,,,,,o,right_blue.png,right_orange.png,p,right,60fcb27a813cad15501fe54e,001,2021-08-01_13h30.40.952,arrow_simon_norep,2021.1.2,MacIntel,28.57142857,,,,,,,,,,,,,,,,,,,,,o,1,1.475,47,FALSE,FALSE,11,2,46,1,1,,,,,,,
,,,,,,0,2.433746883,#f3af84,,left_orange.png,q,,,,,,w,left_blue.png,left_orange.png,q,left,60fcb27a813cad15501fe54e,001,2021-08-01_13h30.40.952,arrow_simon_norep,2021.1.2,MacIntel,28.57142857,,,,,,,,,,,,,,,,,,,,,q,1,1.565,48,FALSE,FALSE,11,3,47,2,1,,,,,,,
