instruct_resp_simon.keys,instruct_resp_simon.corr,instruct_resp_simon.rt,trial_resp_simon.keys,trial_resp_simon.corr,trial_resp_simon.rt,kerr,target_onset,target_color,target_pos,target_file,target_resp,trials_train_simon.thisRepN,trials_train_simon.thisTrialN,trials_train_simon.thisN,trials_train_simon.thisIndex,trials_train_simon.ran,odd_target_resp,odd_target_file,even_target_file,even_target_resp,target_side,participant,session,date,expName,psychopyVersion,OS,frameRate,train_block_note_resp.keys,train_block_note_resp.rt,blocks_train.thisRepN,blocks_train.thisTrialN,blocks_train.thisN,blocks_train.thisIndex,blocks_train.ran,instruct_resp_timing.keys,instruct_resp_timing.corr,instruct_resp_timing.rt,trial_resp_timing.keys,trial_resp_timing.rt,trials_train_timing.thisRepN,trials_train_timing.thisTrialN,trials_train_timing.thisN,trials_train_timing.thisIndex,trials_train_timing.ran,instruct_resp.keys,instruct_resp.corr,instruct_resp.rt,trial_resp.keys,trial_resp.corr,trial_resp.rt,trial_num,too_slow,too_soon,trials.thisRepN,trials.thisTrialN,trials.thisN,trials.thisIndex,trials.ran,block_note_resp.keys,block_note_resp.rt,blocks.thisRepN,blocks.thisTrialN,blocks.thisN,blocks.thisIndex,blocks.ran
space,0,72.8443,p,0,1.4759,1,0.444705579,#a3d0fb,,right_blue.png,o,0,0,0,1,1,o,right_blue.png,right_orange.png,p,right,60fcfac5e20edfa3acdc87e0,001,2021-07-25_17h33.34.720,arrow_simon_norep,2021.1.2,MacIntel,59.84082341,,,,,,,,,,,,,,,,,,,,,,,,,,,,,,,,,,,,,,
,,,o,0,1.3748,1,0.608730987,#f3af84,,left_orange.png,q,0,1,1,3,1,w,left_blue.png,left_orange.png,q,right,60fcfac5e20edfa3acdc87e0,001,2021-07-25_17h33.34.720,arrow_simon_norep,2021.1.2,MacIntel,59.84082341,,,,,,,,,,,,,,,,,,,,,,,,,,,,,,,,,,,,,,
,,,o,1,1.2192,0,0.130342207,#a3d0fb,,right_blue.png,o,0,2,2,1,1,o,right_blue.png,right_orange.png,p,right,60fcfac5e20edfa3acdc87e0,001,2021-07-25_17h33.34.720,arrow_simon_norep,2021.1.2,MacIntel,59.84082341,,,,,,,,,,,,,,,,,,,,,,,,,,,,,,,,,,,,,,
,,,w,0,2.7237,1,0.900153262,#f3af84,,left_orange.png,q,0,3,3,2,1,w,left_blue.png,left_orange.png,q,left,60fcfac5e20edfa3acdc87e0,001,2021-07-25_17h33.34.720,arrow_simon_norep,2021.1.2,MacIntel,59.84082341,,,,,,,,,,,,,,,,,,,,,,,,,,,,,,,,,,,,,,
,,,w,1,2.6817,0,0.642537913,#a3d0fb,,left_blue.png,w,1,0,4,3,1,w,left_blue.png,left_orange.png,q,right,60fcfac5e20edfa3acdc87e0,001,2021-07-25_17h33.34.720,arrow_simon_norep,2021.1.2,MacIntel,59.84082341,,,,,,,,,,,,,,,,,,,,,,,,,,,,,,,,,,,,,,
,,,q,1,2.3083,0,0.069179095,#f3af84,,left_orange.png,q,1,1,5,3,1,w,left_blue.png,left_orange.png,q,right,60fcfac5e20edfa3acdc87e0,001,2021-07-25_17h33.34.720,arrow_simon_norep,2021.1.2,MacIntel,59.84082341,,,,,,,,,,,,,,,,,,,,,,,,,,,,,,,,,,,,,,
,,,o,1,1.6246,0,0.357038957,#a3d0fb,,right_blue.png,o,1,2,6,0,1,o,right_blue.png,right_orange.png,p,left,60fcfac5e20edfa3acdc87e0,001,2021-07-25_17h33.34.720,arrow_simon_norep,2021.1.2,MacIntel,59.84082341,,,,,,,,,,,,,,,,,,,,,,,,,,,,,,,,,,,,,,
,,,p,1,1.8723,0,0.717497462,#f3af84,,right_orange.png,p,1,3,7,1,1,o,right_blue.png,right_orange.png,p,right,60fcfac5e20edfa3acdc87e0,001,2021-07-25_17h33.34.720,arrow_simon_norep,2021.1.2,MacIntel,59.84082341,,,,,,,,,,,,,,,,,,,,,,,,,,,,,,,,,,,,,,
,,,o,1,1.0422,0,0.264290276,#a3d0fb,,right_blue.png,o,2,0,8,1,1,o,right_blue.png,right_orange.png,p,right,60fcfac5e20edfa3acdc87e0,001,2021-07-25_17h33.34.720,arrow_simon_norep,2021.1.2,MacIntel,59.84082341,,,,,,,,,,,,,,,,,,,,,,,,,,,,,,,,,,,,,,
,,,q,1,1.3234,0,0.18666568,#f3af84,,left_orange.png,q,2,1,9,2,1,w,left_blue.png,left_orange.png,q,left,60fcfac5e20edfa3acdc87e0,001,2021-07-25_17h33.34.720,arrow_simon_norep,2021.1.2,MacIntel,59.84082341,,,,,,,,,,,,,,,,,,,,,,,,,,,,,,,,,,,,,,
,,,w,1,1.2232,0,0.49000305,#a3d0fb,,left_blue.png,w,2,2,10,2,1,w,left_blue.png,left_orange.png,q,left,60fcfac5e20edfa3acdc87e0,001,2021-07-25_17h33.34.720,arrow_simon_norep,2021.1.2,MacIntel,59.84082341,,,,,,,,,,,,,,,,,,,,,,,,,,,,,,,,,,,,,,
,,,p,1,2.2257,0,0.216229155,#f3af84,,right_orange.png,p,2,3,11,0,1,o,right_blue.png,right_orange.png,p,left,60fcfac5e20edfa3acdc87e0,001,2021-07-25_17h33.34.720,arrow_simon_norep,2021.1.2,MacIntel,59.84082341,,,,,,,,,,,,,,,,,,,,,,,,,,,,,,,,,,,,,,
,,,w,1,2.4952,0,0.99602421,#a3d0fb,,left_blue.png,w,3,0,12,2,1,w,left_blue.png,left_orange.png,q,left,60fcfac5e20edfa3acdc87e0,001,2021-07-25_17h33.34.720,arrow_simon_norep,2021.1.2,MacIntel,59.84082341,,,,,,,,,,,,,,,,,,,,,,,,,,,,,,,,,,,,,,
,,,p,1,2.974,0,0.743864626,#f3af84,,right_orange.png,p,3,1,13,0,1,o,right_blue.png,right_orange.png,p,left,60fcfac5e20edfa3acdc87e0,001,2021-07-25_17h33.34.720,arrow_simon_norep,2021.1.2,MacIntel,59.84082341,,,,,,,,,,,,,,,,,,,,,,,,,,,,,,,,,,,,,,
,,,w,1,2.9917,0,0.787373461,#a3d0fb,,left_blue.png,w,3,2,14,2,1,w,left_blue.png,left_orange.png,q,left,60fcfac5e20edfa3acdc87e0,001,2021-07-25_17h33.34.720,arrow_simon_norep,2021.1.2,MacIntel,59.84082341,,,,,,,,,,,,,,,,,,,,,,,,,,,,,,,,,,,,,,
,,,p,1,2.5585,0,0.288195238,#f3af84,,right_orange.png,p,3,3,15,0,1,o,right_blue.png,right_orange.png,p,left,60fcfac5e20edfa3acdc87e0,001,2021-07-25_17h33.34.720,arrow_simon_norep,2021.1.2,MacIntel,59.84082341,,,,,,,,,,,,,,,,,,,,,,,,,,,,,,,,,,,,,,
,,,o,1,1.4088,0,0.632442131,#a3d0fb,,right_blue.png,o,4,0,16,1,1,o,right_blue.png,right_orange.png,p,right,60fcfac5e20edfa3acdc87e0,001,2021-07-25_17h33.34.720,arrow_simon_norep,2021.1.2,MacIntel,59.84082341,,,,,,,,,,,,,,,,,,,,,,,,,,,,,,,,,,,,,,
,,,p,1,1.1907,0,0.288990362,#f3af84,,right_orange.png,p,4,1,17,1,1,o,right_blue.png,right_orange.png,p,right,60fcfac5e20edfa3acdc87e0,001,2021-07-25_17h33.34.720,arrow_simon_norep,2021.1.2,MacIntel,59.84082341,,,,,,,,,,,,,,,,,,,,,,,,,,,,,,,,,,,,,,
,,,o,1,1.0315,0,0.355507552,#a3d0fb,,right_blue.png,o,4,2,18,1,1,o,right_blue.png,right_orange.png,p,right,60fcfac5e20edfa3acdc87e0,001,2021-07-25_17h33.34.720,arrow_simon_norep,2021.1.2,MacIntel,59.84082341,,,,,,,,,,,,,,,,,,,,,,,,,,,,,,,,,,,,,,
,,,p,1,0.8885,0,0.123308497,#f3af84,,right_orange.png,p,4,3,19,1,1,o,right_blue.png,right_orange.png,p,right,60fcfac5e20edfa3acdc87e0,001,2021-07-25_17h33.34.720,arrow_simon_norep,2021.1.2,MacIntel,59.84082341,,,,,,,,,,,,,,,,,,,,,,,,,,,,,,,,,,,,,,
,,,w,1,1.1596,0,0.340712812,#a3d0fb,,left_blue.png,w,5,0,20,2,1,w,left_blue.png,left_orange.png,q,left,60fcfac5e20edfa3acdc87e0,001,2021-07-25_17h33.34.720,arrow_simon_norep,2021.1.2,MacIntel,59.84082341,,,,,,,,,,,,,,,,,,,,,,,,,,,,,,,,,,,,,,
,,,o,0,0.9037,1,0.035334533,#f3af84,,left_orange.png,q,5,1,21,3,1,w,left_blue.png,left_orange.png,q,right,60fcfac5e20edfa3acdc87e0,001,2021-07-25_17h33.34.720,arrow_simon_norep,2021.1.2,MacIntel,59.84082341,,,,,,,,,,,,,,,,,,,,,,,,,,,,,,,,,,,,,,
,,,o,1,1.7237,0,0.531908566,#a3d0fb,,right_blue.png,o,5,2,22,1,1,o,right_blue.png,right_orange.png,p,right,60fcfac5e20edfa3acdc87e0,001,2021-07-25_17h33.34.720,arrow_simon_norep,2021.1.2,MacIntel,59.84082341,,,,,,,,,,,,,,,,,,,,,,,,,,,,,,,,,,,,,,
,,,p,1,1.3304,0,0.603568528,#f3af84,,right_orange.png,p,5,3,23,0,1,o,right_blue.png,right_orange.png,p,left,60fcfac5e20edfa3acdc87e0,001,2021-07-25_17h33.34.720,arrow_simon_norep,2021.1.2,MacIntel,59.84082341,,,,,,,,,,,,,,,,,,,,,,,,,,,,,,,,,,,,,,
,,,o,1,1.2469,0,0.099862517,#a3d0fb,,right_blue.png,o,6,0,24,1,1,o,right_blue.png,right_orange.png,p,right,60fcfac5e20edfa3acdc87e0,001,2021-07-25_17h33.34.720,arrow_simon_norep,2021.1.2,MacIntel,59.84082341,,,,,,,,,,,,,,,,,,,,,,,,,,,,,,,,,,,,,,
,,,q,1,1.5051,0,0.832291333,#f3af84,,left_orange.png,q,6,1,25,2,1,w,left_blue.png,left_orange.png,q,left,60fcfac5e20edfa3acdc87e0,001,2021-07-25_17h33.34.720,arrow_simon_norep,2021.1.2,MacIntel,59.84082341,,,,,,,,,,,,,,,,,,,,,,,,,,,,,,,,,,,,,,
,,,w,1,1.1056,0,0.025567211,#a3d0fb,,left_blue.png,w,6,2,26,3,1,w,left_blue.png,left_orange.png,q,right,60fcfac5e20edfa3acdc87e0,001,2021-07-25_17h33.34.720,arrow_simon_norep,2021.1.2,MacIntel,59.84082341,,,,,,,,,,,,,,,,,,,,,,,,,,,,,,,,,,,,,,
,,,q,1,0.8904,0,0.13224814,#f3af84,,left_orange.png,q,6,3,27,2,1,w,left_blue.png,left_orange.png,q,left,60fcfac5e20edfa3acdc87e0,001,2021-07-25_17h33.34.720,arrow_simon_norep,2021.1.2,MacIntel,59.84082341,,,,,,,,,,,,,,,,,,,,,,,,,,,,,,,,,,,,,,
,,,w,1,1.7936,0,0.835020736,#a3d0fb,,left_blue.png,w,7,0,28,2,1,w,left_blue.png,left_orange.png,q,left,60fcfac5e20edfa3acdc87e0,001,2021-07-25_17h33.34.720,arrow_simon_norep,2021.1.2,MacIntel,59.84082341,,,,,,,,,,,,,,,,,,,,,,,,,,,,,,,,,,,,,,
,,,q,1,3.1525,0,0.800478864,#f3af84,,left_orange.png,q,7,1,29,3,1,w,left_blue.png,left_orange.png,q,right,60fcfac5e20edfa3acdc87e0,001,2021-07-25_17h33.34.720,arrow_simon_norep,2021.1.2,MacIntel,59.84082341,,,,,,,,,,,,,,,,,,,,,,,,,,,,,,,,,,,,,,
,,,w,1,1.7435,0,0.939116101,#a3d0fb,,left_blue.png,w,7,2,30,2,1,w,left_blue.png,left_orange.png,q,left,60fcfac5e20edfa3acdc87e0,001,2021-07-25_17h33.34.720,arrow_simon_norep,2021.1.2,MacIntel,59.84082341,,,,,,,,,,,,,,,,,,,,,,,,,,,,,,,,,,,,,,
,,,q,1,1.1916,0,0.251080863,#f3af84,,left_orange.png,q,7,3,31,3,1,w,left_blue.png,left_orange.png,q,right,60fcfac5e20edfa3acdc87e0,001,2021-07-25_17h33.34.720,arrow_simon_norep,2021.1.2,MacIntel,59.84082341,,,,,,,,,,,,,,,,,,,,,,,,,,,,,,,,,,,,,,
,,,w,1,1.844,0,0.933343102,#a3d0fb,,left_blue.png,w,8,0,32,2,1,w,left_blue.png,left_orange.png,q,left,60fcfac5e20edfa3acdc87e0,001,2021-07-25_17h33.34.720,arrow_simon_norep,2021.1.2,MacIntel,59.84082341,,,,,,,,,,,,,,,,,,,,,,,,,,,,,,,,,,,,,,
,,,q,1,1.5747,0,0.848981853,#f3af84,,left_orange.png,q,8,1,33,3,1,w,left_blue.png,left_orange.png,q,right,60fcfac5e20edfa3acdc87e0,001,2021-07-25_17h33.34.720,arrow_simon_norep,2021.1.2,MacIntel,59.84082341,,,,,,,,,,,,,,,,,,,,,,,,,,,,,,,,,,,,,,
,,,o,1,1.9597,0,0.579408255,#a3d0fb,,right_blue.png,o,8,2,34,0,1,o,right_blue.png,right_orange.png,p,left,60fcfac5e20edfa3acdc87e0,001,2021-07-25_17h33.34.720,arrow_simon_norep,2021.1.2,MacIntel,59.84082341,,,,,,,,,,,,,,,,,,,,,,,,,,,,,,,,,,,,,,
,,,p,1,2.0905,0,0.825498664,#f3af84,,right_orange.png,p,8,3,35,1,1,o,right_blue.png,right_orange.png,p,right,60fcfac5e20edfa3acdc87e0,001,2021-07-25_17h33.34.720,arrow_simon_norep,2021.1.2,MacIntel,59.84082341,,,,,,,,,,,,,,,,,,,,,,,,,,,,,,,,,,,,,,
,,,o,1,3.6157,0,0.900599632,#a3d0fb,,right_blue.png,o,9,0,36,0,1,o,right_blue.png,right_orange.png,p,left,60fcfac5e20edfa3acdc87e0,001,2021-07-25_17h33.34.720,arrow_simon_norep,2021.1.2,MacIntel,59.84082341,,,,,,,,,,,,,,,,,,,,,,,,,,,,,,,,,,,,,,
,,,q,1,2.6273,0,0.989587143,#f3af84,,left_orange.png,q,9,1,37,3,1,w,left_blue.png,left_orange.png,q,right,60fcfac5e20edfa3acdc87e0,001,2021-07-25_17h33.34.720,arrow_simon_norep,2021.1.2,MacIntel,59.84082341,,,,,,,,,,,,,,,,,,,,,,,,,,,,,,,,,,,,,,
,,,o,1,2.225,0,0.425018484,#a3d0fb,,right_blue.png,o,9,2,38,0,1,o,right_blue.png,right_orange.png,p,left,60fcfac5e20edfa3acdc87e0,001,2021-07-25_17h33.34.720,arrow_simon_norep,2021.1.2,MacIntel,59.84082341,,,,,,,,,,,,,,,,,,,,,,,,,,,,,,,,,,,,,,
,,,p,1,2.1269,0,0.827638243,#f3af84,,right_orange.png,p,9,3,39,1,1,o,right_blue.png,right_orange.png,p,right,60fcfac5e20edfa3acdc87e0,001,2021-07-25_17h33.34.720,arrow_simon_norep,2021.1.2,MacIntel,59.84082341,,,,,,,,,,,,,,,,,,,,,,,,,,,,,,,,,,,,,,
,,,o,1,2.8318,0,0.940992783,#a3d0fb,,right_blue.png,o,10,0,40,0,1,o,right_blue.png,right_orange.png,p,left,60fcfac5e20edfa3acdc87e0,001,2021-07-25_17h33.34.720,arrow_simon_norep,2021.1.2,MacIntel,59.84082341,,,,,,,,,,,,,,,,,,,,,,,,,,,,,,,,,,,,,,
,,,p,1,1.119,0,0.170291715,#f3af84,,right_orange.png,p,10,1,41,1,1,o,right_blue.png,right_orange.png,p,right,60fcfac5e20edfa3acdc87e0,001,2021-07-25_17h33.34.720,arrow_simon_norep,2021.1.2,MacIntel,59.84082341,,,,,,,,,,,,,,,,,,,,,,,,,,,,,,,,,,,,,,
,,,w,1,1.9682,0,0.670401238,#a3d0fb,,left_blue.png,w,10,2,42,3,1,w,left_blue.png,left_orange.png,q,right,60fcfac5e20edfa3acdc87e0,001,2021-07-25_17h33.34.720,arrow_simon_norep,2021.1.2,MacIntel,59.84082341,,,,,,,,,,,,,,,,,,,,,,,,,,,,,,,,,,,,,,
,,,p,1,1.8301,0,0.601204864,#f3af84,,right_orange.png,p,10,3,43,1,1,o,right_blue.png,right_orange.png,p,right,60fcfac5e20edfa3acdc87e0,001,2021-07-25_17h33.34.720,arrow_simon_norep,2021.1.2,MacIntel,59.84082341,,,,,,,,,,,,,,,,,,,,,,,,,,,,,,,,,,,,,,
,,,w,1,2.0123,0,0.278283765,#a3d0fb,,left_blue.png,w,11,0,44,3,1,w,left_blue.png,left_orange.png,q,right,60fcfac5e20edfa3acdc87e0,001,2021-07-25_17h33.34.720,arrow_simon_norep,2021.1.2,MacIntel,59.84082341,,,,,,,,,,,,,,,,,,,,,,,,,,,,,,,,,,,,,,
,,,q,1,1.1748,0,0.194220607,#f3af84,,left_orange.png,q,11,1,45,2,1,w,left_blue.png,left_orange.png,q,left,60fcfac5e20edfa3acdc87e0,001,2021-07-25_17h33.34.720,arrow_simon_norep,2021.1.2,MacIntel,59.84082341,,,,,,,,,,,,,,,,,,,,,,,,,,,,,,,,,,,,,,
,,,o,1,2.4612,0,0.102467798,#a3d0fb,,right_blue.png,o,11,2,46,0,1,o,right_blue.png,right_orange.png,p,left,60fcfac5e20edfa3acdc87e0,001,2021-07-25_17h33.34.720,arrow_simon_norep,2021.1.2,MacIntel,59.84082341,,,,,,,,,,,,,,,,,,,,,,,,,,,,,,,,,,,,,,
,,,q,1,1.4806,0,0.060491414,#f3af84,,left_orange.png,q,11,3,47,3,1,w,left_blue.png,left_orange.png,q,right,60fcfac5e20edfa3acdc87e0,001,2021-07-25_17h33.34.720,arrow_simon_norep,2021.1.2,MacIntel,59.84082341,,,,,,,,,,,,,,,,,,,,,,,,,,,,,,,,,,,,,,
,,,o,1,1.6399,0,0.292830355,#a3d0fb,,right_blue.png,o,12,0,48,0,1,o,right_blue.png,right_orange.png,p,left,60fcfac5e20edfa3acdc87e0,001,2021-07-25_17h33.34.720,arrow_simon_norep,2021.1.2,MacIntel,59.84082341,,,,,,,,,,,,,,,,,,,,,,,,,,,,,,,,,,,,,,
,,,p,1,1.555,0,0.431262324,#f3af84,,right_orange.png,p,12,1,49,0,1,o,right_blue.png,right_orange.png,p,left,60fcfac5e20edfa3acdc87e0,001,2021-07-25_17h33.34.720,arrow_simon_norep,2021.1.2,MacIntel,59.84082341,,,,,,,,,,,,,,,,,,,,,,,,,,,,,,,,,,,,,,
,,,o,1,1.7395,0,0.821484423,#a3d0fb,,right_blue.png,o,12,2,50,0,1,o,right_blue.png,right_orange.png,p,left,60fcfac5e20edfa3acdc87e0,001,2021-07-25_17h33.34.720,arrow_simon_norep,2021.1.2,MacIntel,59.84082341,,,,,,,,,,,,,,,,,,,,,,,,,,,,,,,,,,,,,,
,,,q,1,1.3561,0,0.005724966,#f3af84,,left_orange.png,q,12,3,51,2,1,w,left_blue.png,left_orange.png,q,left,60fcfac5e20edfa3acdc87e0,001,2021-07-25_17h33.34.720,arrow_simon_norep,2021.1.2,MacIntel,59.84082341,,,,,,,,,,,,,,,,,,,,,,,,,,,,,,,,,,,,,,
,,,o,1,1.8754,0,0.421587436,#a3d0fb,,right_blue.png,o,13,0,52,0,1,o,right_blue.png,right_orange.png,p,left,60fcfac5e20edfa3acdc87e0,001,2021-07-25_17h33.34.720,arrow_simon_norep,2021.1.2,MacIntel,59.84082341,,,,,,,,,,,,,,,,,,,,,,,,,,,,,,,,,,,,,,
,,,p,1,1.1394,0,0.121226551,#f3af84,,right_orange.png,p,13,1,53,1,1,o,right_blue.png,right_orange.png,p,right,60fcfac5e20edfa3acdc87e0,001,2021-07-25_17h33.34.720,arrow_simon_norep,2021.1.2,MacIntel,59.84082341,,,,,,,,,,,,,,,,,,,,,,,,,,,,,,,,,,,,,,
,,,w,1,1.3786,0,0.337161814,#a3d0fb,,left_blue.png,w,13,2,54,2,1,w,left_blue.png,left_orange.png,q,left,60fcfac5e20edfa3acdc87e0,001,2021-07-25_17h33.34.720,arrow_simon_norep,2021.1.2,MacIntel,59.84082341,,,,,,,,,,,,,,,,,,,,,,,,,,,,,,,,,,,,,,
,,,q,1,1.3955,0,0.699510744,#f3af84,,left_orange.png,q,13,3,55,2,1,w,left_blue.png,left_orange.png,q,left,60fcfac5e20edfa3acdc87e0,001,2021-07-25_17h33.34.720,arrow_simon_norep,2021.1.2,MacIntel,59.84082341,,,,,,,,,,,,,,,,,,,,,,,,,,,,,,,,,,,,,,
,,,o,1,1.4916,0,0.618175755,#a3d0fb,,right_blue.png,o,14,0,56,0,1,o,right_blue.png,right_orange.png,p,left,60fcfac5e20edfa3acdc87e0,001,2021-07-25_17h33.34.720,arrow_simon_norep,2021.1.2,MacIntel,59.84082341,,,,,,,,,,,,,,,,,,,,,,,,,,,,,,,,,,,,,,
,,,q,1,1.6541,0,0.81831837,#f3af84,,left_orange.png,q,14,1,57,3,1,w,left_blue.png,left_orange.png,q,right,60fcfac5e20edfa3acdc87e0,001,2021-07-25_17h33.34.720,arrow_simon_norep,2021.1.2,MacIntel,59.84082341,,,,,,,,,,,,,,,,,,,,,,,,,,,,,,,,,,,,,,
,,,w,1,0.8372,0,0.084242469,#a3d0fb,,left_blue.png,w,14,2,58,3,1,w,left_blue.png,left_orange.png,q,right,60fcfac5e20edfa3acdc87e0,001,2021-07-25_17h33.34.720,arrow_simon_norep,2021.1.2,MacIntel,59.84082341,,,,,,,,,,,,,,,,,,,,,,,,,,,,,,,,,,,,,,
,,,q,1,1.2928,0,0.502883515,#f3af84,,left_orange.png,q,14,3,59,3,1,w,left_blue.png,left_orange.png,q,right,60fcfac5e20edfa3acdc87e0,001,2021-07-25_17h33.34.720,arrow_simon_norep,2021.1.2,MacIntel,59.84082341,,,,,,,,,,,,,,,,,,,,,,,,,,,,,,,,,,,,,,
,,,,,,,,,,,,,,,,,,,,,,60fcfac5e20edfa3acdc87e0,001,2021-07-25_17h33.34.720,arrow_simon_norep,2021.1.2,MacIntel,59.84082341,space,22.2171,0,0,0,0,1,,,,,,,,,,,,,,,,,,,,,,,,,,,,,,,
,,,o,1,1.9244,0,0.918619477,#a3d0fb,,right_blue.png,o,0,0,0,1,1,o,right_blue.png,right_orange.png,p,right,60fcfac5e20edfa3acdc87e0,001,2021-07-25_17h33.34.720,arrow_simon_norep,2021.1.2,MacIntel,59.84082341,,,,,,,,,,,,,,,,,,,,,,,,,,,,,,,,,,,,,,
,,,q,1,0.9394,0,0.058164123,#f3af84,,left_orange.png,q,0,1,1,2,1,w,left_blue.png,left_orange.png,q,left,60fcfac5e20edfa3acdc87e0,001,2021-07-25_17h33.34.720,arrow_simon_norep,2021.1.2,MacIntel,59.84082341,,,,,,,,,,,,,,,,,,,,,,,,,,,,,,,,,,,,,,
,,,o,1,2.0652,0,0.899647305,#a3d0fb,,right_blue.png,o,0,2,2,1,1,o,right_blue.png,right_orange.png,p,right,60fcfac5e20edfa3acdc87e0,001,2021-07-25_17h33.34.720,arrow_simon_norep,2021.1.2,MacIntel,59.84082341,,,,,,,,,,,,,,,,,,,,,,,,,,,,,,,,,,,,,,
,,,w,0,1.4596,1,0.993061188,#f3af84,,left_orange.png,q,0,3,3,2,1,w,left_blue.png,left_orange.png,q,left,60fcfac5e20edfa3acdc87e0,001,2021-07-25_17h33.34.720,arrow_simon_norep,2021.1.2,MacIntel,59.84082341,,,,,,,,,,,,,,,,,,,,,,,,,,,,,,,,,,,,,,
,,,q,0,0.6399,1,0.050940356,#a3d0fb,,left_blue.png,w,1,0,4,2,1,w,left_blue.png,left_orange.png,q,left,60fcfac5e20edfa3acdc87e0,001,2021-07-25_17h33.34.720,arrow_simon_norep,2021.1.2,MacIntel,59.84082341,,,,,,,,,,,,,,,,,,,,,,,,,,,,,,,,,,,,,,
,,,p,1,1.5754,0,0.682108883,#f3af84,,right_orange.png,p,1,1,5,1,1,o,right_blue.png,right_orange.png,p,right,60fcfac5e20edfa3acdc87e0,001,2021-07-25_17h33.34.720,arrow_simon_norep,2021.1.2,MacIntel,59.84082341,,,,,,,,,,,,,,,,,,,,,,,,,,,,,,,,,,,,,,
,,,o,1,1.7727,0,0.608069962,#a3d0fb,,right_blue.png,o,1,2,6,1,1,o,right_blue.png,right_orange.png,p,right,60fcfac5e20edfa3acdc87e0,001,2021-07-25_17h33.34.720,arrow_simon_norep,2021.1.2,MacIntel,59.84082341,,,,,,,,,,,,,,,,,,,,,,,,,,,,,,,,,,,,,,
,,,q,1,1.231,0,0.382823324,#f3af84,,left_orange.png,q,1,3,7,3,1,w,left_blue.png,left_orange.png,q,right,60fcfac5e20edfa3acdc87e0,001,2021-07-25_17h33.34.720,arrow_simon_norep,2021.1.2,MacIntel,59.84082341,,,,,,,,,,,,,,,,,,,,,,,,,,,,,,,,,,,,,,
,,,w,1,1.0155,0,0.033240378,#a3d0fb,,left_blue.png,w,2,0,8,3,1,w,left_blue.png,left_orange.png,q,right,60fcfac5e20edfa3acdc87e0,001,2021-07-25_17h33.34.720,arrow_simon_norep,2021.1.2,MacIntel,59.84082341,,,,,,,,,,,,,,,,,,,,,,,,,,,,,,,,,,,,,,
,,,q,1,1.573,0,0.884829543,#f3af84,,left_orange.png,q,2,1,9,2,1,w,left_blue.png,left_orange.png,q,left,60fcfac5e20edfa3acdc87e0,001,2021-07-25_17h33.34.720,arrow_simon_norep,2021.1.2,MacIntel,59.84082341,,,,,,,,,,,,,,,,,,,,,,,,,,,,,,,,,,,,,,
,,,o,1,1.9409,0,0.436368002,#a3d0fb,,right_blue.png,o,2,2,10,0,1,o,right_blue.png,right_orange.png,p,left,60fcfac5e20edfa3acdc87e0,001,2021-07-25_17h33.34.720,arrow_simon_norep,2021.1.2,MacIntel,59.84082341,,,,,,,,,,,,,,,,,,,,,,,,,,,,,,,,,,,,,,
,,,p,1,1.6381,0,0.775490853,#f3af84,,right_orange.png,p,2,3,11,1,1,o,right_blue.png,right_orange.png,p,right,60fcfac5e20edfa3acdc87e0,001,2021-07-25_17h33.34.720,arrow_simon_norep,2021.1.2,MacIntel,59.84082341,,,,,,,,,,,,,,,,,,,,,,,,,,,,,,,,,,,,,,
,,,o,1,1.128,0,0.402978128,#a3d0fb,,right_blue.png,o,3,0,12,1,1,o,right_blue.png,right_orange.png,p,right,60fcfac5e20edfa3acdc87e0,001,2021-07-25_17h33.34.720,arrow_simon_norep,2021.1.2,MacIntel,59.84082341,,,,,,,,,,,,,,,,,,,,,,,,,,,,,,,,,,,,,,
,,,q,1,1.7284,0,0.977653016,#f3af84,,left_orange.png,q,3,1,13,3,1,w,left_blue.png,left_orange.png,q,right,60fcfac5e20edfa3acdc87e0,001,2021-07-25_17h33.34.720,arrow_simon_norep,2021.1.2,MacIntel,59.84082341,,,,,,,,,,,,,,,,,,,,,,,,,,,,,,,,,,,,,,
,,,o,1,1.4907,0,0.615382462,#a3d0fb,,right_blue.png,o,3,2,14,1,1,o,right_blue.png,right_orange.png,p,right,60fcfac5e20edfa3acdc87e0,001,2021-07-25_17h33.34.720,arrow_simon_norep,2021.1.2,MacIntel,59.84082341,,,,,,,,,,,,,,,,,,,,,,,,,,,,,,,,,,,,,,
,,,p,1,1.4558,0,0.795831384,#f3af84,,right_orange.png,p,3,3,15,1,1,o,right_blue.png,right_orange.png,p,right,60fcfac5e20edfa3acdc87e0,001,2021-07-25_17h33.34.720,arrow_simon_norep,2021.1.2,MacIntel,59.84082341,,,,,,,,,,,,,,,,,,,,,,,,,,,,,,,,,,,,,,
,,,w,0,1.693,1,0.561930415,#a3d0fb,,right_blue.png,o,4,0,16,0,1,o,right_blue.png,right_orange.png,p,left,60fcfac5e20edfa3acdc87e0,001,2021-07-25_17h33.34.720,arrow_simon_norep,2021.1.2,MacIntel,59.84082341,,,,,,,,,,,,,,,,,,,,,,,,,,,,,,,,,,,,,,
,,,q,1,1.3067,0,0.295113722,#f3af84,,left_orange.png,q,4,1,17,3,1,w,left_blue.png,left_orange.png,q,right,60fcfac5e20edfa3acdc87e0,001,2021-07-25_17h33.34.720,arrow_simon_norep,2021.1.2,MacIntel,59.84082341,,,,,,,,,,,,,,,,,,,,,,,,,,,,,,,,,,,,,,
,,,w,1,1.6749,0,0.148404599,#a3d0fb,,left_blue.png,w,4,2,18,3,1,w,left_blue.png,left_orange.png,q,right,60fcfac5e20edfa3acdc87e0,001,2021-07-25_17h33.34.720,arrow_simon_norep,2021.1.2,MacIntel,59.84082341,,,,,,,,,,,,,,,,,,,,,,,,,,,,,,,,,,,,,,
,,,p,1,3.0136,0,0.963165882,#f3af84,,right_orange.png,p,4,3,19,0,1,o,right_blue.png,right_orange.png,p,left,60fcfac5e20edfa3acdc87e0,001,2021-07-25_17h33.34.720,arrow_simon_norep,2021.1.2,MacIntel,59.84082341,,,,,,,,,,,,,,,,,,,,,,,,,,,,,,,,,,,,,,
,,,o,1,1.7215,0,0.678795985,#a3d0fb,,right_blue.png,o,5,0,20,0,1,o,right_blue.png,right_orange.png,p,left,60fcfac5e20edfa3acdc87e0,001,2021-07-25_17h33.34.720,arrow_simon_norep,2021.1.2,MacIntel,59.84082341,,,,,,,,,,,,,,,,,,,,,,,,,,,,,,,,,,,,,,
,,,p,1,2.6899,0,0.845801315,#f3af84,,right_orange.png,p,5,1,21,0,1,o,right_blue.png,right_orange.png,p,left,60fcfac5e20edfa3acdc87e0,001,2021-07-25_17h33.34.720,arrow_simon_norep,2021.1.2,MacIntel,59.84082341,,,,,,,,,,,,,,,,,,,,,,,,,,,,,,,,,,,,,,
,,,o,1,0.9412,0,0.145324607,#a3d0fb,,right_blue.png,o,5,2,22,0,1,o,right_blue.png,right_orange.png,p,left,60fcfac5e20edfa3acdc87e0,001,2021-07-25_17h33.34.720,arrow_simon_norep,2021.1.2,MacIntel,59.84082341,,,,,,,,,,,,,,,,,,,,,,,,,,,,,,,,,,,,,,
,,,p,1,0.855,0,0.035824824,#f3af84,,right_orange.png,p,5,3,23,0,1,o,right_blue.png,right_orange.png,p,left,60fcfac5e20edfa3acdc87e0,001,2021-07-25_17h33.34.720,arrow_simon_norep,2021.1.2,MacIntel,59.84082341,,,,,,,,,,,,,,,,,,,,,,,,,,,,,,,,,,,,,,
,,,w,1,1.1704,0,0.211875977,#a3d0fb,,left_blue.png,w,6,0,24,3,1,w,left_blue.png,left_orange.png,q,right,60fcfac5e20edfa3acdc87e0,001,2021-07-25_17h33.34.720,arrow_simon_norep,2021.1.2,MacIntel,59.84082341,,,,,,,,,,,,,,,,,,,,,,,,,,,,,,,,,,,,,,
,,,p,1,2.0261,0,0.671967784,#f3af84,,right_orange.png,p,6,1,25,0,1,o,right_blue.png,right_orange.png,p,left,60fcfac5e20edfa3acdc87e0,001,2021-07-25_17h33.34.720,arrow_simon_norep,2021.1.2,MacIntel,59.84082341,,,,,,,,,,,,,,,,,,,,,,,,,,,,,,,,,,,,,,
,,,w,1,1.9438,0,0.459305321,#a3d0fb,,left_blue.png,w,6,2,26,2,1,w,left_blue.png,left_orange.png,q,left,60fcfac5e20edfa3acdc87e0,001,2021-07-25_17h33.34.720,arrow_simon_norep,2021.1.2,MacIntel,59.84082341,,,,,,,,,,,,,,,,,,,,,,,,,,,,,,,,,,,,,,
,,,q,1,1.2531,0,0.560510484,#f3af84,,left_orange.png,q,6,3,27,2,1,w,left_blue.png,left_orange.png,q,left,60fcfac5e20edfa3acdc87e0,001,2021-07-25_17h33.34.720,arrow_simon_norep,2021.1.2,MacIntel,59.84082341,,,,,,,,,,,,,,,,,,,,,,,,,,,,,,,,,,,,,,
,,,o,1,1.1232,0,0.146008779,#a3d0fb,,right_blue.png,o,7,0,28,0,1,o,right_blue.png,right_orange.png,p,left,60fcfac5e20edfa3acdc87e0,001,2021-07-25_17h33.34.720,arrow_simon_norep,2021.1.2,MacIntel,59.84082341,,,,,,,,,,,,,,,,,,,,,,,,,,,,,,,,,,,,,,
,,,q,1,1.0215,0,0.404465815,#f3af84,,left_orange.png,q,7,1,29,2,1,w,left_blue.png,left_orange.png,q,left,60fcfac5e20edfa3acdc87e0,001,2021-07-25_17h33.34.720,arrow_simon_norep,2021.1.2,MacIntel,59.84082341,,,,,,,,,,,,,,,,,,,,,,,,,,,,,,,,,,,,,,
,,,w,1,1.8766,0,0.416006419,#a3d0fb,,left_blue.png,w,7,2,30,3,1,w,left_blue.png,left_orange.png,q,right,60fcfac5e20edfa3acdc87e0,001,2021-07-25_17h33.34.720,arrow_simon_norep,2021.1.2,MacIntel,59.84082341,,,,,,,,,,,,,,,,,,,,,,,,,,,,,,,,,,,,,,
,,,q,1,0.7962,0,0.018027058,#f3af84,,left_orange.png,q,7,3,31,2,1,w,left_blue.png,left_orange.png,q,left,60fcfac5e20edfa3acdc87e0,001,2021-07-25_17h33.34.720,arrow_simon_norep,2021.1.2,MacIntel,59.84082341,,,,,,,,,,,,,,,,,,,,,,,,,,,,,,,,,,,,,,
,,,q,0,0.7556,1,0.222043018,#a3d0fb,,left_blue.png,w,8,0,32,3,1,w,left_blue.png,left_orange.png,q,right,60fcfac5e20edfa3acdc87e0,001,2021-07-25_17h33.34.720,arrow_simon_norep,2021.1.2,MacIntel,59.84082341,,,,,,,,,,,,,,,,,,,,,,,,,,,,,,,,,,,,,,
,,,q,1,1.2928,0,0.509050326,#f3af84,,left_orange.png,q,8,1,33,3,1,w,left_blue.png,left_orange.png,q,right,60fcfac5e20edfa3acdc87e0,001,2021-07-25_17h33.34.720,arrow_simon_norep,2021.1.2,MacIntel,59.84082341,,,,,,,,,,,,,,,,,,,,,,,,,,,,,,,,,,,,,,
,,,q,0,1.4555,1,0.697972628,#a3d0fb,,left_blue.png,w,8,2,34,2,1,w,left_blue.png,left_orange.png,q,left,60fcfac5e20edfa3acdc87e0,001,2021-07-25_17h33.34.720,arrow_simon_norep,2021.1.2,MacIntel,59.84082341,,,,,,,,,,,,,,,,,,,,,,,,,,,,,,,,,,,,,,
,,,q,1,1.1948,0,0.332810863,#f3af84,,left_orange.png,q,8,3,35,3,1,w,left_blue.png,left_orange.png,q,right,60fcfac5e20edfa3acdc87e0,001,2021-07-25_17h33.34.720,arrow_simon_norep,2021.1.2,MacIntel,59.84082341,,,,,,,,,,,,,,,,,,,,,,,,,,,,,,,,,,,,,,
,,,o,1,1.1049,0,0.186357318,#a3d0fb,,right_blue.png,o,9,0,36,1,1,o,right_blue.png,right_orange.png,p,right,60fcfac5e20edfa3acdc87e0,001,2021-07-25_17h33.34.720,arrow_simon_norep,2021.1.2,MacIntel,59.84082341,,,,,,,,,,,,,,,,,,,,,,,,,,,,,,,,,,,,,,
,,,p,1,2.9103,0,0.834833378,#f3af84,,right_orange.png,p,9,1,37,0,1,o,right_blue.png,right_orange.png,p,left,60fcfac5e20edfa3acdc87e0,001,2021-07-25_17h33.34.720,arrow_simon_norep,2021.1.2,MacIntel,59.84082341,,,,,,,,,,,,,,,,,,,,,,,,,,,,,,,,,,,,,,
,,,w,1,2.0906,0,0.746415123,#a3d0fb,,left_blue.png,w,9,2,38,2,1,w,left_blue.png,left_orange.png,q,left,60fcfac5e20edfa3acdc87e0,001,2021-07-25_17h33.34.720,arrow_simon_norep,2021.1.2,MacIntel,59.84082341,,,,,,,,,,,,,,,,,,,,,,,,,,,,,,,,,,,,,,
,,,q,1,1.538,0,0.722087864,#f3af84,,left_orange.png,q,9,3,39,2,1,w,left_blue.png,left_orange.png,q,left,60fcfac5e20edfa3acdc87e0,001,2021-07-25_17h33.34.720,arrow_simon_norep,2021.1.2,MacIntel,59.84082341,,,,,,,,,,,,,,,,,,,,,,,,,,,,,,,,,,,,,,
,,,o,1,1.874,0,0.593872222,#a3d0fb,,right_blue.png,o,10,0,40,1,1,o,right_blue.png,right_orange.png,p,right,60fcfac5e20edfa3acdc87e0,001,2021-07-25_17h33.34.720,arrow_simon_norep,2021.1.2,MacIntel,59.84082341,,,,,,,,,,,,,,,,,,,,,,,,,,,,,,,,,,,,,,
,,,q,1,1.5886,0,0.829576537,#f3af84,,left_orange.png,q,10,1,41,3,1,w,left_blue.png,left_orange.png,q,right,60fcfac5e20edfa3acdc87e0,001,2021-07-25_17h33.34.720,arrow_simon_norep,2021.1.2,MacIntel,59.84082341,,,,,,,,,,,,,,,,,,,,,,,,,,,,,,,,,,,,,,
,,,o,1,1.3244,0,0.400671056,#a3d0fb,,right_blue.png,o,10,2,42,0,1,o,right_blue.png,right_orange.png,p,left,60fcfac5e20edfa3acdc87e0,001,2021-07-25_17h33.34.720,arrow_simon_norep,2021.1.2,MacIntel,59.84082341,,,,,,,,,,,,,,,,,,,,,,,,,,,,,,,,,,,,,,
,,,q,1,0.9435,0,0.137433602,#f3af84,,left_orange.png,q,10,3,43,2,1,w,left_blue.png,left_orange.png,q,left,60fcfac5e20edfa3acdc87e0,001,2021-07-25_17h33.34.720,arrow_simon_norep,2021.1.2,MacIntel,59.84082341,,,,,,,,,,,,,,,,,,,,,,,,,,,,,,,,,,,,,,
,,,w,1,2.0953,0,0.938884621,#a3d0fb,,left_blue.png,w,11,0,44,3,1,w,left_blue.png,left_orange.png,q,right,60fcfac5e20edfa3acdc87e0,001,2021-07-25_17h33.34.720,arrow_simon_norep,2021.1.2,MacIntel,59.84082341,,,,,,,,,,,,,,,,,,,,,,,,,,,,,,,,,,,,,,
,,,p,1,1.5893,0,0.100109175,#f3af84,,right_orange.png,p,11,1,45,0,1,o,right_blue.png,right_orange.png,p,left,60fcfac5e20edfa3acdc87e0,001,2021-07-25_17h33.34.720,arrow_simon_norep,2021.1.2,MacIntel,59.84082341,,,,,,,,,,,,,,,,,,,,,,,,,,,,,,,,,,,,,,
,,,q,0,1.5069,1,0.695190109,#a3d0fb,,left_blue.png,w,11,2,46,2,1,w,left_blue.png,left_orange.png,q,left,60fcfac5e20edfa3acdc87e0,001,2021-07-25_17h33.34.720,arrow_simon_norep,2021.1.2,MacIntel,59.84082341,,,,,,,,,,,,,,,,,,,,,,,,,,,,,,,,,,,,,,
,,,p,1,2.9602,0,0.314575098,#f3af84,,right_orange.png,p,11,3,47,0,1,o,right_blue.png,right_orange.png,p,left,60fcfac5e20edfa3acdc87e0,001,2021-07-25_17h33.34.720,arrow_simon_norep,2021.1.2,MacIntel,59.84082341,,,,,,,,,,,,,,,,,,,,,,,,,,,,,,,,,,,,,,
,,,o,1,2.2804,0,0.311996562,#a3d0fb,,right_blue.png,o,12,0,48,0,1,o,right_blue.png,right_orange.png,p,left,60fcfac5e20edfa3acdc87e0,001,2021-07-25_17h33.34.720,arrow_simon_norep,2021.1.2,MacIntel,59.84082341,,,,,,,,,,,,,,,,,,,,,,,,,,,,,,,,,,,,,,
,,,q,1,1.6743,0,0.658409776,#f3af84,,left_orange.png,q,12,1,49,2,1,w,left_blue.png,left_orange.png,q,left,60fcfac5e20edfa3acdc87e0,001,2021-07-25_17h33.34.720,arrow_simon_norep,2021.1.2,MacIntel,59.84082341,,,,,,,,,,,,,,,,,,,,,,,,,,,,,,,,,,,,,,
,,,o,1,1.8487,0,0.603176091,#a3d0fb,,right_blue.png,o,12,2,50,1,1,o,right_blue.png,right_orange.png,p,right,60fcfac5e20edfa3acdc87e0,001,2021-07-25_17h33.34.720,arrow_simon_norep,2021.1.2,MacIntel,59.84082341,,,,,,,,,,,,,,,,,,,,,,,,,,,,,,,,,,,,,,
,,,q,1,3.2108,0,0.229211047,#f3af84,,left_orange.png,q,12,3,51,2,1,w,left_blue.png,left_orange.png,q,left,60fcfac5e20edfa3acdc87e0,001,2021-07-25_17h33.34.720,arrow_simon_norep,2021.1.2,MacIntel,59.84082341,,,,,,,,,,,,,,,,,,,,,,,,,,,,,,,,,,,,,,
,,,w,1,2.1604,0,0.694499644,#a3d0fb,,left_blue.png,w,13,0,52,3,1,w,left_blue.png,left_orange.png,q,right,60fcfac5e20edfa3acdc87e0,001,2021-07-25_17h33.34.720,arrow_simon_norep,2021.1.2,MacIntel,59.84082341,,,,,,,,,,,,,,,,,,,,,,,,,,,,,,,,,,,,,,
,,,p,1,1.8905,0,0.355576963,#f3af84,,right_orange.png,p,13,1,53,1,1,o,right_blue.png,right_orange.png,p,right,60fcfac5e20edfa3acdc87e0,001,2021-07-25_17h33.34.720,arrow_simon_norep,2021.1.2,MacIntel,59.84082341,,,,,,,,,,,,,,,,,,,,,,,,,,,,,,,,,,,,,,
,,,o,1,1.9137,0,0.376659407,#a3d0fb,,right_blue.png,o,13,2,54,1,1,o,right_blue.png,right_orange.png,p,right,60fcfac5e20edfa3acdc87e0,001,2021-07-25_17h33.34.720,arrow_simon_norep,2021.1.2,MacIntel,59.84082341,,,,,,,,,,,,,,,,,,,,,,,,,,,,,,,,,,,,,,
,,,p,1,1.2424,0,0.5790736,#f3af84,,right_orange.png,p,13,3,55,1,1,o,right_blue.png,right_orange.png,p,right,60fcfac5e20edfa3acdc87e0,001,2021-07-25_17h33.34.720,arrow_simon_norep,2021.1.2,MacIntel,59.84082341,,,,,,,,,,,,,,,,,,,,,,,,,,,,,,,,,,,,,,
,,,o,1,1.178,0,0.201220352,#a3d0fb,,right_blue.png,o,14,0,56,1,1,o,right_blue.png,right_orange.png,p,right,60fcfac5e20edfa3acdc87e0,001,2021-07-25_17h33.34.720,arrow_simon_norep,2021.1.2,MacIntel,59.84082341,,,,,,,,,,,,,,,,,,,,,,,,,,,,,,,,,,,,,,
,,,q,1,2.0907,0,0.333669528,#f3af84,,left_orange.png,q,14,1,57,3,1,w,left_blue.png,left_orange.png,q,right,60fcfac5e20edfa3acdc87e0,001,2021-07-25_17h33.34.720,arrow_simon_norep,2021.1.2,MacIntel,59.84082341,,,,,,,,,,,,,,,,,,,,,,,,,,,,,,,,,,,,,,
,,,w,1,1.6933,0,0.734924824,#a3d0fb,,left_blue.png,w,14,2,58,3,1,w,left_blue.png,left_orange.png,q,right,60fcfac5e20edfa3acdc87e0,001,2021-07-25_17h33.34.720,arrow_simon_norep,2021.1.2,MacIntel,59.84082341,,,,,,,,,,,,,,,,,,,,,,,,,,,,,,,,,,,,,,
,,,p,1,1.661,0,0.293625954,#f3af84,,right_orange.png,p,14,3,59,0,1,o,right_blue.png,right_orange.png,p,left,60fcfac5e20edfa3acdc87e0,001,2021-07-25_17h33.34.720,arrow_simon_norep,2021.1.2,MacIntel,59.84082341,,,,,,,,,,,,,,,,,,,,,,,,,,,,,,,,,,,,,,
,,,,,,,,,,,,,,,,,,,,,,60fcfac5e20edfa3acdc87e0,001,2021-07-25_17h33.34.720,arrow_simon_norep,2021.1.2,MacIntel,59.84082341,space,15.4789,1,0,1,0,1,,,,,,,,,,,,,,,,,,,,,,,,,,,,,,,
,,,,,,,,,,,,,,,,,,,,,,60fcfac5e20edfa3acdc87e0,001,2021-07-25_17h33.34.720,arrow_simon_norep,2021.1.2,MacIntel,59.84082341,,,,,,,,space,0,55.905,p,2.6159,0,0,0,0,1,,,,,,,,,,,,,,,,,,,,,
,,,,,,,,,,,,,,,,,,,,,,60fcfac5e20edfa3acdc87e0,001,2021-07-25_17h33.34.720,arrow_simon_norep,2021.1.2,MacIntel,59.84082341,,,,,,,,,,,p,2.95,1,0,1,0,1,,,,,,,,,,,,,,,,,,,,,
,,,,,,,,,,,,,,,,,,,,,,60fcfac5e20edfa3acdc87e0,001,2021-07-25_17h33.34.720,arrow_simon_norep,2021.1.2,MacIntel,59.84082341,,,,,,,,,,,p,2.2255,2,0,2,0,1,,,,,,,,,,,,,,,,,,,,,
,,,,,,,,,,,,,,,,,,,,,,60fcfac5e20edfa3acdc87e0,001,2021-07-25_17h33.34.720,arrow_simon_norep,2021.1.2,MacIntel,59.84082341,,,,,,,,,,,p,2.831,3,0,3,0,1,,,,,,,,,,,,,,,,,,,,,
,,,,,,,,,,,,,,,,,,,,,,60fcfac5e20edfa3acdc87e0,001,2021-07-25_17h33.34.720,arrow_simon_norep,2021.1.2,MacIntel,59.84082341,,,,,,,,,,,p,2.8442,4,0,4,0,1,,,,,,,,,,,,,,,,,,,,,
,,,,,,,,,,,,,,,,,,,,,,60fcfac5e20edfa3acdc87e0,001,2021-07-25_17h33.34.720,arrow_simon_norep,2021.1.2,MacIntel,59.84082341,,,,,,,,,,,p,2.776,5,0,5,0,1,,,,,,,,,,,,,,,,,,,,,
,,,,,,,,,,,,,,,,,,,,,,60fcfac5e20edfa3acdc87e0,001,2021-07-25_17h33.34.720,arrow_simon_norep,2021.1.2,MacIntel,59.84082341,,,,,,,,,,,p,2.3804,6,0,6,0,1,,,,,,,,,,,,,,,,,,,,,
,,,,,,,,,,,,,,,,,,,,,,60fcfac5e20edfa3acdc87e0,001,2021-07-25_17h33.34.720,arrow_simon_norep,2021.1.2,MacIntel,59.84082341,,,,,,,,,,,p,2.295,7,0,7,0,1,,,,,,,,,,,,,,,,,,,,,
,,,,,,,,,,,,,,,,,,,,,,60fcfac5e20edfa3acdc87e0,001,2021-07-25_17h33.34.720,arrow_simon_norep,2021.1.2,MacIntel,59.84082341,,,,,,,,,,,p,2.647,8,0,8,0,1,,,,,,,,,,,,,,,,,,,,,
,,,,,,,,,,,,,,,,,,,,,,60fcfac5e20edfa3acdc87e0,001,2021-07-25_17h33.34.720,arrow_simon_norep,2021.1.2,MacIntel,59.84082341,,,,,,,,,,,p,2.6254,9,0,9,0,1,,,,,,,,,,,,,,,,,,,,,
,,,,,,,,,,,,,,,,,,,,,,60fcfac5e20edfa3acdc87e0,001,2021-07-25_17h33.34.720,arrow_simon_norep,2021.1.2,MacIntel,59.84082341,,,,,,,,,,,p,2.7927,10,0,10,0,1,,,,,,,,,,,,,,,,,,,,,
,,,,,,,,,,,,,,,,,,,,,,60fcfac5e20edfa3acdc87e0,001,2021-07-25_17h33.34.720,arrow_simon_norep,2021.1.2,MacIntel,59.84082341,,,,,,,,,,,q,2.1761,11,0,11,0,1,,,,,,,,,,,,,,,,,,,,,
,,,,,,,,,,,,,,,,,,,,,,60fcfac5e20edfa3acdc87e0,001,2021-07-25_17h33.34.720,arrow_simon_norep,2021.1.2,MacIntel,59.84082341,,,,,,,,,,,q,2.529,12,0,12,0,1,,,,,,,,,,,,,,,,,,,,,
,,,,,,,,,,,,,,,,,,,,,,60fcfac5e20edfa3acdc87e0,001,2021-07-25_17h33.34.720,arrow_simon_norep,2021.1.2,MacIntel,59.84082341,,,,,,,,,,,q,2.5329,13,0,13,0,1,,,,,,,,,,,,,,,,,,,,,
,,,,,,,,,,,,,,,,,,,,,,60fcfac5e20edfa3acdc87e0,001,2021-07-25_17h33.34.720,arrow_simon_norep,2021.1.2,MacIntel,59.84082341,,,,,,,,,,,q,2.4596,14,0,14,0,1,,,,,,,,,,,,,,,,,,,,,
,,,,,,,,,,,,,,,,,,,,,,60fcfac5e20edfa3acdc87e0,001,2021-07-25_17h33.34.720,arrow_simon_norep,2021.1.2,MacIntel,59.84082341,,,,,,,,,,,q,2.5461,15,0,15,0,1,,,,,,,,,,,,,,,,,,,,,
,,,,,,,,,,,,,,,,,,,,,,60fcfac5e20edfa3acdc87e0,001,2021-07-25_17h33.34.720,arrow_simon_norep,2021.1.2,MacIntel,59.84082341,,,,,,,,,,,q,2.461,16,0,16,0,1,,,,,,,,,,,,,,,,,,,,,
,,,,,,,,,,,,,,,,,,,,,,60fcfac5e20edfa3acdc87e0,001,2021-07-25_17h33.34.720,arrow_simon_norep,2021.1.2,MacIntel,59.84082341,,,,,,,,,,,q,2.6428,17,0,17,0,1,,,,,,,,,,,,,,,,,,,,,
,,,,,,,,,,,,,,,,,,,,,,60fcfac5e20edfa3acdc87e0,001,2021-07-25_17h33.34.720,arrow_simon_norep,2021.1.2,MacIntel,59.84082341,,,,,,,,,,,q,2.5438,18,0,18,0,1,,,,,,,,,,,,,,,,,,,,,
,,,,,,,,,,,,,,,,,,,,,,60fcfac5e20edfa3acdc87e0,001,2021-07-25_17h33.34.720,arrow_simon_norep,2021.1.2,MacIntel,59.84082341,,,,,,,,,,,q,2.4447,19,0,19,0,1,,,,,,,,,,,,,,,,,,,,,
,,,,,,,,,,,,,,,,,,,,,,60fcfac5e20edfa3acdc87e0,001,2021-07-25_17h33.34.720,arrow_simon_norep,2021.1.2,MacIntel,59.84082341,,,,,,,,,,,q,2.4912,20,0,20,0,1,,,,,,,,,,,,,,,,,,,,,
,,,,,,,,,,,,,,,,,,,,,,60fcfac5e20edfa3acdc87e0,001,2021-07-25_17h33.34.720,arrow_simon_norep,2021.1.2,MacIntel,59.84082341,,,,,,,,,,,p,2.5437,21,0,21,0,1,,,,,,,,,,,,,,,,,,,,,
,,,,,,,,,,,,,,,,,,,,,,60fcfac5e20edfa3acdc87e0,001,2021-07-25_17h33.34.720,arrow_simon_norep,2021.1.2,MacIntel,59.84082341,,,,,,,,,,,o,2.4941,22,0,22,0,1,,,,,,,,,,,,,,,,,,,,,
,,,,,,,,,,,,,,,,,,,,,,60fcfac5e20edfa3acdc87e0,001,2021-07-25_17h33.34.720,arrow_simon_norep,2021.1.2,MacIntel,59.84082341,,,,,,,,,,,w,2.475,23,0,23,0,1,,,,,,,,,,,,,,,,,,,,,
,,,,,,,,,,,,,,,,,,,,,,60fcfac5e20edfa3acdc87e0,001,2021-07-25_17h33.34.720,arrow_simon_norep,2021.1.2,MacIntel,59.84082341,,,,,,,,,,,p,2.5758,24,0,24,0,1,,,,,,,,,,,,,,,,,,,,,
,,,,,,,,,,,,,,,,,,,,,,60fcfac5e20edfa3acdc87e0,001,2021-07-25_17h33.34.720,arrow_simon_norep,2021.1.2,MacIntel,59.84082341,,,,,,,,,,,p,2.4992,25,0,25,0,1,,,,,,,,,,,,,,,,,,,,,
,,,,,,,,,,,,,,,,,,,,,,60fcfac5e20edfa3acdc87e0,001,2021-07-25_17h33.34.720,arrow_simon_norep,2021.1.2,MacIntel,59.84082341,,,,,,,,,,,o,2.6008,26,0,26,0,1,,,,,,,,,,,,,,,,,,,,,
,,,,,,,,,,,,,,,,,,,,,,60fcfac5e20edfa3acdc87e0,001,2021-07-25_17h33.34.720,arrow_simon_norep,2021.1.2,MacIntel,59.84082341,,,,,,,,,,,p,2.5078,27,0,27,0,1,,,,,,,,,,,,,,,,,,,,,
,,,,,,,,,,,,,,,,,,,,,,60fcfac5e20edfa3acdc87e0,001,2021-07-25_17h33.34.720,arrow_simon_norep,2021.1.2,MacIntel,59.84082341,,,,,,,,,,,o,2.4278,28,0,28,0,1,,,,,,,,,,,,,,,,,,,,,
,,,,,,,,,,,,,,,,,,,,,,60fcfac5e20edfa3acdc87e0,001,2021-07-25_17h33.34.720,arrow_simon_norep,2021.1.2,MacIntel,59.84082341,,,,,,,,,,,p,2.5823,29,0,29,0,1,,,,,,,,,,,,,,,,,,,,,
,,,,,,,,,,,,,,,,,,,,,,60fcfac5e20edfa3acdc87e0,001,2021-07-25_17h33.34.720,arrow_simon_norep,2021.1.2,MacIntel,59.84082341,,,,,,,,,,,o,2.6075,30,0,30,0,1,,,,,,,,,,,,,,,,,,,,,
,,,,,,,,,,,,,,,,,,,,,,60fcfac5e20edfa3acdc87e0,001,2021-07-25_17h33.34.720,arrow_simon_norep,2021.1.2,MacIntel,59.84082341,,,,,,,,,,,p,2.2951,31,0,31,0,1,,,,,,,,,,,,,,,,,,,,,
,,,,,,,,,,,,,,,,,,,,,,60fcfac5e20edfa3acdc87e0,001,2021-07-25_17h33.34.720,arrow_simon_norep,2021.1.2,MacIntel,59.84082341,,,,,,,,,,,o,2.6084,32,0,32,0,1,,,,,,,,,,,,,,,,,,,,,
,,,,,,,,,,,,,,,,,,,,,,60fcfac5e20edfa3acdc87e0,001,2021-07-25_17h33.34.720,arrow_simon_norep,2021.1.2,MacIntel,59.84082341,,,,,,,,,,,p,2.4749,33,0,33,0,1,,,,,,,,,,,,,,,,,,,,,
,,,,,,,,,,,,,,,,,,,,,,60fcfac5e20edfa3acdc87e0,001,2021-07-25_17h33.34.720,arrow_simon_norep,2021.1.2,MacIntel,59.84082341,,,,,,,,,,,o,2.4578,34,0,34,0,1,,,,,,,,,,,,,,,,,,,,,
,,,,,,,,,,,,,,,,,,,,,,60fcfac5e20edfa3acdc87e0,001,2021-07-25_17h33.34.720,arrow_simon_norep,2021.1.2,MacIntel,59.84082341,,,,,,,,,,,p,2.3768,35,0,35,0,1,,,,,,,,,,,,,,,,,,,,,
,,,,,,,,,,,,,,,,,,,,,,60fcfac5e20edfa3acdc87e0,001,2021-07-25_17h33.34.720,arrow_simon_norep,2021.1.2,MacIntel,59.84082341,,,,,,,,,,,o,2.4542,36,0,36,0,1,,,,,,,,,,,,,,,,,,,,,
,,,,,,,,,,,,,,,,,,,,,,60fcfac5e20edfa3acdc87e0,001,2021-07-25_17h33.34.720,arrow_simon_norep,2021.1.2,MacIntel,59.84082341,,,,,,,,,,,p,2.5088,37,0,37,0,1,,,,,,,,,,,,,,,,,,,,,
,,,,,,,,,,,,,,,,,,,,,,60fcfac5e20edfa3acdc87e0,001,2021-07-25_17h33.34.720,arrow_simon_norep,2021.1.2,MacIntel,59.84082341,,,,,,,,,,,w,2.4082,38,0,38,0,1,,,,,,,,,,,,,,,,,,,,,
,,,,,,,,,,,,,,,,,,,,,,60fcfac5e20edfa3acdc87e0,001,2021-07-25_17h33.34.720,arrow_simon_norep,2021.1.2,MacIntel,59.84082341,,,,,,,,,,,q,2.5453,39,0,39,0,1,,,,,,,,,,,,,,,,,,,,,
,,,,,,,,,,,,,,,,,,,,,,60fcfac5e20edfa3acdc87e0,001,2021-07-25_17h33.34.720,arrow_simon_norep,2021.1.2,MacIntel,59.84082341,,,,,,,,,,,o,2.4424,40,0,40,0,1,,,,,,,,,,,,,,,,,,,,,
,,,,,,,,,,,,,,,,,,,,,,60fcfac5e20edfa3acdc87e0,001,2021-07-25_17h33.34.720,arrow_simon_norep,2021.1.2,MacIntel,59.84082341,,,,,,,,,,,p,2.5756,41,0,41,0,1,,,,,,,,,,,,,,,,,,,,,
,,,,,,,,,,,,,,,,,,,,,,60fcfac5e20edfa3acdc87e0,001,2021-07-25_17h33.34.720,arrow_simon_norep,2021.1.2,MacIntel,59.84082341,,,,,,,,,,,w,2.5411,42,0,42,0,1,,,,,,,,,,,,,,,,,,,,,
,,,,,,,,,,,,,,,,,,,,,,60fcfac5e20edfa3acdc87e0,001,2021-07-25_17h33.34.720,arrow_simon_norep,2021.1.2,MacIntel,59.84082341,,,,,,,,,,,q,2.6827,43,0,43,0,1,,,,,,,,,,,,,,,,,,,,,
,,,,,,,,,,,,,,,,,,,,,,60fcfac5e20edfa3acdc87e0,001,2021-07-25_17h33.34.720,arrow_simon_norep,2021.1.2,MacIntel,59.84082341,,,,,,,,,,,o,2.328,44,0,44,0,1,,,,,,,,,,,,,,,,,,,,,
,,,,,,,,,,,,,,,,,,,,,,60fcfac5e20edfa3acdc87e0,001,2021-07-25_17h33.34.720,arrow_simon_norep,2021.1.2,MacIntel,59.84082341,,,,,,,,,,,p,2.796,45,0,45,0,1,,,,,,,,,,,,,,,,,,,,,
,,,,,,,,,,,,,,,,,,,,,,60fcfac5e20edfa3acdc87e0,001,2021-07-25_17h33.34.720,arrow_simon_norep,2021.1.2,MacIntel,59.84082341,,,,,,,,,,,o,2.4303,46,0,46,0,1,,,,,,,,,,,,,,,,,,,,,
,,,,,,,,,,,,,,,,,,,,,,60fcfac5e20edfa3acdc87e0,001,2021-07-25_17h33.34.720,arrow_simon_norep,2021.1.2,MacIntel,59.84082341,,,,,,,,,,,q,2.4285,47,0,47,0,1,,,,,,,,,,,,,,,,,,,,,
,,,,,,,,,,,,,,,,,,,,,,60fcfac5e20edfa3acdc87e0,001,2021-07-25_17h33.34.720,arrow_simon_norep,2021.1.2,MacIntel,59.84082341,,,,,,,,,,,o,2.5171,48,0,48,0,1,,,,,,,,,,,,,,,,,,,,,
,,,,,,,,,,,,,,,,,,,,,,60fcfac5e20edfa3acdc87e0,001,2021-07-25_17h33.34.720,arrow_simon_norep,2021.1.2,MacIntel,59.84082341,,,,,,,,,,,p,2.6301,49,0,49,0,1,,,,,,,,,,,,,,,,,,,,,
,,,,,,,,,,,,,,,,,,,,,,60fcfac5e20edfa3acdc87e0,001,2021-07-25_17h33.34.720,arrow_simon_norep,2021.1.2,MacIntel,59.84082341,,,,,,,,,,,o,2.1925,50,0,50,0,1,,,,,,,,,,,,,,,,,,,,,
,,,,,,,,,,,,,,,,,,,,,,60fcfac5e20edfa3acdc87e0,001,2021-07-25_17h33.34.720,arrow_simon_norep,2021.1.2,MacIntel,59.84082341,,,,,,,,,,,p,2.3946,51,0,51,0,1,,,,,,,,,,,,,,,,,,,,,
,,,,,,,,,,,,,,,,,,,,,,60fcfac5e20edfa3acdc87e0,001,2021-07-25_17h33.34.720,arrow_simon_norep,2021.1.2,MacIntel,59.84082341,,,,,,,,,,,o,2.5919,52,0,52,0,1,,,,,,,,,,,,,,,,,,,,,
,,,,,,,,,,,,,,,,,,,,,,60fcfac5e20edfa3acdc87e0,001,2021-07-25_17h33.34.720,arrow_simon_norep,2021.1.2,MacIntel,59.84082341,,,,,,,,,,,p,2.4069,53,0,53,0,1,,,,,,,,,,,,,,,,,,,,,
,,,,,,,,,,,,,,,,,,,,,,60fcfac5e20edfa3acdc87e0,001,2021-07-25_17h33.34.720,arrow_simon_norep,2021.1.2,MacIntel,59.84082341,,,,,,,,,,,o,2.3892,54,0,54,0,1,,,,,,,,,,,,,,,,,,,,,
,,,,,,,,,,,,,,,,,,,,,,60fcfac5e20edfa3acdc87e0,001,2021-07-25_17h33.34.720,arrow_simon_norep,2021.1.2,MacIntel,59.84082341,,,,,,,,,,,p,2.5604,55,0,55,0,1,,,,,,,,,,,,,,,,,,,,,
,,,,,,,,,,,,,,,,,,,,,,60fcfac5e20edfa3acdc87e0,001,2021-07-25_17h33.34.720,arrow_simon_norep,2021.1.2,MacIntel,59.84082341,,,,,,,,,,,o,2.4144,56,0,56,0,1,,,,,,,,,,,,,,,,,,,,,
,,,,,,,,,,,,,,,,,,,,,,60fcfac5e20edfa3acdc87e0,001,2021-07-25_17h33.34.720,arrow_simon_norep,2021.1.2,MacIntel,59.84082341,,,,,,,,,,,p,2.5118,57,0,57,0,1,,,,,,,,,,,,,,,,,,,,,
,,,,,,,,,,,,,,,,,,,,,,60fcfac5e20edfa3acdc87e0,001,2021-07-25_17h33.34.720,arrow_simon_norep,2021.1.2,MacIntel,59.84082341,,,,,,,,,,,o,2.49,58,0,58,0,1,,,,,,,,,,,,,,,,,,,,,
,,,,,,,,,,,,,,,,,,,,,,60fcfac5e20edfa3acdc87e0,001,2021-07-25_17h33.34.720,arrow_simon_norep,2021.1.2,MacIntel,59.84082341,,,,,,,,,,,p,2.4432,59,0,59,0,1,,,,,,,,,,,,,,,,,,,,,
,,,,,,0,1.646418351,#a3d0fb,,right_blue.png,o,,,,,,o,right_blue.png,right_orange.png,p,right,60fcfac5e20edfa3acdc87e0,001,2021-07-25_17h33.34.720,arrow_simon_norep,2021.1.2,MacIntel,59.84082341,,,,,,,,,,,,,,,,,,space,0,64.4516,o,1,1.3893,1,FALSE,TRUE,0,0,0,1,1,,,,,,,
,,,,,,0,2.050363415,#f3af84,,left_orange.png,q,,,,,,w,left_blue.png,left_orange.png,q,right,60fcfac5e20edfa3acdc87e0,001,2021-07-25_17h33.34.720,arrow_simon_norep,2021.1.2,MacIntel,59.84082341,,,,,,,,,,,,,,,,,,,,,q,1,1.761,2,TRUE,FALSE,0,1,1,3,1,,,,,,,
,,,,,,0,1.669323043,#a3d0fb,,right_blue.png,o,,,,,,o,right_blue.png,right_orange.png,p,left,60fcfac5e20edfa3acdc87e0,001,2021-07-25_17h33.34.720,arrow_simon_norep,2021.1.2,MacIntel,59.84082341,,,,,,,,,,,,,,,,,,,,,o,1,1.7284,3,TRUE,FALSE,0,2,2,0,1,,,,,,,
,,,,,,0,1.819644573,#f3af84,,left_orange.png,q,,,,,,w,left_blue.png,left_orange.png,q,right,60fcfac5e20edfa3acdc87e0,001,2021-07-25_17h33.34.720,arrow_simon_norep,2021.1.2,MacIntel,59.84082341,,,,,,,,,,,,,,,,,,,,,q,1,1.6645,4,TRUE,FALSE,0,3,3,3,1,,,,,,,
,,,,,,0,2.229332005,#a3d0fb,,right_blue.png,o,,,,,,o,right_blue.png,right_orange.png,p,right,60fcfac5e20edfa3acdc87e0,001,2021-07-25_17h33.34.720,arrow_simon_norep,2021.1.2,MacIntel,59.84082341,,,,,,,,,,,,,,,,,,,,,p,0,1.8939,5,TRUE,FALSE,1,0,4,1,1,,,,,,,
,,,,,,0,1.537771524,#f3af84,,left_orange.png,q,,,,,,w,left_blue.png,left_orange.png,q,left,60fcfac5e20edfa3acdc87e0,001,2021-07-25_17h33.34.720,arrow_simon_norep,2021.1.2,MacIntel,59.84082341,,,,,,,,,,,,,,,,,,,,,w,0,1.3185,6,FALSE,TRUE,1,1,5,2,1,,,,,,,
,,,,,,0,1.600120243,#a3d0fb,,right_blue.png,o,,,,,,o,right_blue.png,right_orange.png,p,left,60fcfac5e20edfa3acdc87e0,001,2021-07-25_17h33.34.720,arrow_simon_norep,2021.1.2,MacIntel,59.84082341,,,,,,,,,,,,,,,,,,,,,o,1,1.3787,7,FALSE,TRUE,1,2,6,0,1,,,,,,,
,,,,,,0,2.268025723,#f3af84,,right_orange.png,p,,,,,,o,right_blue.png,right_orange.png,p,left,60fcfac5e20edfa3acdc87e0,001,2021-07-25_17h33.34.720,arrow_simon_norep,2021.1.2,MacIntel,59.84082341,,,,,,,,,,,,,,,,,,,,,p,1,2.346,8,TRUE,FALSE,1,3,7,0,1,,,,,,,
,,,,,,1,1.506284633,#a3d0fb,,left_blue.png,w,,,,,,w,left_blue.png,left_orange.png,q,left,60fcfac5e20edfa3acdc87e0,001,2021-07-25_17h33.34.720,arrow_simon_norep,2021.1.2,MacIntel,59.84082341,,,,,,,,,,,,,,,,,,,,,q,0,1.5638,9,FALSE,FALSE,2,0,8,2,1,,,,,,,
,,,,,,1,1.881419729,#f3af84,,right_orange.png,p,,,,,,o,right_blue.png,right_orange.png,p,right,60fcfac5e20edfa3acdc87e0,001,2021-07-25_17h33.34.720,arrow_simon_norep,2021.1.2,MacIntel,59.84082341,,,,,,,,,,,,,,,,,,,,,p,1,1.8448,10,TRUE,FALSE,2,1,9,1,1,,,,,,,
,,,,,,1,1.82833863,#a3d0fb,,left_blue.png,w,,,,,,w,left_blue.png,left_orange.png,q,right,60fcfac5e20edfa3acdc87e0,001,2021-07-25_17h33.34.720,arrow_simon_norep,2021.1.2,MacIntel,59.84082341,,,,,,,,,,,,,,,,,,,,,w,1,1.7769,11,TRUE,FALSE,2,2,10,3,1,,,,,,,
,,,,,,1,2.251715501,#f3af84,,right_orange.png,p,,,,,,o,right_blue.png,right_orange.png,p,left,60fcfac5e20edfa3acdc87e0,001,2021-07-25_17h33.34.720,arrow_simon_norep,2021.1.2,MacIntel,59.84082341,,,,,,,,,,,,,,,,,,,,,p,1,2.4316,12,TRUE,FALSE,2,3,11,0,1,,,,,,,
,,,,,,1,2.337330823,#a3d0fb,,right_blue.png,o,,,,,,o,right_blue.png,right_orange.png,p,right,60fcfac5e20edfa3acdc87e0,001,2021-07-25_17h33.34.720,arrow_simon_norep,2021.1.2,MacIntel,59.84082341,,,,,,,,,,,,,,,,,,,,,o,1,2.0433,13,TRUE,FALSE,3,0,12,1,1,,,,,,,
,,,,,,0,1.5859819,#f3af84,,right_orange.png,p,,,,,,o,right_blue.png,right_orange.png,p,left,60fcfac5e20edfa3acdc87e0,001,2021-07-25_17h33.34.720,arrow_simon_norep,2021.1.2,MacIntel,59.84082341,,,,,,,,,,,,,,,,,,,,,p,1,1.5113,14,FALSE,FALSE,3,1,13,0,1,,,,,,,
,,,,,,0,2.03714557,#a3d0fb,,left_blue.png,w,,,,,,w,left_blue.png,left_orange.png,q,right,60fcfac5e20edfa3acdc87e0,001,2021-07-25_17h33.34.720,arrow_simon_norep,2021.1.2,MacIntel,59.84082341,,,,,,,,,,,,,,,,,,,,,q,0,1.645,15,TRUE,FALSE,3,2,14,3,1,,,,,,,
,,,,,,0,2.084178571,#f3af84,,left_orange.png,q,,,,,,w,left_blue.png,left_orange.png,q,left,60fcfac5e20edfa3acdc87e0,001,2021-07-25_17h33.34.720,arrow_simon_norep,2021.1.2,MacIntel,59.84082341,,,,,,,,,,,,,,,,,,,,,q,1,1.7813,16,TRUE,FALSE,3,3,15,2,1,,,,,,,
,,,,,,0,2.338525056,#a3d0fb,,left_blue.png,w,,,,,,w,left_blue.png,left_orange.png,q,left,60fcfac5e20edfa3acdc87e0,001,2021-07-25_17h33.34.720,arrow_simon_norep,2021.1.2,MacIntel,59.84082341,,,,,,,,,,,,,,,,,,,,,q,0,1.8022,17,TRUE,FALSE,4,0,16,2,1,,,,,,,
,,,,,,0,1.614898805,#f3af84,,right_orange.png,p,,,,,,o,right_blue.png,right_orange.png,p,left,60fcfac5e20edfa3acdc87e0,001,2021-07-25_17h33.34.720,arrow_simon_norep,2021.1.2,MacIntel,59.84082341,,,,,,,,,,,,,,,,,,,,,p,1,1.5835,18,FALSE,FALSE,4,1,17,0,1,,,,,,,
,,,,,,0,1.623388097,#a3d0fb,,left_blue.png,w,,,,,,w,left_blue.png,left_orange.png,q,right,60fcfac5e20edfa3acdc87e0,001,2021-07-25_17h33.34.720,arrow_simon_norep,2021.1.2,MacIntel,59.84082341,,,,,,,,,,,,,,,,,,,,,w,1,1.6496,19,TRUE,FALSE,4,2,18,3,1,,,,,,,
,,,,,,0,1.714082348,#f3af84,,left_orange.png,q,,,,,,w,left_blue.png,left_orange.png,q,left,60fcfac5e20edfa3acdc87e0,001,2021-07-25_17h33.34.720,arrow_simon_norep,2021.1.2,MacIntel,59.84082341,,,,,,,,,,,,,,,,,,,,,q,1,1.5611,20,FALSE,FALSE,4,3,19,2,1,,,,,,,
,,,,,,0,1.731727084,#a3d0fb,,right_blue.png,o,,,,,,o,right_blue.png,right_orange.png,p,right,60fcfac5e20edfa3acdc87e0,001,2021-07-25_17h33.34.720,arrow_simon_norep,2021.1.2,MacIntel,59.84082341,,,,,,,,,,,,,,,,,,,,,o,1,1.7435,21,TRUE,FALSE,5,0,20,1,1,,,,,,,
,,,,,,0,2.418254025,#f3af84,,left_orange.png,q,,,,,,w,left_blue.png,left_orange.png,q,left,60fcfac5e20edfa3acdc87e0,001,2021-07-25_17h33.34.720,arrow_simon_norep,2021.1.2,MacIntel,59.84082341,,,,,,,,,,,,,,,,,,,,,w,0,1.8301,22,TRUE,FALSE,5,1,21,2,1,,,,,,,
,,,,,,0,1.901632252,#a3d0fb,,left_blue.png,w,,,,,,w,left_blue.png,left_orange.png,q,left,60fcfac5e20edfa3acdc87e0,001,2021-07-25_17h33.34.720,arrow_simon_norep,2021.1.2,MacIntel,59.84082341,,,,,,,,,,,,,,,,,,,,,w,1,1.5923,23,FALSE,FALSE,5,2,22,2,1,,,,,,,
,,,,,,0,1.575020159,#f3af84,,right_orange.png,p,,,,,,o,right_blue.png,right_orange.png,p,left,60fcfac5e20edfa3acdc87e0,001,2021-07-25_17h33.34.720,arrow_simon_norep,2021.1.2,MacIntel,59.84082341,,,,,,,,,,,,,,,,,,,,,p,1,1.5788,24,FALSE,FALSE,5,3,23,0,1,,,,,,,
,,,,,,0,2.498690829,#a3d0fb,,right_blue.png,o,,,,,,o,right_blue.png,right_orange.png,p,right,60fcfac5e20edfa3acdc87e0,001,2021-07-25_17h33.34.720,arrow_simon_norep,2021.1.2,MacIntel,59.84082341,,,,,,,,,,,,,,,,,,,,,o,1,2.148,25,TRUE,FALSE,6,0,24,1,1,,,,,,,
,,,,,,0,2.28409023,#f3af84,,left_orange.png,q,,,,,,w,left_blue.png,left_orange.png,q,left,60fcfac5e20edfa3acdc87e0,001,2021-07-25_17h33.34.720,arrow_simon_norep,2021.1.2,MacIntel,59.84082341,,,,,,,,,,,,,,,,,,,,,q,1,1.8477,26,TRUE,FALSE,6,1,25,2,1,,,,,,,
,,,,,,0,1.531646054,#a3d0fb,,right_blue.png,o,,,,,,o,right_blue.png,right_orange.png,p,right,60fcfac5e20edfa3acdc87e0,001,2021-07-25_17h33.34.720,arrow_simon_norep,2021.1.2,MacIntel,59.84082341,,,,,,,,,,,,,,,,,,,,,o,1,0.9472,27,FALSE,TRUE,6,2,26,1,1,,,,,,,
,,,,,,0,2.182343008,#f3af84,,left_orange.png,q,,,,,,w,left_blue.png,left_orange.png,q,right,60fcfac5e20edfa3acdc87e0,001,2021-07-25_17h33.34.720,arrow_simon_norep,2021.1.2,MacIntel,59.84082341,,,,,,,,,,,,,,,,,,,,,q,1,1.7631,28,TRUE,FALSE,6,3,27,3,1,,,,,,,
,,,,,,0,2.356535754,#a3d0fb,,right_blue.png,o,,,,,,o,right_blue.png,right_orange.png,p,left,60fcfac5e20edfa3acdc87e0,001,2021-07-25_17h33.34.720,arrow_simon_norep,2021.1.2,MacIntel,59.84082341,,,,,,,,,,,,,,,,,,,,,o,1,1.9158,29,TRUE,FALSE,7,0,28,0,1,,,,,,,
,,,,,,0,2.045056275,#f3af84,,left_orange.png,q,,,,,,w,left_blue.png,left_orange.png,q,right,60fcfac5e20edfa3acdc87e0,001,2021-07-25_17h33.34.720,arrow_simon_norep,2021.1.2,MacIntel,59.84082341,,,,,,,,,,,,,,,,,,,,,q,1,1.4595,30,FALSE,FALSE,7,1,29,3,1,,,,,,,
,,,,,,0,2.12203338,#a3d0fb,,left_blue.png,w,,,,,,w,left_blue.png,left_orange.png,q,left,60fcfac5e20edfa3acdc87e0,001,2021-07-25_17h33.34.720,arrow_simon_norep,2021.1.2,MacIntel,59.84082341,,,,,,,,,,,,,,,,,,,,,w,1,1.5581,31,FALSE,FALSE,7,2,30,2,1,,,,,,,
,,,,,,0,1.850747153,#f3af84,,right_orange.png,p,,,,,,o,right_blue.png,right_orange.png,p,right,60fcfac5e20edfa3acdc87e0,001,2021-07-25_17h33.34.720,arrow_simon_norep,2021.1.2,MacIntel,59.84082341,,,,,,,,,,,,,,,,,,,,,p,1,1.6106,32,TRUE,FALSE,7,3,31,1,1,,,,,,,
,,,,,,0,1.988912615,#a3d0fb,,left_blue.png,w,,,,,,w,left_blue.png,left_orange.png,q,left,60fcfac5e20edfa3acdc87e0,001,2021-07-25_17h33.34.720,arrow_simon_norep,2021.1.2,MacIntel,59.84082341,,,,,,,,,,,,,,,,,,,,,w,1,1.3601,33,FALSE,TRUE,8,0,32,2,1,,,,,,,
,,,,,,0,1.720549646,#f3af84,,right_orange.png,p,,,,,,o,right_blue.png,right_orange.png,p,left,60fcfac5e20edfa3acdc87e0,001,2021-07-25_17h33.34.720,arrow_simon_norep,2021.1.2,MacIntel,59.84082341,,,,,,,,,,,,,,,,,,,,,p,1,1.2342,34,FALSE,TRUE,8,1,33,0,1,,,,,,,
,,,,,,0,2.042195016,#a3d0fb,,left_blue.png,w,,,,,,w,left_blue.png,left_orange.png,q,right,60fcfac5e20edfa3acdc87e0,001,2021-07-25_17h33.34.720,arrow_simon_norep,2021.1.2,MacIntel,59.84082341,,,,,,,,,,,,,,,,,,,,,w,1,1.6304,35,TRUE,FALSE,8,2,34,3,1,,,,,,,
,,,,,,0,2.211039664,#f3af84,,left_orange.png,q,,,,,,w,left_blue.png,left_orange.png,q,right,60fcfac5e20edfa3acdc87e0,001,2021-07-25_17h33.34.720,arrow_simon_norep,2021.1.2,MacIntel,59.84082341,,,,,,,,,,,,,,,,,,,,,q,1,1.7622,36,TRUE,FALSE,8,3,35,3,1,,,,,,,
,,,,,,0,1.927198635,#a3d0fb,,left_blue.png,w,,,,,,w,left_blue.png,left_orange.png,q,left,60fcfac5e20edfa3acdc87e0,001,2021-07-25_17h33.34.720,arrow_simon_norep,2021.1.2,MacIntel,59.84082341,,,,,,,,,,,,,,,,,,,,,w,1,1.4616,37,FALSE,FALSE,9,0,36,2,1,,,,,,,
,,,,,,0,1.870899573,#f3af84,,right_orange.png,p,,,,,,o,right_blue.png,right_orange.png,p,right,60fcfac5e20edfa3acdc87e0,001,2021-07-25_17h33.34.720,arrow_simon_norep,2021.1.2,MacIntel,59.84082341,,,,,,,,,,,,,,,,,,,,,p,1,1.5651,38,FALSE,FALSE,9,1,37,1,1,,,,,,,
,,,,,,0,2.262123396,#a3d0fb,,left_blue.png,w,,,,,,w,left_blue.png,left_orange.png,q,right,60fcfac5e20edfa3acdc87e0,001,2021-07-25_17h33.34.720,arrow_simon_norep,2021.1.2,MacIntel,59.84082341,,,,,,,,,,,,,,,,,,,,,w,1,1.7448,39,TRUE,FALSE,9,2,38,3,1,,,,,,,
,,,,,,0,2.033468166,#f3af84,,right_orange.png,p,,,,,,o,right_blue.png,right_orange.png,p,right,60fcfac5e20edfa3acdc87e0,001,2021-07-25_17h33.34.720,arrow_simon_norep,2021.1.2,MacIntel,59.84082341,,,,,,,,,,,,,,,,,,,,,p,1,1.4951,40,FALSE,FALSE,9,3,39,1,1,,,,,,,
,,,,,,0,1.850325412,#a3d0fb,,left_blue.png,w,,,,,,w,left_blue.png,left_orange.png,q,right,60fcfac5e20edfa3acdc87e0,001,2021-07-25_17h33.34.720,arrow_simon_norep,2021.1.2,MacIntel,59.84082341,,,,,,,,,,,,,,,,,,,,,w,1,1.5798,41,FALSE,FALSE,10,0,40,3,1,,,,,,,
,,,,,,0,2.185887142,#f3af84,,right_orange.png,p,,,,,,o,right_blue.png,right_orange.png,p,left,60fcfac5e20edfa3acdc87e0,001,2021-07-25_17h33.34.720,arrow_simon_norep,2021.1.2,MacIntel,59.84082341,,,,,,,,,,,,,,,,,,,,,p,1,1.7277,42,TRUE,FALSE,10,1,41,0,1,,,,,,,
,,,,,,0,2.395967914,#a3d0fb,,right_blue.png,o,,,,,,o,right_blue.png,right_orange.png,p,right,60fcfac5e20edfa3acdc87e0,001,2021-07-25_17h33.34.720,arrow_simon_norep,2021.1.2,MacIntel,59.84082341,,,,,,,,,,,,,,,,,,,,,o,1,1.9832,43,TRUE,FALSE,10,2,42,1,1,,,,,,,
,,,,,,0,1.715521033,#f3af84,,left_orange.png,q,,,,,,w,left_blue.png,left_orange.png,q,right,60fcfac5e20edfa3acdc87e0,001,2021-07-25_17h33.34.720,arrow_simon_norep,2021.1.2,MacIntel,59.84082341,,,,,,,,,,,,,,,,,,,,,q,1,1.3821,44,FALSE,TRUE,10,3,43,3,1,,,,,,,
,,,,,,0,2.088426224,#a3d0fb,,left_blue.png,w,,,,,,w,left_blue.png,left_orange.png,q,left,60fcfac5e20edfa3acdc87e0,001,2021-07-25_17h33.34.720,arrow_simon_norep,2021.1.2,MacIntel,59.84082341,,,,,,,,,,,,,,,,,,,,,w,1,1.7301,45,TRUE,FALSE,11,0,44,2,1,,,,,,,
,,,,,,0,1.613836479,#f3af84,,right_orange.png,p,,,,,,o,right_blue.png,right_orange.png,p,right,60fcfac5e20edfa3acdc87e0,001,2021-07-25_17h33.34.720,arrow_simon_norep,2021.1.2,MacIntel,59.84082341,,,,,,,,,,,,,,,,,,,,,p,1,1.0082,46,FALSE,TRUE,11,1,45,1,1,,,,,,,
,,,,,,0,1.645224398,#a3d0fb,,right_blue.png,o,,,,,,o,right_blue.png,right_orange.png,p,right,60fcfac5e20edfa3acdc87e0,001,2021-07-25_17h33.34.720,arrow_simon_norep,2021.1.2,MacIntel,59.84082341,,,,,,,,,,,,,,,,,,,,,o,1,1.2417,47,FALSE,TRUE,11,2,46,1,1,,,,,,,
,,,,,,0,1.682117265,#f3af84,,right_orange.png,p,,,,,,o,right_blue.png,right_orange.png,p,left,60fcfac5e20edfa3acdc87e0,001,2021-07-25_17h33.34.720,arrow_simon_norep,2021.1.2,MacIntel,59.84082341,,,,,,,,,,,,,,,,,,,,,p,1,1.3929,48,FALSE,TRUE,11,3,47,0,1,,,,,,,
,,,,,,0,2.147754367,#a3d0fb,,right_blue.png,o,,,,,,o,right_blue.png,right_orange.png,p,left,60fcfac5e20edfa3acdc87e0,001,2021-07-25_17h33.34.720,arrow_simon_norep,2021.1.2,MacIntel,59.84082341,,,,,,,,,,,,,,,,,,,,,o,1,1.5926,49,FALSE,FALSE,12,0,48,0,1,,,,,,,
,,,,,,0,2.141128188,#f3af84,,right_orange.png,p,,,,,,o,right_blue.png,right_orange.png,p,right,60fcfac5e20edfa3acdc87e0,001,2021-07-25_17h33.34.720,arrow_simon_norep,2021.1.2,MacIntel,59.84082341,,,,,,,,,,,,,,,,,,,,,p,1,1.7272,50,TRUE,FALSE,12,1,49,1,1,,,,,,,
,,,,,,0,1.559633757,#a3d0fb,,right_blue.png,o,,,,,,o,right_blue.png,right_orange.png,p,right,60fcfac5e20edfa3acdc87e0,001,2021-07-25_17h33.34.720,arrow_simon_norep,2021.1.2,MacIntel,59.84082341,,,,,,,,,,,,,,,,,,,,,o,1,1.2277,51,FALSE,TRUE,12,2,50,1,1,,,,,,,
,,,,,,0,2.175280511,#f3af84,,left_orange.png,q,,,,,,w,left_blue.png,left_orange.png,q,left,60fcfac5e20edfa3acdc87e0,001,2021-07-25_17h33.34.720,arrow_simon_norep,2021.1.2,MacIntel,59.84082341,,,,,,,,,,,,,,,,,,,,,q,1,1.6143,52,TRUE,FALSE,12,3,51,2,1,,,,,,,
,,,,,,0,1.803386425,#a3d0fb,,right_blue.png,o,,,,,,o,right_blue.png,right_orange.png,p,left,60fcfac5e20edfa3acdc87e0,001,2021-07-25_17h33.34.720,arrow_simon_norep,2021.1.2,MacIntel,59.84082341,,,,,,,,,,,,,,,,,,,,,o,1,1.5515,53,FALSE,FALSE,13,0,52,0,1,,,,,,,
,,,,,,0,2.372703146,#f3af84,,left_orange.png,q,,,,,,w,left_blue.png,left_orange.png,q,right,60fcfac5e20edfa3acdc87e0,001,2021-07-25_17h33.34.720,arrow_simon_norep,2021.1.2,MacIntel,59.84082341,,,,,,,,,,,,,,,,,,,,,p,0,1.6692,54,TRUE,FALSE,13,1,53,3,1,,,,,,,
,,,,,,0,1.901658921,#a3d0fb,,right_blue.png,o,,,,,,o,right_blue.png,right_orange.png,p,left,60fcfac5e20edfa3acdc87e0,001,2021-07-25_17h33.34.720,arrow_simon_norep,2021.1.2,MacIntel,59.84082341,,,,,,,,,,,,,,,,,,,,,o,1,1.5602,55,FALSE,FALSE,13,2,54,0,1,,,,,,,
,,,,,,0,1.69192265,#f3af84,,left_orange.png,q,,,,,,w,left_blue.png,left_orange.png,q,right,60fcfac5e20edfa3acdc87e0,001,2021-07-25_17h33.34.720,arrow_simon_norep,2021.1.2,MacIntel,59.84082341,,,,,,,,,,,,,,,,,,,,,q,1,1.5766,56,FALSE,FALSE,13,3,55,3,1,,,,,,,
,,,,,,0,1.682283879,#a3d0fb,,left_blue.png,w,,,,,,w,left_blue.png,left_orange.png,q,right,60fcfac5e20edfa3acdc87e0,001,2021-07-25_17h33.34.720,arrow_simon_norep,2021.1.2,MacIntel,59.84082341,,,,,,,,,,,,,,,,,,,,,w,1,1.629,57,TRUE,FALSE,14,0,56,3,1,,,,,,,
,,,,,,0,1.502279229,#f3af84,,right_orange.png,p,,,,,,o,right_blue.png,right_orange.png,p,left,60fcfac5e20edfa3acdc87e0,001,2021-07-25_17h33.34.720,arrow_simon_norep,2021.1.2,MacIntel,59.84082341,,,,,,,,,,,,,,,,,,,,,p,1,1.4543,58,FALSE,FALSE,14,1,57,0,1,,,,,,,
,,,,,,0,2.093504225,#a3d0fb,,left_blue.png,w,,,,,,w,left_blue.png,left_orange.png,q,left,60fcfac5e20edfa3acdc87e0,001,2021-07-25_17h33.34.720,arrow_simon_norep,2021.1.2,MacIntel,59.84082341,,,,,,,,,,,,,,,,,,,,,w,1,1.7489,59,TRUE,FALSE,14,2,58,2,1,,,,,,,
,,,,,,0,2.298458897,#f3af84,,left_orange.png,q,,,,,,w,left_blue.png,left_orange.png,q,left,60fcfac5e20edfa3acdc87e0,001,2021-07-25_17h33.34.720,arrow_simon_norep,2021.1.2,MacIntel,59.84082341,,,,,,,,,,,,,,,,,,,,,q,1,1.5823,60,FALSE,FALSE,14,3,59,2,1,,,,,,,
,,,,,,,,,,,,,,,,,,,,,,60fcfac5e20edfa3acdc87e0,001,2021-07-25_17h33.34.720,arrow_simon_norep,2021.1.2,MacIntel,59.84082341,,,,,,,,,,,,,,,,,,,,,,,,,,,,,,,,space,46.5964,0,0,0,0,1
,,,,,,0,1.605321174,#a3d0fb,,right_blue.png,o,,,,,,o,right_blue.png,right_orange.png,p,left,60fcfac5e20edfa3acdc87e0,001,2021-07-25_17h33.34.720,arrow_simon_norep,2021.1.2,MacIntel,59.84082341,,,,,,,,,,,,,,,,,,,,,o,1,1.1415,1,FALSE,TRUE,0,0,0,0,1,,,,,,,
,,,,,,0,1.666972156,#f3af84,,right_orange.png,p,,,,,,o,right_blue.png,right_orange.png,p,right,60fcfac5e20edfa3acdc87e0,001,2021-07-25_17h33.34.720,arrow_simon_norep,2021.1.2,MacIntel,59.84082341,,,,,,,,,,,,,,,,,,,,,p,1,1.2488,2,FALSE,TRUE,0,1,1,1,1,,,,,,,
,,,,,,0,2.14743922,#a3d0fb,,left_blue.png,w,,,,,,w,left_blue.png,left_orange.png,q,left,60fcfac5e20edfa3acdc87e0,001,2021-07-25_17h33.34.720,arrow_simon_norep,2021.1.2,MacIntel,59.84082341,,,,,,,,,,,,,,,,,,,,,w,1,1.7353,3,TRUE,FALSE,0,2,2,2,1,,,,,,,
,,,,,,0,1.518177604,#f3af84,,left_orange.png,q,,,,,,w,left_blue.png,left_orange.png,q,right,60fcfac5e20edfa3acdc87e0,001,2021-07-25_17h33.34.720,arrow_simon_norep,2021.1.2,MacIntel,59.84082341,,,,,,,,,,,,,,,,,,,,,q,1,1.2242,4,FALSE,TRUE,0,3,3,3,1,,,,,,,
,,,,,,0,1.835233186,#a3d0fb,,right_blue.png,o,,,,,,o,right_blue.png,right_orange.png,p,left,60fcfac5e20edfa3acdc87e0,001,2021-07-25_17h33.34.720,arrow_simon_norep,2021.1.2,MacIntel,59.84082341,,,,,,,,,,,,,,,,,,,,,o,1,1.3318,5,FALSE,TRUE,1,0,4,0,1,,,,,,,
,,,,,,0,2.142945594,#f3af84,,right_orange.png,p,,,,,,o,right_blue.png,right_orange.png,p,right,60fcfac5e20edfa3acdc87e0,001,2021-07-25_17h33.34.720,arrow_simon_norep,2021.1.2,MacIntel,59.84082341,,,,,,,,,,,,,,,,,,,,,p,1,1.6952,6,TRUE,FALSE,1,1,5,1,1,,,,,,,
,,,,,,0,2.085380012,#a3d0fb,,right_blue.png,o,,,,,,o,right_blue.png,right_orange.png,p,left,60fcfac5e20edfa3acdc87e0,001,2021-07-25_17h33.34.720,arrow_simon_norep,2021.1.2,MacIntel,59.84082341,,,,,,,,,,,,,,,,,,,,,o,1,1.6954,7,TRUE,FALSE,1,2,6,0,1,,,,,,,
,,,,,,1,2.343929065,#f3af84,,right_orange.png,p,,,,,,o,right_blue.png,right_orange.png,p,left,60fcfac5e20edfa3acdc87e0,001,2021-07-25_17h33.34.720,arrow_simon_norep,2021.1.2,MacIntel,59.84082341,,,,,,,,,,,,,,,,,,,,,q,0,1.5751,8,FALSE,FALSE,1,3,7,0,1,,,,,,,
,,,,,,1,2.027427456,#a3d0fb,,right_blue.png,o,,,,,,o,right_blue.png,right_orange.png,p,right,60fcfac5e20edfa3acdc87e0,001,2021-07-25_17h33.34.720,arrow_simon_norep,2021.1.2,MacIntel,59.84082341,,,,,,,,,,,,,,,,,,,,,o,1,1.601,9,TRUE,FALSE,2,0,8,1,1,,,,,,,
,,,,,,1,1.771274939,#f3af84,,right_orange.png,p,,,,,,o,right_blue.png,right_orange.png,p,right,60fcfac5e20edfa3acdc87e0,001,2021-07-25_17h33.34.720,arrow_simon_norep,2021.1.2,MacIntel,59.84082341,,,,,,,,,,,,,,,,,,,,,p,1,1.3251,10,FALSE,TRUE,2,1,9,1,1,,,,,,,
,,,,,,0,2.099552402,#a3d0fb,,left_blue.png,w,,,,,,w,left_blue.png,left_orange.png,q,left,60fcfac5e20edfa3acdc87e0,001,2021-07-25_17h33.34.720,arrow_simon_norep,2021.1.2,MacIntel,59.84082341,,,,,,,,,,,,,,,,,,,,,w,1,1.5957,11,FALSE,FALSE,2,2,10,2,1,,,,,,,
,,,,,,0,1.969093196,#f3af84,,left_orange.png,q,,,,,,w,left_blue.png,left_orange.png,q,right,60fcfac5e20edfa3acdc87e0,001,2021-07-25_17h33.34.720,arrow_simon_norep,2021.1.2,MacIntel,59.84082341,,,,,,,,,,,,,,,,,,,,,q,1,1.5938,12,FALSE,FALSE,2,3,11,3,1,,,,,,,
,,,,,,0,2.296974694,#a3d0fb,,right_blue.png,o,,,,,,o,right_blue.png,right_orange.png,p,left,60fcfac5e20edfa3acdc87e0,001,2021-07-25_17h33.34.720,arrow_simon_norep,2021.1.2,MacIntel,59.84082341,,,,,,,,,,,,,,,,,,,,,o,1,1.865,13,TRUE,FALSE,3,0,12,0,1,,,,,,,
,,,,,,0,2.40167208,#f3af84,,left_orange.png,q,,,,,,w,left_blue.png,left_orange.png,q,left,60fcfac5e20edfa3acdc87e0,001,2021-07-25_17h33.34.720,arrow_simon_norep,2021.1.2,MacIntel,59.84082341,,,,,,,,,,,,,,,,,,,,,w,0,1.7611,14,TRUE,FALSE,3,1,13,2,1,,,,,,,
,,,,,,0,2.191242927,#a3d0fb,,right_blue.png,o,,,,,,o,right_blue.png,right_orange.png,p,left,60fcfac5e20edfa3acdc87e0,001,2021-07-25_17h33.34.720,arrow_simon_norep,2021.1.2,MacIntel,59.84082341,,,,,,,,,,,,,,,,,,,,,o,1,1.695,15,TRUE,FALSE,3,2,14,0,1,,,,,,,
,,,,,,0,1.692311025,#f3af84,,left_orange.png,q,,,,,,w,left_blue.png,left_orange.png,q,right,60fcfac5e20edfa3acdc87e0,001,2021-07-25_17h33.34.720,arrow_simon_norep,2021.1.2,MacIntel,59.84082341,,,,,,,,,,,,,,,,,,,,,q,1,1.4932,16,FALSE,FALSE,3,3,15,3,1,,,,,,,
,,,,,,0,1.552542394,#a3d0fb,,left_blue.png,w,,,,,,w,left_blue.png,left_orange.png,q,left,60fcfac5e20edfa3acdc87e0,001,2021-07-25_17h33.34.720,arrow_simon_norep,2021.1.2,MacIntel,59.84082341,,,,,,,,,,,,,,,,,,,,,w,1,1.3973,17,FALSE,TRUE,4,0,16,2,1,,,,,,,
,,,,,,0,1.536402015,#f3af84,,left_orange.png,q,,,,,,w,left_blue.png,left_orange.png,q,right,60fcfac5e20edfa3acdc87e0,001,2021-07-25_17h33.34.720,arrow_simon_norep,2021.1.2,MacIntel,59.84082341,,,,,,,,,,,,,,,,,,,,,q,1,1.3744,18,FALSE,TRUE,4,1,17,3,1,,,,,,,
,,,,,,0,2.025504889,#a3d0fb,,left_blue.png,w,,,,,,w,left_blue.png,left_orange.png,q,left,60fcfac5e20edfa3acdc87e0,001,2021-07-25_17h33.34.720,arrow_simon_norep,2021.1.2,MacIntel,59.84082341,,,,,,,,,,,,,,,,,,,,,w,1,1.623,19,TRUE,FALSE,4,2,18,2,1,,,,,,,
,,,,,,0,1.924400556,#f3af84,,right_orange.png,p,,,,,,o,right_blue.png,right_orange.png,p,left,60fcfac5e20edfa3acdc87e0,001,2021-07-25_17h33.34.720,arrow_simon_norep,2021.1.2,MacIntel,59.84082341,,,,,,,,,,,,,,,,,,,,,p,1,1.5083,20,FALSE,FALSE,4,3,19,0,1,,,,,,,
,,,,,,0,2.130898038,#a3d0fb,,right_blue.png,o,,,,,,o,right_blue.png,right_orange.png,p,right,60fcfac5e20edfa3acdc87e0,001,2021-07-25_17h33.34.720,arrow_simon_norep,2021.1.2,MacIntel,59.84082341,,,,,,,,,,,,,,,,,,,,,o,1,1.7449,21,TRUE,FALSE,5,0,20,1,1,,,,,,,
,,,,,,0,1.579489498,#f3af84,,right_orange.png,p,,,,,,o,right_blue.png,right_orange.png,p,left,60fcfac5e20edfa3acdc87e0,001,2021-07-25_17h33.34.720,arrow_simon_norep,2021.1.2,MacIntel,59.84082341,,,,,,,,,,,,,,,,,,,,,p,1,1.4107,22,FALSE,FALSE,5,1,21,0,1,,,,,,,
,,,,,,1,2.191410013,#a3d0fb,,right_blue.png,o,,,,,,o,right_blue.png,right_orange.png,p,right,60fcfac5e20edfa3acdc87e0,001,2021-07-25_17h33.34.720,arrow_simon_norep,2021.1.2,MacIntel,59.84082341,,,,,,,,,,,,,,,,,,,,,w,0,1.5971,23,FALSE,FALSE,5,2,22,1,1,,,,,,,
,,,,,,1,2.259091833,#f3af84,,left_orange.png,q,,,,,,w,left_blue.png,left_orange.png,q,left,60fcfac5e20edfa3acdc87e0,001,2021-07-25_17h33.34.720,arrow_simon_norep,2021.1.2,MacIntel,59.84082341,,,,,,,,,,,,,,,,,,,,,q,1,1.7108,24,TRUE,FALSE,5,3,23,2,1,,,,,,,
,,,,,,0,1.771431147,#a3d0fb,,left_blue.png,w,,,,,,w,left_blue.png,left_orange.png,q,left,60fcfac5e20edfa3acdc87e0,001,2021-07-25_17h33.34.720,arrow_simon_norep,2021.1.2,MacIntel,59.84082341,,,,,,,,,,,,,,,,,,,,,w,1,1.4008,25,FALSE,FALSE,6,0,24,2,1,,,,,,,
,,,,,,0,2.0426749,#f3af84,,right_orange.png,p,,,,,,o,right_blue.png,right_orange.png,p,right,60fcfac5e20edfa3acdc87e0,001,2021-07-25_17h33.34.720,arrow_simon_norep,2021.1.2,MacIntel,59.84082341,,,,,,,,,,,,,,,,,,,,,p,1,1.4939,26,FALSE,FALSE,6,1,25,1,1,,,,,,,
,,,,,,0,1.738943375,#a3d0fb,,right_blue.png,o,,,,,,o,right_blue.png,right_orange.png,p,right,60fcfac5e20edfa3acdc87e0,001,2021-07-25_17h33.34.720,arrow_simon_norep,2021.1.2,MacIntel,59.84082341,,,,,,,,,,,,,,,,,,,,,o,1,1.3836,27,FALSE,TRUE,6,2,26,1,1,,,,,,,
,,,,,,0,1.928445917,#f3af84,,left_orange.png,q,,,,,,w,left_blue.png,left_orange.png,q,left,60fcfac5e20edfa3acdc87e0,001,2021-07-25_17h33.34.720,arrow_simon_norep,2021.1.2,MacIntel,59.84082341,,,,,,,,,,,,,,,,,,,,,q,1,1.6312,28,TRUE,FALSE,6,3,27,2,1,,,,,,,
,,,,,,0,2.291710524,#a3d0fb,,right_blue.png,o,,,,,,o,right_blue.png,right_orange.png,p,right,60fcfac5e20edfa3acdc87e0,001,2021-07-25_17h33.34.720,arrow_simon_norep,2021.1.2,MacIntel,59.84082341,,,,,,,,,,,,,,,,,,,,,o,1,1.6139,29,TRUE,FALSE,7,0,28,1,1,,,,,,,
,,,,,,0,1.658889244,#f3af84,,left_orange.png,q,,,,,,w,left_blue.png,left_orange.png,q,left,60fcfac5e20edfa3acdc87e0,001,2021-07-25_17h33.34.720,arrow_simon_norep,2021.1.2,MacIntel,59.84082341,,,,,,,,,,,,,,,,,,,,,q,1,1.2945,30,FALSE,TRUE,7,1,29,2,1,,,,,,,
,,,,,,0,1.90278186,#a3d0fb,,right_blue.png,o,,,,,,o,right_blue.png,right_orange.png,p,right,60fcfac5e20edfa3acdc87e0,001,2021-07-25_17h33.34.720,arrow_simon_norep,2021.1.2,MacIntel,59.84082341,,,,,,,,,,,,,,,,,,,,,o,1,1.3581,31,FALSE,TRUE,7,2,30,1,1,,,,,,,
,,,,,,1,2.21413956,#f3af84,,left_orange.png,q,,,,,,w,left_blue.png,left_orange.png,q,right,60fcfac5e20edfa3acdc87e0,001,2021-07-25_17h33.34.720,arrow_simon_norep,2021.1.2,MacIntel,59.84082341,,,,,,,,,,,,,,,,,,,,,p,0,1.5101,32,FALSE,FALSE,7,3,31,3,1,,,,,,,
,,,,,,0,1.798179438,#a3d0fb,,right_blue.png,o,,,,,,o,right_blue.png,right_orange.png,p,right,60fcfac5e20edfa3acdc87e0,001,2021-07-25_17h33.34.720,arrow_simon_norep,2021.1.2,MacIntel,59.84082341,,,,,,,,,,,,,,,,,,,,,o,1,1.5624,33,FALSE,FALSE,8,0,32,1,1,,,,,,,
,,,,,,0,1.859069298,#f3af84,,left_orange.png,q,,,,,,w,left_blue.png,left_orange.png,q,right,60fcfac5e20edfa3acdc87e0,001,2021-07-25_17h33.34.720,arrow_simon_norep,2021.1.2,MacIntel,59.84082341,,,,,,,,,,,,,,,,,,,,,q,1,1.4485,34,FALSE,FALSE,8,1,33,3,1,,,,,,,
,,,,,,0,1.781103407,#a3d0fb,,left_blue.png,w,,,,,,w,left_blue.png,left_orange.png,q,left,60fcfac5e20edfa3acdc87e0,001,2021-07-25_17h33.34.720,arrow_simon_norep,2021.1.2,MacIntel,59.84082341,,,,,,,,,,,,,,,,,,,,,w,1,1.3277,35,FALSE,TRUE,8,2,34,2,1,,,,,,,
,,,,,,0,1.974629596,#f3af84,,left_orange.png,q,,,,,,w,left_blue.png,left_orange.png,q,left,60fcfac5e20edfa3acdc87e0,001,2021-07-25_17h33.34.720,arrow_simon_norep,2021.1.2,MacIntel,59.84082341,,,,,,,,,,,,,,,,,,,,,q,1,1.5946,36,FALSE,FALSE,8,3,35,2,1,,,,,,,
,,,,,,0,2.313111512,#a3d0fb,,right_blue.png,o,,,,,,o,right_blue.png,right_orange.png,p,right,60fcfac5e20edfa3acdc87e0,001,2021-07-25_17h33.34.720,arrow_simon_norep,2021.1.2,MacIntel,59.84082341,,,,,,,,,,,,,,,,,,,,,o,1,1.5996,37,FALSE,FALSE,9,0,36,1,1,,,,,,,
,,,,,,0,1.917823128,#f3af84,,right_orange.png,p,,,,,,o,right_blue.png,right_orange.png,p,right,60fcfac5e20edfa3acdc87e0,001,2021-07-25_17h33.34.720,arrow_simon_norep,2021.1.2,MacIntel,59.84082341,,,,,,,,,,,,,,,,,,,,,p,1,1.6142,38,TRUE,FALSE,9,1,37,1,1,,,,,,,
,,,,,,0,2.320403929,#a3d0fb,,right_blue.png,o,,,,,,o,right_blue.png,right_orange.png,p,left,60fcfac5e20edfa3acdc87e0,001,2021-07-25_17h33.34.720,arrow_simon_norep,2021.1.2,MacIntel,59.84082341,,,,,,,,,,,,,,,,,,,,,w,0,1.6638,39,TRUE,FALSE,9,2,38,0,1,,,,,,,
,,,,,,0,1.5601285,#f3af84,,right_orange.png,p,,,,,,o,right_blue.png,right_orange.png,p,right,60fcfac5e20edfa3acdc87e0,001,2021-07-25_17h33.34.720,arrow_simon_norep,2021.1.2,MacIntel,59.84082341,,,,,,,,,,,,,,,,,,,,,p,1,1.4818,40,FALSE,FALSE,9,3,39,1,1,,,,,,,
,,,,,,0,2.3993595,#a3d0fb,,right_blue.png,o,,,,,,o,right_blue.png,right_orange.png,p,left,60fcfac5e20edfa3acdc87e0,001,2021-07-25_17h33.34.720,arrow_simon_norep,2021.1.2,MacIntel,59.84082341,,,,,,,,,,,,,,,,,,,,,w,0,1.7266,41,TRUE,FALSE,10,0,40,0,1,,,,,,,
,,,,,,0,1.550619695,#f3af84,,left_orange.png,q,,,,,,w,left_blue.png,left_orange.png,q,right,60fcfac5e20edfa3acdc87e0,001,2021-07-25_17h33.34.720,arrow_simon_norep,2021.1.2,MacIntel,59.84082341,,,,,,,,,,,,,,,,,,,,,q,1,1.5455,42,FALSE,FALSE,10,1,41,3,1,,,,,,,
,,,,,,0,2.336311876,#a3d0fb,,right_blue.png,o,,,,,,o,right_blue.png,right_orange.png,p,left,60fcfac5e20edfa3acdc87e0,001,2021-07-25_17h33.34.720,arrow_simon_norep,2021.1.2,MacIntel,59.84082341,,,,,,,,,,,,,,,,,,,,,o,1,1.7138,43,TRUE,FALSE,10,2,42,0,1,,,,,,,
,,,,,,0,2.36768025,#f3af84,,right_orange.png,p,,,,,,o,right_blue.png,right_orange.png,p,left,60fcfac5e20edfa3acdc87e0,001,2021-07-25_17h33.34.720,arrow_simon_norep,2021.1.2,MacIntel,59.84082341,,,,,,,,,,,,,,,,,,,,,p,1,1.6949,44,TRUE,FALSE,10,3,43,0,1,,,,,,,
,,,,,,0,1.831989639,#a3d0fb,,left_blue.png,w,,,,,,w,left_blue.png,left_orange.png,q,left,60fcfac5e20edfa3acdc87e0,001,2021-07-25_17h33.34.720,arrow_simon_norep,2021.1.2,MacIntel,59.84082341,,,,,,,,,,,,,,,,,,,,,q,0,1.3781,45,FALSE,TRUE,11,0,44,2,1,,,,,,,
,,,,,,0,1.912707814,#f3af84,,left_orange.png,q,,,,,,w,left_blue.png,left_orange.png,q,right,60fcfac5e20edfa3acdc87e0,001,2021-07-25_17h33.34.720,arrow_simon_norep,2021.1.2,MacIntel,59.84082341,,,,,,,,,,,,,,,,,,,,,w,0,1.714,46,TRUE,FALSE,11,1,45,3,1,,,,,,,
,,,,,,0,1.861298249,#a3d0fb,,left_blue.png,w,,,,,,w,left_blue.png,left_orange.png,q,right,60fcfac5e20edfa3acdc87e0,001,2021-07-25_17h33.34.720,arrow_simon_norep,2021.1.2,MacIntel,59.84082341,,,,,,,,,,,,,,,,,,,,,w,1,1.5294,47,FALSE,FALSE,11,2,46,3,1,,,,,,,
,,,,,,0,1.875282017,#f3af84,,left_orange.png,q,,,,,,w,left_blue.png,left_orange.png,q,right,60fcfac5e20edfa3acdc87e0,001,2021-07-25_17h33.34.720,arrow_simon_norep,2021.1.2,MacIntel,59.84082341,,,,,,,,,,,,,,,,,,,,,q,1,1.3742,48,FALSE,TRUE,11,3,47,3,1,,,,,,,
,,,,,,0,2.128161515,#a3d0fb,,left_blue.png,w,,,,,,w,left_blue.png,left_orange.png,q,right,60fcfac5e20edfa3acdc87e0,001,2021-07-25_17h33.34.720,arrow_simon_norep,2021.1.2,MacIntel,59.84082341,,,,,,,,,,,,,,,,,,,,,o,0,1.6976,49,TRUE,FALSE,12,0,48,3,1,,,,,,,
,,,,,,0,1.957577136,#f3af84,,left_orange.png,q,,,,,,w,left_blue.png,left_orange.png,q,left,60fcfac5e20edfa3acdc87e0,001,2021-07-25_17h33.34.720,arrow_simon_norep,2021.1.2,MacIntel,59.84082341,,,,,,,,,,,,,,,,,,,,,q,1,1.6112,50,TRUE,FALSE,12,1,49,2,1,,,,,,,
,,,,,,0,1.911546999,#a3d0fb,,left_blue.png,w,,,,,,w,left_blue.png,left_orange.png,q,left,60fcfac5e20edfa3acdc87e0,001,2021-07-25_17h33.34.720,arrow_simon_norep,2021.1.2,MacIntel,59.84082341,,,,,,,,,,,,,,,,,,,,,q,0,1.72,51,TRUE,FALSE,12,2,50,2,1,,,,,,,
,,,,,,0,1.754039595,#f3af84,,left_orange.png,q,,,,,,w,left_blue.png,left_orange.png,q,right,60fcfac5e20edfa3acdc87e0,001,2021-07-25_17h33.34.720,arrow_simon_norep,2021.1.2,MacIntel,59.84082341,,,,,,,,,,,,,,,,,,,,,p,0,1.3428,52,FALSE,TRUE,12,3,51,3,1,,,,,,,
,,,,,,0,1.660603541,#a3d0fb,,left_blue.png,w,,,,,,w,left_blue.png,left_orange.png,q,left,60fcfac5e20edfa3acdc87e0,001,2021-07-25_17h33.34.720,arrow_simon_norep,2021.1.2,MacIntel,59.84082341,,,,,,,,,,,,,,,,,,,,,w,1,1.0522,53,FALSE,TRUE,13,0,52,2,1,,,,,,,
,,,,,,0,1.55669818,#f3af84,,left_orange.png,q,,,,,,w,left_blue.png,left_orange.png,q,right,60fcfac5e20edfa3acdc87e0,001,2021-07-25_17h33.34.720,arrow_simon_norep,2021.1.2,MacIntel,59.84082341,,,,,,,,,,,,,,,,,,,,,q,1,1.2135,54,FALSE,TRUE,13,1,53,3,1,,,,,,,
,,,,,,0,1.642707835,#a3d0fb,,left_blue.png,w,,,,,,w,left_blue.png,left_orange.png,q,right,60fcfac5e20edfa3acdc87e0,001,2021-07-25_17h33.34.720,arrow_simon_norep,2021.1.2,MacIntel,59.84082341,,,,,,,,,,,,,,,,,,,,,w,1,1.5744,55,FALSE,FALSE,13,2,54,3,1,,,,,,,
,,,,,,0,2.333122235,#f3af84,,right_orange.png,p,,,,,,o,right_blue.png,right_orange.png,p,left,60fcfac5e20edfa3acdc87e0,001,2021-07-25_17h33.34.720,arrow_simon_norep,2021.1.2,MacIntel,59.84082341,,,,,,,,,,,,,,,,,,,,,p,1,1.9616,56,TRUE,FALSE,13,3,55,0,1,,,,,,,
,,,,,,0,1.92723966,#a3d0fb,,right_blue.png,o,,,,,,o,right_blue.png,right_orange.png,p,left,60fcfac5e20edfa3acdc87e0,001,2021-07-25_17h33.34.720,arrow_simon_norep,2021.1.2,MacIntel,59.84082341,,,,,,,,,,,,,,,,,,,,,o,1,1.3121,57,FALSE,TRUE,14,0,56,0,1,,,,,,,
,,,,,,0,1.923899136,#f3af84,,right_orange.png,p,,,,,,o,right_blue.png,right_orange.png,p,right,60fcfac5e20edfa3acdc87e0,001,2021-07-25_17h33.34.720,arrow_simon_norep,2021.1.2,MacIntel,59.84082341,,,,,,,,,,,,,,,,,,,,,p,1,1.6469,58,TRUE,FALSE,14,1,57,1,1,,,,,,,
,,,,,,0,2.093632187,#a3d0fb,,right_blue.png,o,,,,,,o,right_blue.png,right_orange.png,p,left,60fcfac5e20edfa3acdc87e0,001,2021-07-25_17h33.34.720,arrow_simon_norep,2021.1.2,MacIntel,59.84082341,,,,,,,,,,,,,,,,,,,,,o,1,1.7303,59,TRUE,FALSE,14,2,58,0,1,,,,,,,
,,,,,,0,1.640556057,#f3af84,,left_orange.png,q,,,,,,w,left_blue.png,left_orange.png,q,right,60fcfac5e20edfa3acdc87e0,001,2021-07-25_17h33.34.720,arrow_simon_norep,2021.1.2,MacIntel,59.84082341,,,,,,,,,,,,,,,,,,,,,q,1,1.5167,60,FALSE,FALSE,14,3,59,3,1,,,,,,,
,,,,,,,,,,,,,,,,,,,,,,60fcfac5e20edfa3acdc87e0,001,2021-07-25_17h33.34.720,arrow_simon_norep,2021.1.2,MacIntel,59.84082341,,,,,,,,,,,,,,,,,,,,,,,,,,,,,,,,space,20.6087,1,0,1,0,1
,,,,,,1,1.727351504,#a3d0fb,,right_blue.png,o,,,,,,o,right_blue.png,right_orange.png,p,right,60fcfac5e20edfa3acdc87e0,001,2021-07-25_17h33.34.720,arrow_simon_norep,2021.1.2,MacIntel,59.84082341,,,,,,,,,,,,,,,,,,,,,p,0,1.4417,1,FALSE,FALSE,0,0,0,1,1,,,,,,,
,,,,,,1,2.226826589,#f3af84,,right_orange.png,p,,,,,,o,right_blue.png,right_orange.png,p,left,60fcfac5e20edfa3acdc87e0,001,2021-07-25_17h33.34.720,arrow_simon_norep,2021.1.2,MacIntel,59.84082341,,,,,,,,,,,,,,,,,,,,,p,1,1.777,2,TRUE,FALSE,0,1,1,0,1,,,,,,,
,,,,,,1,2.157597621,#a3d0fb,,right_blue.png,o,,,,,,o,right_blue.png,right_orange.png,p,left,60fcfac5e20edfa3acdc87e0,001,2021-07-25_17h33.34.720,arrow_simon_norep,2021.1.2,MacIntel,59.84082341,,,,,,,,,,,,,,,,,,,,,o,1,1.6292,3,TRUE,FALSE,0,2,2,0,1,,,,,,,
,,,,,,1,1.528317724,#f3af84,,right_orange.png,p,,,,,,o,right_blue.png,right_orange.png,p,right,60fcfac5e20edfa3acdc87e0,001,2021-07-25_17h33.34.720,arrow_simon_norep,2021.1.2,MacIntel,59.84082341,,,,,,,,,,,,,,,,,,,,,p,1,1.3912,4,FALSE,TRUE,0,3,3,1,1,,,,,,,
,,,,,,0,1.50855575,#a3d0fb,,right_blue.png,o,,,,,,o,right_blue.png,right_orange.png,p,right,60fcfac5e20edfa3acdc87e0,001,2021-07-25_17h33.34.720,arrow_simon_norep,2021.1.2,MacIntel,59.84082341,,,,,,,,,,,,,,,,,,,,,o,1,1.4527,5,FALSE,FALSE,1,0,4,1,1,,,,,,,
,,,,,,0,1.950401759,#f3af84,,right_orange.png,p,,,,,,o,right_blue.png,right_orange.png,p,left,60fcfac5e20edfa3acdc87e0,001,2021-07-25_17h33.34.720,arrow_simon_norep,2021.1.2,MacIntel,59.84082341,,,,,,,,,,,,,,,,,,,,,p,1,1.6704,6,TRUE,FALSE,1,1,5,0,1,,,,,,,
,,,,,,0,1.658167622,#a3d0fb,,left_blue.png,w,,,,,,w,left_blue.png,left_orange.png,q,right,60fcfac5e20edfa3acdc87e0,001,2021-07-25_17h33.34.720,arrow_simon_norep,2021.1.2,MacIntel,59.84082341,,,,,,,,,,,,,,,,,,,,,w,1,1.4078,7,FALSE,FALSE,1,2,6,3,1,,,,,,,
,,,,,,0,1.852129142,#f3af84,,left_orange.png,q,,,,,,w,left_blue.png,left_orange.png,q,right,60fcfac5e20edfa3acdc87e0,001,2021-07-25_17h33.34.720,arrow_simon_norep,2021.1.2,MacIntel,59.84082341,,,,,,,,,,,,,,,,,,,,,q,1,1.5351,8,FALSE,FALSE,1,3,7,3,1,,,,,,,
,,,,,,0,1.650034613,#a3d0fb,,right_blue.png,o,,,,,,o,right_blue.png,right_orange.png,p,left,60fcfac5e20edfa3acdc87e0,001,2021-07-25_17h33.34.720,arrow_simon_norep,2021.1.2,MacIntel,59.84082341,,,,,,,,,,,,,,,,,,,,,o,1,1.484,9,FALSE,FALSE,2,0,8,0,1,,,,,,,
,,,,,,0,1.762004501,#f3af84,,right_orange.png,p,,,,,,o,right_blue.png,right_orange.png,p,left,60fcfac5e20edfa3acdc87e0,001,2021-07-25_17h33.34.720,arrow_simon_norep,2021.1.2,MacIntel,59.84082341,,,,,,,,,,,,,,,,,,,,,p,1,1.5884,10,FALSE,FALSE,2,1,9,0,1,,,,,,,
,,,,,,0,1.698331982,#a3d0fb,,left_blue.png,w,,,,,,w,left_blue.png,left_orange.png,q,left,60fcfac5e20edfa3acdc87e0,001,2021-07-25_17h33.34.720,arrow_simon_norep,2021.1.2,MacIntel,59.84082341,,,,,,,,,,,,,,,,,,,,,w,1,1.4119,11,FALSE,FALSE,2,2,10,2,1,,,,,,,
,,,,,,0,1.838626687,#f3af84,,right_orange.png,p,,,,,,o,right_blue.png,right_orange.png,p,right,60fcfac5e20edfa3acdc87e0,001,2021-07-25_17h33.34.720,arrow_simon_norep,2021.1.2,MacIntel,59.84082341,,,,,,,,,,,,,,,,,,,,,p,1,1.6263,12,TRUE,FALSE,2,3,11,1,1,,,,,,,
,,,,,,0,2.363078161,#a3d0fb,,left_blue.png,w,,,,,,w,left_blue.png,left_orange.png,q,right,60fcfac5e20edfa3acdc87e0,001,2021-07-25_17h33.34.720,arrow_simon_norep,2021.1.2,MacIntel,59.84082341,,,,,,,,,,,,,,,,,,,,,w,1,1.7651,13,TRUE,FALSE,3,0,12,3,1,,,,,,,
,,,,,,0,2.130124319,#f3af84,,left_orange.png,q,,,,,,w,left_blue.png,left_orange.png,q,left,60fcfac5e20edfa3acdc87e0,001,2021-07-25_17h33.34.720,arrow_simon_norep,2021.1.2,MacIntel,59.84082341,,,,,,,,,,,,,,,,,,,,,q,1,1.6466,14,TRUE,FALSE,3,1,13,2,1,,,,,,,
,,,,,,0,2.489934466,#a3d0fb,,right_blue.png,o,,,,,,o,right_blue.png,right_orange.png,p,right,60fcfac5e20edfa3acdc87e0,001,2021-07-25_17h33.34.720,arrow_simon_norep,2021.1.2,MacIntel,59.84082341,,,,,,,,,,,,,,,,,,,,,o,1,1.7669,15,TRUE,FALSE,3,2,14,1,1,,,,,,,
,,,,,,1,2.204105543,#f3af84,,right_orange.png,p,,,,,,o,right_blue.png,right_orange.png,p,left,60fcfac5e20edfa3acdc87e0,001,2021-07-25_17h33.34.720,arrow_simon_norep,2021.1.2,MacIntel,59.84082341,,,,,,,,,,,,,,,,,,,,,q,0,1.514,16,FALSE,FALSE,3,3,15,0,1,,,,,,,
,,,,,,1,1.978961921,#a3d0fb,,left_blue.png,w,,,,,,w,left_blue.png,left_orange.png,q,left,60fcfac5e20edfa3acdc87e0,001,2021-07-25_17h33.34.720,arrow_simon_norep,2021.1.2,MacIntel,59.84082341,,,,,,,,,,,,,,,,,,,,,q,0,1.4629,17,FALSE,FALSE,4,0,16,2,1,,,,,,,
,,,,,,1,1.726257268,#f3af84,,right_orange.png,p,,,,,,o,right_blue.png,right_orange.png,p,left,60fcfac5e20edfa3acdc87e0,001,2021-07-25_17h33.34.720,arrow_simon_norep,2021.1.2,MacIntel,59.84082341,,,,,,,,,,,,,,,,,,,,,p,1,1.3439,18,FALSE,TRUE,4,1,17,0,1,,,,,,,
,,,,,,1,2.194762495,#a3d0fb,,left_blue.png,w,,,,,,w,left_blue.png,left_orange.png,q,right,60fcfac5e20edfa3acdc87e0,001,2021-07-25_17h33.34.720,arrow_simon_norep,2021.1.2,MacIntel,59.84082341,,,,,,,,,,,,,,,,,,,,,o,0,1.4769,19,FALSE,FALSE,4,2,18,3,1,,,,,,,
,,,,,,1,2.372608325,#f3af84,,left_orange.png,q,,,,,,w,left_blue.png,left_orange.png,q,left,60fcfac5e20edfa3acdc87e0,001,2021-07-25_17h33.34.720,arrow_simon_norep,2021.1.2,MacIntel,59.84082341,,,,,,,,,,,,,,,,,,,,,q,1,1.6767,20,TRUE,FALSE,4,3,19,2,1,,,,,,,
,,,,,,1,2.196957534,#a3d0fb,,left_blue.png,w,,,,,,w,left_blue.png,left_orange.png,q,right,60fcfac5e20edfa3acdc87e0,001,2021-07-25_17h33.34.720,arrow_simon_norep,2021.1.2,MacIntel,59.84082341,,,,,,,,,,,,,,,,,,,,,o,0,1.4948,21,FALSE,FALSE,5,0,20,3,1,,,,,,,
,,,,,,1,2.439898162,#f3af84,,left_orange.png,q,,,,,,w,left_blue.png,left_orange.png,q,left,60fcfac5e20edfa3acdc87e0,001,2021-07-25_17h33.34.720,arrow_simon_norep,2021.1.2,MacIntel,59.84082341,,,,,,,,,,,,,,,,,,,,,q,1,1.7306,22,TRUE,FALSE,5,1,21,2,1,,,,,,,
,,,,,,1,1.55192669,#a3d0fb,,right_blue.png,o,,,,,,o,right_blue.png,right_orange.png,p,left,60fcfac5e20edfa3acdc87e0,001,2021-07-25_17h33.34.720,arrow_simon_norep,2021.1.2,MacIntel,59.84082341,,,,,,,,,,,,,,,,,,,,,o,1,1.1739,23,FALSE,TRUE,5,2,22,0,1,,,,,,,
,,,,,,1,2.021272279,#f3af84,,left_orange.png,q,,,,,,w,left_blue.png,left_orange.png,q,right,60fcfac5e20edfa3acdc87e0,001,2021-07-25_17h33.34.720,arrow_simon_norep,2021.1.2,MacIntel,59.84082341,,,,,,,,,,,,,,,,,,,,,p,0,1.3616,24,FALSE,TRUE,5,3,23,3,1,,,,,,,
,,,,,,1,2.297032192,#a3d0fb,,left_blue.png,w,,,,,,w,left_blue.png,left_orange.png,q,right,60fcfac5e20edfa3acdc87e0,001,2021-07-25_17h33.34.720,arrow_simon_norep,2021.1.2,MacIntel,59.84082341,,,,,,,,,,,,,,,,,,,,,w,1,1.7328,25,TRUE,FALSE,6,0,24,3,1,,,,,,,
,,,,,,0,1.508753848,#f3af84,,left_orange.png,q,,,,,,w,left_blue.png,left_orange.png,q,left,60fcfac5e20edfa3acdc87e0,001,2021-07-25_17h33.34.720,arrow_simon_norep,2021.1.2,MacIntel,59.84082341,,,,,,,,,,,,,,,,,,,,,q,1,1.4642,26,FALSE,FALSE,6,1,25,2,1,,,,,,,
,,,,,,0,1.994876143,#a3d0fb,,left_blue.png,w,,,,,,w,left_blue.png,left_orange.png,q,right,60fcfac5e20edfa3acdc87e0,001,2021-07-25_17h33.34.720,arrow_simon_norep,2021.1.2,MacIntel,59.84082341,,,,,,,,,,,,,,,,,,,,,w,1,1.578,27,FALSE,FALSE,6,2,26,3,1,,,,,,,
,,,,,,0,2.295174048,#f3af84,,left_orange.png,q,,,,,,w,left_blue.png,left_orange.png,q,left,60fcfac5e20edfa3acdc87e0,001,2021-07-25_17h33.34.720,arrow_simon_norep,2021.1.2,MacIntel,59.84082341,,,,,,,,,,,,,,,,,,,,,q,1,1.6292,28,TRUE,FALSE,6,3,27,2,1,,,,,,,
,,,,,,0,1.676252126,#a3d0fb,,left_blue.png,w,,,,,,w,left_blue.png,left_orange.png,q,right,60fcfac5e20edfa3acdc87e0,001,2021-07-25_17h33.34.720,arrow_simon_norep,2021.1.2,MacIntel,59.84082341,,,,,,,,,,,,,,,,,,,,,w,1,1.5439,29,FALSE,FALSE,7,0,28,3,1,,,,,,,
,,,,,,0,2.437721802,#f3af84,,right_orange.png,p,,,,,,o,right_blue.png,right_orange.png,p,right,60fcfac5e20edfa3acdc87e0,001,2021-07-25_17h33.34.720,arrow_simon_norep,2021.1.2,MacIntel,59.84082341,,,,,,,,,,,,,,,,,,,,,p,1,1.9269,30,TRUE,FALSE,7,1,29,1,1,,,,,,,
,,,,,,1,2.181723262,#a3d0fb,,right_blue.png,o,,,,,,o,right_blue.png,right_orange.png,p,right,60fcfac5e20edfa3acdc87e0,001,2021-07-25_17h33.34.720,arrow_simon_norep,2021.1.2,MacIntel,59.84082341,,,,,,,,,,,,,,,,,,,,,w,0,1.4609,31,FALSE,FALSE,7,2,30,1,1,,,,,,,
,,,,,,1,1.514619252,#f3af84,,right_orange.png,p,,,,,,o,right_blue.png,right_orange.png,p,right,60fcfac5e20edfa3acdc87e0,001,2021-07-25_17h33.34.720,arrow_simon_norep,2021.1.2,MacIntel,59.84082341,,,,,,,,,,,,,,,,,,,,,p,1,1.2296,32,FALSE,TRUE,7,3,31,1,1,,,,,,,
,,,,,,1,1.6420652,#a3d0fb,,right_blue.png,o,,,,,,o,right_blue.png,right_orange.png,p,right,60fcfac5e20edfa3acdc87e0,001,2021-07-25_17h33.34.720,arrow_simon_norep,2021.1.2,MacIntel,59.84082341,,,,,,,,,,,,,,,,,,,,,o,1,1.0999,33,FALSE,TRUE,8,0,32,1,1,,,,,,,
,,,,,,1,1.999347288,#f3af84,,right_orange.png,p,,,,,,o,right_blue.png,right_orange.png,p,left,60fcfac5e20edfa3acdc87e0,001,2021-07-25_17h33.34.720,arrow_simon_norep,2021.1.2,MacIntel,59.84082341,,,,,,,,,,,,,,,,,,,,,p,1,1.6011,34,TRUE,FALSE,8,1,33,0,1,,,,,,,
,,,,,,0,2.239095983,#a3d0fb,,right_blue.png,o,,,,,,o,right_blue.png,right_orange.png,p,right,60fcfac5e20edfa3acdc87e0,001,2021-07-25_17h33.34.720,arrow_simon_norep,2021.1.2,MacIntel,59.84082341,,,,,,,,,,,,,,,,,,,,,o,1,1.5982,35,FALSE,FALSE,8,2,34,1,1,,,,,,,
,,,,,,0,1.814519473,#f3af84,,right_orange.png,p,,,,,,o,right_blue.png,right_orange.png,p,right,60fcfac5e20edfa3acdc87e0,001,2021-07-25_17h33.34.720,arrow_simon_norep,2021.1.2,MacIntel,59.84082341,,,,,,,,,,,,,,,,,,,,,p,1,1.631,36,TRUE,FALSE,8,3,35,1,1,,,,,,,
,,,,,,0,1.503227112,#a3d0fb,,left_blue.png,w,,,,,,w,left_blue.png,left_orange.png,q,right,60fcfac5e20edfa3acdc87e0,001,2021-07-25_17h33.34.720,arrow_simon_norep,2021.1.2,MacIntel,59.84082341,,,,,,,,,,,,,,,,,,,,,w,1,1.5188,37,FALSE,FALSE,9,0,36,3,1,,,,,,,
,,,,,,0,1.900935065,#f3af84,,left_orange.png,q,,,,,,w,left_blue.png,left_orange.png,q,right,60fcfac5e20edfa3acdc87e0,001,2021-07-25_17h33.34.720,arrow_simon_norep,2021.1.2,MacIntel,59.84082341,,,,,,,,,,,,,,,,,,,,,q,1,1.5703,38,FALSE,FALSE,9,1,37,3,1,,,,,,,
,,,,,,0,2.466945589,#a3d0fb,,left_blue.png,w,,,,,,w,left_blue.png,left_orange.png,q,right,60fcfac5e20edfa3acdc87e0,001,2021-07-25_17h33.34.720,arrow_simon_norep,2021.1.2,MacIntel,59.84082341,,,,,,,,,,,,,,,,,,,,,w,1,1.6769,39,TRUE,FALSE,9,2,38,3,1,,,,,,,
,,,,,,0,2.041186033,#f3af84,,right_orange.png,p,,,,,,o,right_blue.png,right_orange.png,p,left,60fcfac5e20edfa3acdc87e0,001,2021-07-25_17h33.34.720,arrow_simon_norep,2021.1.2,MacIntel,59.84082341,,,,,,,,,,,,,,,,,,,,,p,1,1.6463,40,TRUE,FALSE,9,3,39,0,1,,,,,,,
,,,,,,0,2.043594598,#a3d0fb,,right_blue.png,o,,,,,,o,right_blue.png,right_orange.png,p,right,60fcfac5e20edfa3acdc87e0,001,2021-07-25_17h33.34.720,arrow_simon_norep,2021.1.2,MacIntel,59.84082341,,,,,,,,,,,,,,,,,,,,,o,1,1.6292,41,TRUE,FALSE,10,0,40,1,1,,,,,,,
,,,,,,0,1.844548233,#f3af84,,left_orange.png,q,,,,,,w,left_blue.png,left_orange.png,q,right,60fcfac5e20edfa3acdc87e0,001,2021-07-25_17h33.34.720,arrow_simon_norep,2021.1.2,MacIntel,59.84082341,,,,,,,,,,,,,,,,,,,,,q,1,1.5302,42,FALSE,FALSE,10,1,41,3,1,,,,,,,
,,,,,,0,1.932073366,#a3d0fb,,left_blue.png,w,,,,,,w,left_blue.png,left_orange.png,q,left,60fcfac5e20edfa3acdc87e0,001,2021-07-25_17h33.34.720,arrow_simon_norep,2021.1.2,MacIntel,59.84082341,,,,,,,,,,,,,,,,,,,,,w,1,1.2774,43,FALSE,TRUE,10,2,42,2,1,,,,,,,
,,,,,,0,1.8456875,#f3af84,,right_orange.png,p,,,,,,o,right_blue.png,right_orange.png,p,left,60fcfac5e20edfa3acdc87e0,001,2021-07-25_17h33.34.720,arrow_simon_norep,2021.1.2,MacIntel,59.84082341,,,,,,,,,,,,,,,,,,,,,p,1,1.8969,44,TRUE,FALSE,10,3,43,0,1,,,,,,,
,,,,,,0,1.742325712,#a3d0fb,,left_blue.png,w,,,,,,w,left_blue.png,left_orange.png,q,left,60fcfac5e20edfa3acdc87e0,001,2021-07-25_17h33.34.720,arrow_simon_norep,2021.1.2,MacIntel,59.84082341,,,,,,,,,,,,,,,,,,,,,w,1,1.4591,45,FALSE,FALSE,11,0,44,2,1,,,,,,,
,,,,,,0,2.405874052,#f3af84,,left_orange.png,q,,,,,,w,left_blue.png,left_orange.png,q,right,60fcfac5e20edfa3acdc87e0,001,2021-07-25_17h33.34.720,arrow_simon_norep,2021.1.2,MacIntel,59.84082341,,,,,,,,,,,,,,,,,,,,,p,0,1.6304,46,TRUE,FALSE,11,1,45,3,1,,,,,,,
,,,,,,0,2.43019638,#a3d0fb,,right_blue.png,o,,,,,,o,right_blue.png,right_orange.png,p,left,60fcfac5e20edfa3acdc87e0,001,2021-07-25_17h33.34.720,arrow_simon_norep,2021.1.2,MacIntel,59.84082341,,,,,,,,,,,,,,,,,,,,,w,0,1.6949,47,TRUE,FALSE,11,2,46,0,1,,,,,,,
,,,,,,0,1.950682984,#f3af84,,left_orange.png,q,,,,,,w,left_blue.png,left_orange.png,q,left,60fcfac5e20edfa3acdc87e0,001,2021-07-25_17h33.34.720,arrow_simon_norep,2021.1.2,MacIntel,59.84082341,,,,,,,,,,,,,,,,,,,,,q,1,1.6628,48,TRUE,FALSE,11,3,47,2,1,,,,,,,
,,,,,,0,2.021040541,#a3d0fb,,left_blue.png,w,,,,,,w,left_blue.png,left_orange.png,q,left,60fcfac5e20edfa3acdc87e0,001,2021-07-25_17h33.34.720,arrow_simon_norep,2021.1.2,MacIntel,59.84082341,,,,,,,,,,,,,,,,,,,,,w,1,1.5463,49,FALSE,FALSE,12,0,48,2,1,,,,,,,
,,,,,,0,2.143756487,#f3af84,,right_orange.png,p,,,,,,o,right_blue.png,right_orange.png,p,left,60fcfac5e20edfa3acdc87e0,001,2021-07-25_17h33.34.720,arrow_simon_norep,2021.1.2,MacIntel,59.84082341,,,,,,,,,,,,,,,,,,,,,p,1,1.6638,50,TRUE,FALSE,12,1,49,0,1,,,,,,,
,,,,,,0,1.5492672,#a3d0fb,,right_blue.png,o,,,,,,o,right_blue.png,right_orange.png,p,left,60fcfac5e20edfa3acdc87e0,001,2021-07-25_17h33.34.720,arrow_simon_norep,2021.1.2,MacIntel,59.84082341,,,,,,,,,,,,,,,,,,,,,o,1,1.4145,51,FALSE,FALSE,12,2,50,0,1,,,,,,,
,,,,,,0,2.056596031,#f3af84,,left_orange.png,q,,,,,,w,left_blue.png,left_orange.png,q,left,60fcfac5e20edfa3acdc87e0,001,2021-07-25_17h33.34.720,arrow_simon_norep,2021.1.2,MacIntel,59.84082341,,,,,,,,,,,,,,,,,,,,,q,1,1.6861,52,TRUE,FALSE,12,3,51,2,1,,,,,,,
,,,,,,0,1.88386296,#a3d0fb,,right_blue.png,o,,,,,,o,right_blue.png,right_orange.png,p,left,60fcfac5e20edfa3acdc87e0,001,2021-07-25_17h33.34.720,arrow_simon_norep,2021.1.2,MacIntel,59.84082341,,,,,,,,,,,,,,,,,,,,,w,0,1.225,53,FALSE,TRUE,13,0,52,0,1,,,,,,,
,,,,,,0,1.87821505,#f3af84,,left_orange.png,q,,,,,,w,left_blue.png,left_orange.png,q,left,60fcfac5e20edfa3acdc87e0,001,2021-07-25_17h33.34.720,arrow_simon_norep,2021.1.2,MacIntel,59.84082341,,,,,,,,,,,,,,,,,,,,,q,1,1.5097,54,FALSE,FALSE,13,1,53,2,1,,,,,,,
,,,,,,0,2.282882768,#a3d0fb,,left_blue.png,w,,,,,,w,left_blue.png,left_orange.png,q,right,60fcfac5e20edfa3acdc87e0,001,2021-07-25_17h33.34.720,arrow_simon_norep,2021.1.2,MacIntel,59.84082341,,,,,,,,,,,,,,,,,,,,,o,0,1.6105,55,TRUE,FALSE,13,2,54,3,1,,,,,,,
,,,,,,0,2.185190393,#f3af84,,right_orange.png,p,,,,,,o,right_blue.png,right_orange.png,p,right,60fcfac5e20edfa3acdc87e0,001,2021-07-25_17h33.34.720,arrow_simon_norep,2021.1.2,MacIntel,59.84082341,,,,,,,,,,,,,,,,,,,,,p,1,1.4849,56,FALSE,FALSE,13,3,55,1,1,,,,,,,
,,,,,,0,1.609285629,#a3d0fb,,right_blue.png,o,,,,,,o,right_blue.png,right_orange.png,p,right,60fcfac5e20edfa3acdc87e0,001,2021-07-25_17h33.34.720,arrow_simon_norep,2021.1.2,MacIntel,59.84082341,,,,,,,,,,,,,,,,,,,,,o,1,1.4795,57,FALSE,FALSE,14,0,56,1,1,,,,,,,
,,,,,,0,1.683655895,#f3af84,,right_orange.png,p,,,,,,o,right_blue.png,right_orange.png,p,right,60fcfac5e20edfa3acdc87e0,001,2021-07-25_17h33.34.720,arrow_simon_norep,2021.1.2,MacIntel,59.84082341,,,,,,,,,,,,,,,,,,,,,p,1,1.4799,58,FALSE,FALSE,14,1,57,1,1,,,,,,,
,,,,,,0,2.067396656,#a3d0fb,,left_blue.png,w,,,,,,w,left_blue.png,left_orange.png,q,left,60fcfac5e20edfa3acdc87e0,001,2021-07-25_17h33.34.720,arrow_simon_norep,2021.1.2,MacIntel,59.84082341,,,,,,,,,,,,,,,,,,,,,w,1,1.413,59,FALSE,FALSE,14,2,58,2,1,,,,,,,
,,,,,,0,2.064030641,#f3af84,,left_orange.png,q,,,,,,w,left_blue.png,left_orange.png,q,left,60fcfac5e20edfa3acdc87e0,001,2021-07-25_17h33.34.720,arrow_simon_norep,2021.1.2,MacIntel,59.84082341,,,,,,,,,,,,,,,,,,,,,q,1,1.5005,60,FALSE,FALSE,14,3,59,2,1,,,,,,,
,,,,,,,,,,,,,,,,,,,,,,60fcfac5e20edfa3acdc87e0,001,2021-07-25_17h33.34.720,arrow_simon_norep,2021.1.2,MacIntel,59.84082341,,,,,,,,,,,,,,,,,,,,,,,,,,,,,,,,space,74.6821,2,0,2,0,1
,,,,,,0,1.78755758,#a3d0fb,,left_blue.png,w,,,,,,w,left_blue.png,left_orange.png,q,right,60fcfac5e20edfa3acdc87e0,001,2021-07-25_17h33.34.720,arrow_simon_norep,2021.1.2,MacIntel,59.84082341,,,,,,,,,,,,,,,,,,,,,w,1,1.4966,1,FALSE,FALSE,0,0,0,3,1,,,,,,,
,,,,,,0,1.796938326,#f3af84,,right_orange.png,p,,,,,,o,right_blue.png,right_orange.png,p,left,60fcfac5e20edfa3acdc87e0,001,2021-07-25_17h33.34.720,arrow_simon_norep,2021.1.2,MacIntel,59.84082341,,,,,,,,,,,,,,,,,,,,,p,1,1.1791,2,FALSE,TRUE,0,1,1,0,1,,,,,,,
,,,,,,0,2.482939174,#a3d0fb,,right_blue.png,o,,,,,,o,right_blue.png,right_orange.png,p,left,60fcfac5e20edfa3acdc87e0,001,2021-07-25_17h33.34.720,arrow_simon_norep,2021.1.2,MacIntel,59.84082341,,,,,,,,,,,,,,,,,,,,,w,0,1.798,3,TRUE,FALSE,0,2,2,0,1,,,,,,,
,,,,,,0,2.319705558,#f3af84,,left_orange.png,q,,,,,,w,left_blue.png,left_orange.png,q,left,60fcfac5e20edfa3acdc87e0,001,2021-07-25_17h33.34.720,arrow_simon_norep,2021.1.2,MacIntel,59.84082341,,,,,,,,,,,,,,,,,,,,,p,0,1.6079,4,TRUE,FALSE,0,3,3,2,1,,,,,,,
,,,,,,0,2.221434858,#a3d0fb,,left_blue.png,w,,,,,,w,left_blue.png,left_orange.png,q,left,60fcfac5e20edfa3acdc87e0,001,2021-07-25_17h33.34.720,arrow_simon_norep,2021.1.2,MacIntel,59.84082341,,,,,,,,,,,,,,,,,,,,,w,1,1.5039,5,FALSE,FALSE,1,0,4,2,1,,,,,,,
,,,,,,0,1.920867022,#f3af84,,right_orange.png,p,,,,,,o,right_blue.png,right_orange.png,p,right,60fcfac5e20edfa3acdc87e0,001,2021-07-25_17h33.34.720,arrow_simon_norep,2021.1.2,MacIntel,59.84082341,,,,,,,,,,,,,,,,,,,,,p,1,1.5965,6,FALSE,FALSE,1,1,5,1,1,,,,,,,
,,,,,,0,2.484435404,#a3d0fb,,left_blue.png,w,,,,,,w,left_blue.png,left_orange.png,q,left,60fcfac5e20edfa3acdc87e0,001,2021-07-25_17h33.34.720,arrow_simon_norep,2021.1.2,MacIntel,59.84082341,,,,,,,,,,,,,,,,,,,,,w,1,1.7762,7,TRUE,FALSE,1,2,6,2,1,,,,,,,
,,,,,,0,2.121548353,#f3af84,,left_orange.png,q,,,,,,w,left_blue.png,left_orange.png,q,right,60fcfac5e20edfa3acdc87e0,001,2021-07-25_17h33.34.720,arrow_simon_norep,2021.1.2,MacIntel,59.84082341,,,,,,,,,,,,,,,,,,,,,q,1,1.6083,8,TRUE,FALSE,1,3,7,3,1,,,,,,,
,,,,,,1,2.14820972,#a3d0fb,,right_blue.png,o,,,,,,o,right_blue.png,right_orange.png,p,right,60fcfac5e20edfa3acdc87e0,001,2021-07-25_17h33.34.720,arrow_simon_norep,2021.1.2,MacIntel,59.84082341,,,,,,,,,,,,,,,,,,,,,p,0,1.543,9,FALSE,FALSE,2,0,8,1,1,,,,,,,
,,,,,,0,2.1919292,#f3af84,,right_orange.png,p,,,,,,o,right_blue.png,right_orange.png,p,right,60fcfac5e20edfa3acdc87e0,001,2021-07-25_17h33.34.720,arrow_simon_norep,2021.1.2,MacIntel,59.84082341,,,,,,,,,,,,,,,,,,,,,p,1,1.5162,10,FALSE,FALSE,2,1,9,1,1,,,,,,,
,,,,,,0,1.948769616,#a3d0fb,,right_blue.png,o,,,,,,o,right_blue.png,right_orange.png,p,left,60fcfac5e20edfa3acdc87e0,001,2021-07-25_17h33.34.720,arrow_simon_norep,2021.1.2,MacIntel,59.84082341,,,,,,,,,,,,,,,,,,,,,o,1,1.5644,11,FALSE,FALSE,2,2,10,0,1,,,,,,,
,,,,,,0,1.770121171,#f3af84,,right_orange.png,p,,,,,,o,right_blue.png,right_orange.png,p,right,60fcfac5e20edfa3acdc87e0,001,2021-07-25_17h33.34.720,arrow_simon_norep,2021.1.2,MacIntel,59.84082341,,,,,,,,,,,,,,,,,,,,,p,1,1.4265,12,FALSE,FALSE,2,3,11,1,1,,,,,,,
,,,,,,0,2.139153416,#a3d0fb,,right_blue.png,o,,,,,,o,right_blue.png,right_orange.png,p,right,60fcfac5e20edfa3acdc87e0,001,2021-07-25_17h33.34.720,arrow_simon_norep,2021.1.2,MacIntel,59.84082341,,,,,,,,,,,,,,,,,,,,,o,1,1.4975,13,FALSE,FALSE,3,0,12,1,1,,,,,,,
,,,,,,0,2.334571136,#f3af84,,left_orange.png,q,,,,,,w,left_blue.png,left_orange.png,q,left,60fcfac5e20edfa3acdc87e0,001,2021-07-25_17h33.34.720,arrow_simon_norep,2021.1.2,MacIntel,59.84082341,,,,,,,,,,,,,,,,,,,,,q,1,1.7138,14,TRUE,FALSE,3,1,13,2,1,,,,,,,
,,,,,,0,1.774323262,#a3d0fb,,right_blue.png,o,,,,,,o,right_blue.png,right_orange.png,p,right,60fcfac5e20edfa3acdc87e0,001,2021-07-25_17h33.34.720,arrow_simon_norep,2021.1.2,MacIntel,59.84082341,,,,,,,,,,,,,,,,,,,,,o,1,1.3924,15,FALSE,TRUE,3,2,14,1,1,,,,,,,
,,,,,,0,2.315748149,#f3af84,,left_orange.png,q,,,,,,w,left_blue.png,left_orange.png,q,right,60fcfac5e20edfa3acdc87e0,001,2021-07-25_17h33.34.720,arrow_simon_norep,2021.1.2,MacIntel,59.84082341,,,,,,,,,,,,,,,,,,,,,p,0,1.7613,16,TRUE,FALSE,3,3,15,3,1,,,,,,,
,,,,,,0,1.978493277,#a3d0fb,,left_blue.png,w,,,,,,w,left_blue.png,left_orange.png,q,right,60fcfac5e20edfa3acdc87e0,001,2021-07-25_17h33.34.720,arrow_simon_norep,2021.1.2,MacIntel,59.84082341,,,,,,,,,,,,,,,,,,,,,w,1,1.5744,17,FALSE,FALSE,4,0,16,3,1,,,,,,,
,,,,,,0,2.374242488,#f3af84,,right_orange.png,p,,,,,,o,right_blue.png,right_orange.png,p,left,60fcfac5e20edfa3acdc87e0,001,2021-07-25_17h33.34.720,arrow_simon_norep,2021.1.2,MacIntel,59.84082341,,,,,,,,,,,,,,,,,,,,,p,1,1.7836,18,TRUE,FALSE,4,1,17,0,1,,,,,,,
,,,,,,0,2.062591047,#a3d0fb,,left_blue.png,w,,,,,,w,left_blue.png,left_orange.png,q,left,60fcfac5e20edfa3acdc87e0,001,2021-07-25_17h33.34.720,arrow_simon_norep,2021.1.2,MacIntel,59.84082341,,,,,,,,,,,,,,,,,,,,,w,1,1.5757,19,FALSE,FALSE,4,2,18,2,1,,,,,,,
,,,,,,0,1.670625054,#f3af84,,right_orange.png,p,,,,,,o,right_blue.png,right_orange.png,p,right,60fcfac5e20edfa3acdc87e0,001,2021-07-25_17h33.34.720,arrow_simon_norep,2021.1.2,MacIntel,59.84082341,,,,,,,,,,,,,,,,,,,,,p,1,1.547,20,FALSE,FALSE,4,3,19,1,1,,,,,,,
,,,,,,0,1.891070367,#a3d0fb,,left_blue.png,w,,,,,,w,left_blue.png,left_orange.png,q,left,60fcfac5e20edfa3acdc87e0,001,2021-07-25_17h33.34.720,arrow_simon_norep,2021.1.2,MacIntel,59.84082341,,,,,,,,,,,,,,,,,,,,,w,1,1.5658,21,FALSE,FALSE,5,0,20,2,1,,,,,,,
,,,,,,0,1.901057143,#f3af84,,right_orange.png,p,,,,,,o,right_blue.png,right_orange.png,p,left,60fcfac5e20edfa3acdc87e0,001,2021-07-25_17h33.34.720,arrow_simon_norep,2021.1.2,MacIntel,59.84082341,,,,,,,,,,,,,,,,,,,,,p,1,1.4936,22,FALSE,FALSE,5,1,21,0,1,,,,,,,
,,,,,,0,1.825049715,#a3d0fb,,right_blue.png,o,,,,,,o,right_blue.png,right_orange.png,p,right,60fcfac5e20edfa3acdc87e0,001,2021-07-25_17h33.34.720,arrow_simon_norep,2021.1.2,MacIntel,59.84082341,,,,,,,,,,,,,,,,,,,,,o,1,1.5643,23,FALSE,FALSE,5,2,22,1,1,,,,,,,
,,,,,,0,1.724524527,#f3af84,,left_orange.png,q,,,,,,w,left_blue.png,left_orange.png,q,left,60fcfac5e20edfa3acdc87e0,001,2021-07-25_17h33.34.720,arrow_simon_norep,2021.1.2,MacIntel,59.84082341,,,,,,,,,,,,,,,,,,,,,q,1,1.4251,24,FALSE,FALSE,5,3,23,2,1,,,,,,,
,,,,,,0,2.329207334,#a3d0fb,,right_blue.png,o,,,,,,o,right_blue.png,right_orange.png,p,right,60fcfac5e20edfa3acdc87e0,001,2021-07-25_17h33.34.720,arrow_simon_norep,2021.1.2,MacIntel,59.84082341,,,,,,,,,,,,,,,,,,,,,o,1,1.6946,25,TRUE,FALSE,6,0,24,1,1,,,,,,,
,,,,,,0,2.180413465,#f3af84,,left_orange.png,q,,,,,,w,left_blue.png,left_orange.png,q,right,60fcfac5e20edfa3acdc87e0,001,2021-07-25_17h33.34.720,arrow_simon_norep,2021.1.2,MacIntel,59.84082341,,,,,,,,,,,,,,,,,,,,,q,1,1.7916,26,TRUE,FALSE,6,1,25,3,1,,,,,,,
,,,,,,0,2.382002646,#a3d0fb,,right_blue.png,o,,,,,,o,right_blue.png,right_orange.png,p,left,60fcfac5e20edfa3acdc87e0,001,2021-07-25_17h33.34.720,arrow_simon_norep,2021.1.2,MacIntel,59.84082341,,,,,,,,,,,,,,,,,,,,,w,0,1.6757,27,TRUE,FALSE,6,2,26,0,1,,,,,,,
,,,,,,0,2.084077433,#f3af84,,left_orange.png,q,,,,,,w,left_blue.png,left_orange.png,q,right,60fcfac5e20edfa3acdc87e0,001,2021-07-25_17h33.34.720,arrow_simon_norep,2021.1.2,MacIntel,59.84082341,,,,,,,,,,,,,,,,,,,,,q,1,1.6259,28,TRUE,FALSE,6,3,27,3,1,,,,,,,
,,,,,,1,1.860281326,#a3d0fb,,right_blue.png,o,,,,,,o,right_blue.png,right_orange.png,p,right,60fcfac5e20edfa3acdc87e0,001,2021-07-25_17h33.34.720,arrow_simon_norep,2021.1.2,MacIntel,59.84082341,,,,,,,,,,,,,,,,,,,,,p,0,1.4436,29,FALSE,FALSE,7,0,28,1,1,,,,,,,
,,,,,,1,1.826824585,#f3af84,,left_orange.png,q,,,,,,w,left_blue.png,left_orange.png,q,right,60fcfac5e20edfa3acdc87e0,001,2021-07-25_17h33.34.720,arrow_simon_norep,2021.1.2,MacIntel,59.84082341,,,,,,,,,,,,,,,,,,,,,q,1,1.2304,30,FALSE,TRUE,7,1,29,3,1,,,,,,,
,,,,,,0,1.630781729,#a3d0fb,,right_blue.png,o,,,,,,o,right_blue.png,right_orange.png,p,left,60fcfac5e20edfa3acdc87e0,001,2021-07-25_17h33.34.720,arrow_simon_norep,2021.1.2,MacIntel,59.84082341,,,,,,,,,,,,,,,,,,,,,o,1,1.4912,31,FALSE,FALSE,7,2,30,0,1,,,,,,,
,,,,,,0,2.314323935,#f3af84,,left_orange.png,q,,,,,,w,left_blue.png,left_orange.png,q,right,60fcfac5e20edfa3acdc87e0,001,2021-07-25_17h33.34.720,arrow_simon_norep,2021.1.2,MacIntel,59.84082341,,,,,,,,,,,,,,,,,,,,,p,0,1.6267,32,TRUE,FALSE,7,3,31,3,1,,,,,,,
,,,,,,0,2.480054267,#a3d0fb,,right_blue.png,o,,,,,,o,right_blue.png,right_orange.png,p,right,60fcfac5e20edfa3acdc87e0,001,2021-07-25_17h33.34.720,arrow_simon_norep,2021.1.2,MacIntel,59.84082341,,,,,,,,,,,,,,,,,,,,,w,0,1.7267,33,TRUE,FALSE,8,0,32,1,1,,,,,,,
,,,,,,0,1.83932932,#f3af84,,right_orange.png,p,,,,,,o,right_blue.png,right_orange.png,p,left,60fcfac5e20edfa3acdc87e0,001,2021-07-25_17h33.34.720,arrow_simon_norep,2021.1.2,MacIntel,59.84082341,,,,,,,,,,,,,,,,,,,,,p,1,1.4855,34,FALSE,FALSE,8,1,33,0,1,,,,,,,
,,,,,,0,1.959947548,#a3d0fb,,left_blue.png,w,,,,,,w,left_blue.png,left_orange.png,q,right,60fcfac5e20edfa3acdc87e0,001,2021-07-25_17h33.34.720,arrow_simon_norep,2021.1.2,MacIntel,59.84082341,,,,,,,,,,,,,,,,,,,,,w,1,1.4995,35,FALSE,FALSE,8,2,34,3,1,,,,,,,
,,,,,,0,2.399117519,#f3af84,,left_orange.png,q,,,,,,w,left_blue.png,left_orange.png,q,left,60fcfac5e20edfa3acdc87e0,001,2021-07-25_17h33.34.720,arrow_simon_norep,2021.1.2,MacIntel,59.84082341,,,,,,,,,,,,,,,,,,,,,q,1,1.8628,36,TRUE,FALSE,8,3,35,2,1,,,,,,,
,,,,,,0,1.635582908,#a3d0fb,,left_blue.png,w,,,,,,w,left_blue.png,left_orange.png,q,left,60fcfac5e20edfa3acdc87e0,001,2021-07-25_17h33.34.720,arrow_simon_norep,2021.1.2,MacIntel,59.84082341,,,,,,,,,,,,,,,,,,,,,w,1,1.5075,37,FALSE,FALSE,9,0,36,2,1,,,,,,,
,,,,,,0,2.385845939,#f3af84,,right_orange.png,p,,,,,,o,right_blue.png,right_orange.png,p,left,60fcfac5e20edfa3acdc87e0,001,2021-07-25_17h33.34.720,arrow_simon_norep,2021.1.2,MacIntel,59.84082341,,,,,,,,,,,,,,,,,,,,,q,0,1.7603,38,TRUE,FALSE,9,1,37,0,1,,,,,,,
,,,,,,0,2.20641062,#a3d0fb,,left_blue.png,w,,,,,,w,left_blue.png,left_orange.png,q,left,60fcfac5e20edfa3acdc87e0,001,2021-07-25_17h33.34.720,arrow_simon_norep,2021.1.2,MacIntel,59.84082341,,,,,,,,,,,,,,,,,,,,,q,0,1.6968,39,TRUE,FALSE,9,2,38,2,1,,,,,,,
,,,,,,0,1.62999822,#f3af84,,left_orange.png,q,,,,,,w,left_blue.png,left_orange.png,q,left,60fcfac5e20edfa3acdc87e0,001,2021-07-25_17h33.34.720,arrow_simon_norep,2021.1.2,MacIntel,59.84082341,,,,,,,,,,,,,,,,,,,,,q,1,1.5625,40,FALSE,FALSE,9,3,39,2,1,,,,,,,
,,,,,,0,1.83770585,#a3d0fb,,left_blue.png,w,,,,,,w,left_blue.png,left_orange.png,q,right,60fcfac5e20edfa3acdc87e0,001,2021-07-25_17h33.34.720,arrow_simon_norep,2021.1.2,MacIntel,59.84082341,,,,,,,,,,,,,,,,,,,,,w,1,1.2709,41,FALSE,TRUE,10,0,40,3,1,,,,,,,
,,,,,,0,2.491450434,#f3af84,,right_orange.png,p,,,,,,o,right_blue.png,right_orange.png,p,right,60fcfac5e20edfa3acdc87e0,001,2021-07-25_17h33.34.720,arrow_simon_norep,2021.1.2,MacIntel,59.84082341,,,,,,,,,,,,,,,,,,,,,p,1,1.7443,42,TRUE,FALSE,10,1,41,1,1,,,,,,,
,,,,,,0,1.572919726,#a3d0fb,,right_blue.png,o,,,,,,o,right_blue.png,right_orange.png,p,left,60fcfac5e20edfa3acdc87e0,001,2021-07-25_17h33.34.720,arrow_simon_norep,2021.1.2,MacIntel,59.84082341,,,,,,,,,,,,,,,,,,,,,o,1,1.63,43,TRUE,FALSE,10,2,42,0,1,,,,,,,
,,,,,,0,2.475854891,#f3af84,,left_orange.png,q,,,,,,w,left_blue.png,left_orange.png,q,right,60fcfac5e20edfa3acdc87e0,001,2021-07-25_17h33.34.720,arrow_simon_norep,2021.1.2,MacIntel,59.84082341,,,,,,,,,,,,,,,,,,,,,q,1,1.6803,44,TRUE,FALSE,10,3,43,3,1,,,,,,,
,,,,,,0,2.37494597,#a3d0fb,,left_blue.png,w,,,,,,w,left_blue.png,left_orange.png,q,left,60fcfac5e20edfa3acdc87e0,001,2021-07-25_17h33.34.720,arrow_simon_norep,2021.1.2,MacIntel,59.84082341,,,,,,,,,,,,,,,,,,,,,o,0,1.6774,45,TRUE,FALSE,11,0,44,2,1,,,,,,,
,,,,,,0,1.884469628,#f3af84,,left_orange.png,q,,,,,,w,left_blue.png,left_orange.png,q,left,60fcfac5e20edfa3acdc87e0,001,2021-07-25_17h33.34.720,arrow_simon_norep,2021.1.2,MacIntel,59.84082341,,,,,,,,,,,,,,,,,,,,,q,1,1.5493,46,FALSE,FALSE,11,1,45,2,1,,,,,,,
