instruct_resp_simon.keys,instruct_resp_simon.corr,instruct_resp_simon.rt,trial_resp_simon.keys,trial_resp_simon.corr,trial_resp_simon.rt,kerr,target_onset,target_color,target_pos,target_file,target_resp,trials_train_simon.thisRepN,trials_train_simon.thisTrialN,trials_train_simon.thisN,trials_train_simon.thisIndex,trials_train_simon.ran,odd_target_resp,odd_target_file,even_target_file,even_target_resp,target_side,participant,session,date,expName,psychopyVersion,OS,frameRate,train_block_note_resp.keys,train_block_note_resp.rt,blocks_train.thisRepN,blocks_train.thisTrialN,blocks_train.thisN,blocks_train.thisIndex,blocks_train.ran,instruct_resp_timing.keys,instruct_resp_timing.corr,instruct_resp_timing.rt,trial_resp_timing.keys,trial_resp_timing.rt,trials_train_timing.thisRepN,trials_train_timing.thisTrialN,trials_train_timing.thisN,trials_train_timing.thisIndex,trials_train_timing.ran,instruct_resp.keys,instruct_resp.corr,instruct_resp.rt,trial_resp.keys,trial_resp.corr,trial_resp.rt,trial_num,too_slow,too_soon,trials.thisRepN,trials.thisTrialN,trials.thisN,trials.thisIndex,trials.ran,block_note_resp.keys,block_note_resp.rt,blocks.thisRepN,blocks.thisTrialN,blocks.thisN,blocks.thisIndex,blocks.ran
space,0,54.3731,o,0,1.056,1,0.362651009,#a3d0fb,,left_blue.png,w,0,0,0,3,1,w,left_blue.png,left_orange.png,q,right,60fd201ddecfacd72eccae7f,001,2021-08-01_12h27.40.747,arrow_simon_norep,2021.1.2,Win32,59.52735282,,,,,,,,,,,,,,,,,,,,,,,,,,,,,,,,,,,,,,
,,,p,1,1.7012,0,0.7808509,#f3af84,,right_orange.png,p,0,1,1,1,1,o,right_blue.png,right_orange.png,p,right,60fd201ddecfacd72eccae7f,001,2021-08-01_12h27.40.747,arrow_simon_norep,2021.1.2,Win32,59.52735282,,,,,,,,,,,,,,,,,,,,,,,,,,,,,,,,,,,,,,
,,,o,1,1.8668,0,0.292979513,#a3d0fb,,right_blue.png,o,0,2,2,1,1,o,right_blue.png,right_orange.png,p,right,60fd201ddecfacd72eccae7f,001,2021-08-01_12h27.40.747,arrow_simon_norep,2021.1.2,Win32,59.52735282,,,,,,,,,,,,,,,,,,,,,,,,,,,,,,,,,,,,,,
,,,p,1,1.2843,0,0.759373201,#f3af84,,right_orange.png,p,0,3,3,1,1,o,right_blue.png,right_orange.png,p,right,60fd201ddecfacd72eccae7f,001,2021-08-01_12h27.40.747,arrow_simon_norep,2021.1.2,Win32,59.52735282,,,,,,,,,,,,,,,,,,,,,,,,,,,,,,,,,,,,,,
,,,w,1,1.1012,0,0.338708339,#a3d0fb,,left_blue.png,w,1,0,4,2,1,w,left_blue.png,left_orange.png,q,left,60fd201ddecfacd72eccae7f,001,2021-08-01_12h27.40.747,arrow_simon_norep,2021.1.2,Win32,59.52735282,,,,,,,,,,,,,,,,,,,,,,,,,,,,,,,,,,,,,,
,,,p,1,1.2507,0,0.598854582,#f3af84,,right_orange.png,p,1,1,5,1,1,o,right_blue.png,right_orange.png,p,right,60fd201ddecfacd72eccae7f,001,2021-08-01_12h27.40.747,arrow_simon_norep,2021.1.2,Win32,59.52735282,,,,,,,,,,,,,,,,,,,,,,,,,,,,,,,,,,,,,,
,,,w,1,1.5837,0,0.558866798,#a3d0fb,,left_blue.png,w,1,2,6,2,1,w,left_blue.png,left_orange.png,q,left,60fd201ddecfacd72eccae7f,001,2021-08-01_12h27.40.747,arrow_simon_norep,2021.1.2,Win32,59.52735282,,,,,,,,,,,,,,,,,,,,,,,,,,,,,,,,,,,,,,
,,,p,1,1.4847,0,0.676073927,#f3af84,,right_orange.png,p,1,3,7,0,1,o,right_blue.png,right_orange.png,p,left,60fd201ddecfacd72eccae7f,001,2021-08-01_12h27.40.747,arrow_simon_norep,2021.1.2,Win32,59.52735282,,,,,,,,,,,,,,,,,,,,,,,,,,,,,,,,,,,,,,
,,,o,1,3.334,0,0.080688615,#a3d0fb,,right_blue.png,o,2,0,8,1,1,o,right_blue.png,right_orange.png,p,right,60fd201ddecfacd72eccae7f,001,2021-08-01_12h27.40.747,arrow_simon_norep,2021.1.2,Win32,59.52735282,,,,,,,,,,,,,,,,,,,,,,,,,,,,,,,,,,,,,,
,,,o,0,2.1844,1,0.68497503,#f3af84,,right_orange.png,p,2,1,9,0,1,o,right_blue.png,right_orange.png,p,left,60fd201ddecfacd72eccae7f,001,2021-08-01_12h27.40.747,arrow_simon_norep,2021.1.2,Win32,59.52735282,,,,,,,,,,,,,,,,,,,,,,,,,,,,,,,,,,,,,,
,,,w,1,2.1171,0,0.732948043,#a3d0fb,,left_blue.png,w,2,2,10,3,1,w,left_blue.png,left_orange.png,q,right,60fd201ddecfacd72eccae7f,001,2021-08-01_12h27.40.747,arrow_simon_norep,2021.1.2,Win32,59.52735282,,,,,,,,,,,,,,,,,,,,,,,,,,,,,,,,,,,,,,
,,,p,1,1.2346,0,0.359181075,#f3af84,,right_orange.png,p,2,3,11,1,1,o,right_blue.png,right_orange.png,p,right,60fd201ddecfacd72eccae7f,001,2021-08-01_12h27.40.747,arrow_simon_norep,2021.1.2,Win32,59.52735282,,,,,,,,,,,,,,,,,,,,,,,,,,,,,,,,,,,,,,
,,,o,1,1.1512,0,0.305381095,#a3d0fb,,right_blue.png,o,3,0,12,0,1,o,right_blue.png,right_orange.png,p,left,60fd201ddecfacd72eccae7f,001,2021-08-01_12h27.40.747,arrow_simon_norep,2021.1.2,Win32,59.52735282,,,,,,,,,,,,,,,,,,,,,,,,,,,,,,,,,,,,,,
,,,q,1,1.4361,0,0.058526129,#f3af84,,left_orange.png,q,3,1,13,3,1,w,left_blue.png,left_orange.png,q,right,60fd201ddecfacd72eccae7f,001,2021-08-01_12h27.40.747,arrow_simon_norep,2021.1.2,Win32,59.52735282,,,,,,,,,,,,,,,,,,,,,,,,,,,,,,,,,,,,,,
,,,w,1,1.8076,0,0.978746612,#a3d0fb,,left_blue.png,w,3,2,14,2,1,w,left_blue.png,left_orange.png,q,left,60fd201ddecfacd72eccae7f,001,2021-08-01_12h27.40.747,arrow_simon_norep,2021.1.2,Win32,59.52735282,,,,,,,,,,,,,,,,,,,,,,,,,,,,,,,,,,,,,,
,,,p,1,0.9175,0,0.244920998,#f3af84,,right_orange.png,p,3,3,15,0,1,o,right_blue.png,right_orange.png,p,left,60fd201ddecfacd72eccae7f,001,2021-08-01_12h27.40.747,arrow_simon_norep,2021.1.2,Win32,59.52735282,,,,,,,,,,,,,,,,,,,,,,,,,,,,,,,,,,,,,,
,,,w,0,1.6019,1,0.655555887,#a3d0fb,,right_blue.png,o,4,0,16,0,1,o,right_blue.png,right_orange.png,p,left,60fd201ddecfacd72eccae7f,001,2021-08-01_12h27.40.747,arrow_simon_norep,2021.1.2,Win32,59.52735282,,,,,,,,,,,,,,,,,,,,,,,,,,,,,,,,,,,,,,
,,,p,1,1.5013,0,0.608563284,#f3af84,,right_orange.png,p,4,1,17,0,1,o,right_blue.png,right_orange.png,p,left,60fd201ddecfacd72eccae7f,001,2021-08-01_12h27.40.747,arrow_simon_norep,2021.1.2,Win32,59.52735282,,,,,,,,,,,,,,,,,,,,,,,,,,,,,,,,,,,,,,
,,,o,1,1.1339,0,0.102578216,#a3d0fb,,right_blue.png,o,4,2,18,1,1,o,right_blue.png,right_orange.png,p,right,60fd201ddecfacd72eccae7f,001,2021-08-01_12h27.40.747,arrow_simon_norep,2021.1.2,Win32,59.52735282,,,,,,,,,,,,,,,,,,,,,,,,,,,,,,,,,,,,,,
,,,p,1,1.5849,0,0.737923762,#f3af84,,right_orange.png,p,4,3,19,1,1,o,right_blue.png,right_orange.png,p,right,60fd201ddecfacd72eccae7f,001,2021-08-01_12h27.40.747,arrow_simon_norep,2021.1.2,Win32,59.52735282,,,,,,,,,,,,,,,,,,,,,,,,,,,,,,,,,,,,,,
,,,w,1,4.2178,0,0.093847875,#a3d0fb,,left_blue.png,w,5,0,20,3,1,w,left_blue.png,left_orange.png,q,right,60fd201ddecfacd72eccae7f,001,2021-08-01_12h27.40.747,arrow_simon_norep,2021.1.2,Win32,59.52735282,,,,,,,,,,,,,,,,,,,,,,,,,,,,,,,,,,,,,,
,,,p,1,1.4665,0,0.057385299,#f3af84,,right_orange.png,p,5,1,21,0,1,o,right_blue.png,right_orange.png,p,left,60fd201ddecfacd72eccae7f,001,2021-08-01_12h27.40.747,arrow_simon_norep,2021.1.2,Win32,59.52735282,,,,,,,,,,,,,,,,,,,,,,,,,,,,,,,,,,,,,,
,,,w,1,1.4677,0,0.110315039,#a3d0fb,,left_blue.png,w,5,2,22,3,1,w,left_blue.png,left_orange.png,q,right,60fd201ddecfacd72eccae7f,001,2021-08-01_12h27.40.747,arrow_simon_norep,2021.1.2,Win32,59.52735282,,,,,,,,,,,,,,,,,,,,,,,,,,,,,,,,,,,,,,
,,,p,0,2.1215,1,0.635242421,#f3af84,,left_orange.png,q,5,3,23,2,1,w,left_blue.png,left_orange.png,q,left,60fd201ddecfacd72eccae7f,001,2021-08-01_12h27.40.747,arrow_simon_norep,2021.1.2,Win32,59.52735282,,,,,,,,,,,,,,,,,,,,,,,,,,,,,,,,,,,,,,
,,,w,1,2.7492,0,0.721723271,#a3d0fb,,left_blue.png,w,6,0,24,3,1,w,left_blue.png,left_orange.png,q,right,60fd201ddecfacd72eccae7f,001,2021-08-01_12h27.40.747,arrow_simon_norep,2021.1.2,Win32,59.52735282,,,,,,,,,,,,,,,,,,,,,,,,,,,,,,,,,,,,,,
,,,q,1,1.0009,0,0.44828632,#f3af84,,left_orange.png,q,6,1,25,2,1,w,left_blue.png,left_orange.png,q,left,60fd201ddecfacd72eccae7f,001,2021-08-01_12h27.40.747,arrow_simon_norep,2021.1.2,Win32,59.52735282,,,,,,,,,,,,,,,,,,,,,,,,,,,,,,,,,,,,,,
,,,q,0,1.4044,1,0.661066086,#a3d0fb,,left_blue.png,w,6,2,26,3,1,w,left_blue.png,left_orange.png,q,right,60fd201ddecfacd72eccae7f,001,2021-08-01_12h27.40.747,arrow_simon_norep,2021.1.2,Win32,59.52735282,,,,,,,,,,,,,,,,,,,,,,,,,,,,,,,,,,,,,,
,,,p,1,1.1981,0,0.264929204,#f3af84,,right_orange.png,p,6,3,27,1,1,o,right_blue.png,right_orange.png,p,right,60fd201ddecfacd72eccae7f,001,2021-08-01_12h27.40.747,arrow_simon_norep,2021.1.2,Win32,59.52735282,,,,,,,,,,,,,,,,,,,,,,,,,,,,,,,,,,,,,,
,,,w,1,1.8944,0,0.940721984,#a3d0fb,,left_blue.png,w,7,0,28,3,1,w,left_blue.png,left_orange.png,q,right,60fd201ddecfacd72eccae7f,001,2021-08-01_12h27.40.747,arrow_simon_norep,2021.1.2,Win32,59.52735282,,,,,,,,,,,,,,,,,,,,,,,,,,,,,,,,,,,,,,
,,,q,1,1.5744,0,0.747823967,#f3af84,,left_orange.png,q,7,1,29,3,1,w,left_blue.png,left_orange.png,q,right,60fd201ddecfacd72eccae7f,001,2021-08-01_12h27.40.747,arrow_simon_norep,2021.1.2,Win32,59.52735282,,,,,,,,,,,,,,,,,,,,,,,,,,,,,,,,,,,,,,
,,,o,1,1.0898,0,0.229245014,#a3d0fb,,right_blue.png,o,7,2,30,1,1,o,right_blue.png,right_orange.png,p,right,60fd201ddecfacd72eccae7f,001,2021-08-01_12h27.40.747,arrow_simon_norep,2021.1.2,Win32,59.52735282,,,,,,,,,,,,,,,,,,,,,,,,,,,,,,,,,,,,,,
,,,q,1,2.3896,0,0.947244271,#f3af84,,left_orange.png,q,7,3,31,2,1,w,left_blue.png,left_orange.png,q,left,60fd201ddecfacd72eccae7f,001,2021-08-01_12h27.40.747,arrow_simon_norep,2021.1.2,Win32,59.52735282,,,,,,,,,,,,,,,,,,,,,,,,,,,,,,,,,,,,,,
,,,q,0,1.5976,1,0.959248523,#a3d0fb,,left_blue.png,w,8,0,32,2,1,w,left_blue.png,left_orange.png,q,left,60fd201ddecfacd72eccae7f,001,2021-08-01_12h27.40.747,arrow_simon_norep,2021.1.2,Win32,59.52735282,,,,,,,,,,,,,,,,,,,,,,,,,,,,,,,,,,,,,,
,,,q,1,0.9844,0,0.122628565,#f3af84,,left_orange.png,q,8,1,33,3,1,w,left_blue.png,left_orange.png,q,right,60fd201ddecfacd72eccae7f,001,2021-08-01_12h27.40.747,arrow_simon_norep,2021.1.2,Win32,59.52735282,,,,,,,,,,,,,,,,,,,,,,,,,,,,,,,,,,,,,,
,,,w,1,0.733,0,0.197287344,#a3d0fb,,left_blue.png,w,8,2,34,3,1,w,left_blue.png,left_orange.png,q,right,60fd201ddecfacd72eccae7f,001,2021-08-01_12h27.40.747,arrow_simon_norep,2021.1.2,Win32,59.52735282,,,,,,,,,,,,,,,,,,,,,,,,,,,,,,,,,,,,,,
,,,q,1,1.1801,0,0.520468948,#f3af84,,left_orange.png,q,8,3,35,3,1,w,left_blue.png,left_orange.png,q,right,60fd201ddecfacd72eccae7f,001,2021-08-01_12h27.40.747,arrow_simon_norep,2021.1.2,Win32,59.52735282,,,,,,,,,,,,,,,,,,,,,,,,,,,,,,,,,,,,,,
,,,o,1,1.7753,0,0.56782837,#a3d0fb,,right_blue.png,o,9,0,36,0,1,o,right_blue.png,right_orange.png,p,left,60fd201ddecfacd72eccae7f,001,2021-08-01_12h27.40.747,arrow_simon_norep,2021.1.2,Win32,59.52735282,,,,,,,,,,,,,,,,,,,,,,,,,,,,,,,,,,,,,,
,,,p,1,1.3264,0,0.59937214,#f3af84,,right_orange.png,p,9,1,37,0,1,o,right_blue.png,right_orange.png,p,left,60fd201ddecfacd72eccae7f,001,2021-08-01_12h27.40.747,arrow_simon_norep,2021.1.2,Win32,59.52735282,,,,,,,,,,,,,,,,,,,,,,,,,,,,,,,,,,,,,,
,,,w,1,1.7067,0,0.674554909,#a3d0fb,,left_blue.png,w,9,2,38,3,1,w,left_blue.png,left_orange.png,q,right,60fd201ddecfacd72eccae7f,001,2021-08-01_12h27.40.747,arrow_simon_norep,2021.1.2,Win32,59.52735282,,,,,,,,,,,,,,,,,,,,,,,,,,,,,,,,,,,,,,
,,,p,1,1.159,0,0.120839774,#f3af84,,right_orange.png,p,9,3,39,1,1,o,right_blue.png,right_orange.png,p,right,60fd201ddecfacd72eccae7f,001,2021-08-01_12h27.40.747,arrow_simon_norep,2021.1.2,Win32,59.52735282,,,,,,,,,,,,,,,,,,,,,,,,,,,,,,,,,,,,,,
,,,w,1,2.5199,0,0.76314832,#a3d0fb,,left_blue.png,w,10,0,40,2,1,w,left_blue.png,left_orange.png,q,left,60fd201ddecfacd72eccae7f,001,2021-08-01_12h27.40.747,arrow_simon_norep,2021.1.2,Win32,59.52735282,,,,,,,,,,,,,,,,,,,,,,,,,,,,,,,,,,,,,,
,,,p,1,1.5707,0,0.764400893,#f3af84,,right_orange.png,p,10,1,41,1,1,o,right_blue.png,right_orange.png,p,right,60fd201ddecfacd72eccae7f,001,2021-08-01_12h27.40.747,arrow_simon_norep,2021.1.2,Win32,59.52735282,,,,,,,,,,,,,,,,,,,,,,,,,,,,,,,,,,,,,,
,,,o,1,0.8999,0,0.210697505,#a3d0fb,,right_blue.png,o,10,2,42,1,1,o,right_blue.png,right_orange.png,p,right,60fd201ddecfacd72eccae7f,001,2021-08-01_12h27.40.747,arrow_simon_norep,2021.1.2,Win32,59.52735282,,,,,,,,,,,,,,,,,,,,,,,,,,,,,,,,,,,,,,
,,,q,1,1.2043,0,0.574261879,#f3af84,,left_orange.png,q,10,3,43,2,1,w,left_blue.png,left_orange.png,q,left,60fd201ddecfacd72eccae7f,001,2021-08-01_12h27.40.747,arrow_simon_norep,2021.1.2,Win32,59.52735282,,,,,,,,,,,,,,,,,,,,,,,,,,,,,,,,,,,,,,
,,,o,1,1.2974,0,0.623307916,#a3d0fb,,right_blue.png,o,11,0,44,1,1,o,right_blue.png,right_orange.png,p,right,60fd201ddecfacd72eccae7f,001,2021-08-01_12h27.40.747,arrow_simon_norep,2021.1.2,Win32,59.52735282,,,,,,,,,,,,,,,,,,,,,,,,,,,,,,,,,,,,,,
,,,q,1,0.8351,0,0.095989516,#f3af84,,left_orange.png,q,11,1,45,2,1,w,left_blue.png,left_orange.png,q,left,60fd201ddecfacd72eccae7f,001,2021-08-01_12h27.40.747,arrow_simon_norep,2021.1.2,Win32,59.52735282,,,,,,,,,,,,,,,,,,,,,,,,,,,,,,,,,,,,,,
,,,w,1,1.294,0,0.225966552,#a3d0fb,,left_blue.png,w,11,2,46,3,1,w,left_blue.png,left_orange.png,q,right,60fd201ddecfacd72eccae7f,001,2021-08-01_12h27.40.747,arrow_simon_norep,2021.1.2,Win32,59.52735282,,,,,,,,,,,,,,,,,,,,,,,,,,,,,,,,,,,,,,
,,,p,1,1.1931,0,0.248347379,#f3af84,,right_orange.png,p,11,3,47,0,1,o,right_blue.png,right_orange.png,p,left,60fd201ddecfacd72eccae7f,001,2021-08-01_12h27.40.747,arrow_simon_norep,2021.1.2,Win32,59.52735282,,,,,,,,,,,,,,,,,,,,,,,,,,,,,,,,,,,,,,
,,,w,0,1.7464,1,0.868338623,#a3d0fb,,right_blue.png,o,12,0,48,0,1,o,right_blue.png,right_orange.png,p,left,60fd201ddecfacd72eccae7f,001,2021-08-01_12h27.40.747,arrow_simon_norep,2021.1.2,Win32,59.52735282,,,,,,,,,,,,,,,,,,,,,,,,,,,,,,,,,,,,,,
,,,q,1,1.6813,0,0.974099314,#f3af84,,left_orange.png,q,12,1,49,2,1,w,left_blue.png,left_orange.png,q,left,60fd201ddecfacd72eccae7f,001,2021-08-01_12h27.40.747,arrow_simon_norep,2021.1.2,Win32,59.52735282,,,,,,,,,,,,,,,,,,,,,,,,,,,,,,,,,,,,,,
,,,q,0,1.5203,1,0.90283401,#a3d0fb,,left_blue.png,w,12,2,50,2,1,w,left_blue.png,left_orange.png,q,left,60fd201ddecfacd72eccae7f,001,2021-08-01_12h27.40.747,arrow_simon_norep,2021.1.2,Win32,59.52735282,,,,,,,,,,,,,,,,,,,,,,,,,,,,,,,,,,,,,,
,,,q,1,0.9767,0,0.393313894,#f3af84,,left_orange.png,q,12,3,51,2,1,w,left_blue.png,left_orange.png,q,left,60fd201ddecfacd72eccae7f,001,2021-08-01_12h27.40.747,arrow_simon_norep,2021.1.2,Win32,59.52735282,,,,,,,,,,,,,,,,,,,,,,,,,,,,,,,,,,,,,,
,,,w,1,0.6385,0,0.164313119,#a3d0fb,,left_blue.png,w,13,0,52,2,1,w,left_blue.png,left_orange.png,q,left,60fd201ddecfacd72eccae7f,001,2021-08-01_12h27.40.747,arrow_simon_norep,2021.1.2,Win32,59.52735282,,,,,,,,,,,,,,,,,,,,,,,,,,,,,,,,,,,,,,
,,,q,1,1.0371,0,0.483171101,#f3af84,,left_orange.png,q,13,1,53,2,1,w,left_blue.png,left_orange.png,q,left,60fd201ddecfacd72eccae7f,001,2021-08-01_12h27.40.747,arrow_simon_norep,2021.1.2,Win32,59.52735282,,,,,,,,,,,,,,,,,,,,,,,,,,,,,,,,,,,,,,
,,,o,1,1.4398,0,0.451763096,#a3d0fb,,right_blue.png,o,13,2,54,0,1,o,right_blue.png,right_orange.png,p,left,60fd201ddecfacd72eccae7f,001,2021-08-01_12h27.40.747,arrow_simon_norep,2021.1.2,Win32,59.52735282,,,,,,,,,,,,,,,,,,,,,,,,,,,,,,,,,,,,,,
,,,p,1,2.9695,0,0.936730391,#f3af84,,right_orange.png,p,13,3,55,0,1,o,right_blue.png,right_orange.png,p,left,60fd201ddecfacd72eccae7f,001,2021-08-01_12h27.40.747,arrow_simon_norep,2021.1.2,Win32,59.52735282,,,,,,,,,,,,,,,,,,,,,,,,,,,,,,,,,,,,,,
,,,w,0,1.6129,1,0.855041281,#a3d0fb,,right_blue.png,o,14,0,56,1,1,o,right_blue.png,right_orange.png,p,right,60fd201ddecfacd72eccae7f,001,2021-08-01_12h27.40.747,arrow_simon_norep,2021.1.2,Win32,59.52735282,,,,,,,,,,,,,,,,,,,,,,,,,,,,,,,,,,,,,,
,,,p,1,1.5615,0,0.014512066,#f3af84,,right_orange.png,p,14,1,57,0,1,o,right_blue.png,right_orange.png,p,left,60fd201ddecfacd72eccae7f,001,2021-08-01_12h27.40.747,arrow_simon_norep,2021.1.2,Win32,59.52735282,,,,,,,,,,,,,,,,,,,,,,,,,,,,,,,,,,,,,,
,,,w,1,1.403,0,0.27462313,#a3d0fb,,left_blue.png,w,14,2,58,3,1,w,left_blue.png,left_orange.png,q,right,60fd201ddecfacd72eccae7f,001,2021-08-01_12h27.40.747,arrow_simon_norep,2021.1.2,Win32,59.52735282,,,,,,,,,,,,,,,,,,,,,,,,,,,,,,,,,,,,,,
,,,q,0,1.2513,1,0.058788617,#f3af84,,right_orange.png,p,14,3,59,0,1,o,right_blue.png,right_orange.png,p,left,60fd201ddecfacd72eccae7f,001,2021-08-01_12h27.40.747,arrow_simon_norep,2021.1.2,Win32,59.52735282,,,,,,,,,,,,,,,,,,,,,,,,,,,,,,,,,,,,,,
,,,,,,,,,,,,,,,,,,,,,,60fd201ddecfacd72eccae7f,001,2021-08-01_12h27.40.747,arrow_simon_norep,2021.1.2,Win32,59.52735282,space,12.2417,0,0,0,0,1,,,,,,,,,,,,,,,,,,,,,,,,,,,,,,,
,,,w,1,2.5657,0,0.919298502,#a3d0fb,,left_blue.png,w,0,0,0,3,1,w,left_blue.png,left_orange.png,q,right,60fd201ddecfacd72eccae7f,001,2021-08-01_12h27.40.747,arrow_simon_norep,2021.1.2,Win32,59.52735282,,,,,,,,,,,,,,,,,,,,,,,,,,,,,,,,,,,,,,
,,,q,1,2.6012,0,0.878731531,#f3af84,,left_orange.png,q,0,1,1,2,1,w,left_blue.png,left_orange.png,q,left,60fd201ddecfacd72eccae7f,001,2021-08-01_12h27.40.747,arrow_simon_norep,2021.1.2,Win32,59.52735282,,,,,,,,,,,,,,,,,,,,,,,,,,,,,,,,,,,,,,
,,,o,1,1.2522,0,0.523047593,#a3d0fb,,right_blue.png,o,0,2,2,0,1,o,right_blue.png,right_orange.png,p,left,60fd201ddecfacd72eccae7f,001,2021-08-01_12h27.40.747,arrow_simon_norep,2021.1.2,Win32,59.52735282,,,,,,,,,,,,,,,,,,,,,,,,,,,,,,,,,,,,,,
,,,p,1,1.1174,0,0.435264661,#f3af84,,right_orange.png,p,0,3,3,0,1,o,right_blue.png,right_orange.png,p,left,60fd201ddecfacd72eccae7f,001,2021-08-01_12h27.40.747,arrow_simon_norep,2021.1.2,Win32,59.52735282,,,,,,,,,,,,,,,,,,,,,,,,,,,,,,,,,,,,,,
,,,w,0,2.0692,1,0.612205901,#a3d0fb,,right_blue.png,o,1,0,4,0,1,o,right_blue.png,right_orange.png,p,left,60fd201ddecfacd72eccae7f,001,2021-08-01_12h27.40.747,arrow_simon_norep,2021.1.2,Win32,59.52735282,,,,,,,,,,,,,,,,,,,,,,,,,,,,,,,,,,,,,,
,,,q,1,0.8518,0,0.065815597,#f3af84,,left_orange.png,q,1,1,5,3,1,w,left_blue.png,left_orange.png,q,right,60fd201ddecfacd72eccae7f,001,2021-08-01_12h27.40.747,arrow_simon_norep,2021.1.2,Win32,59.52735282,,,,,,,,,,,,,,,,,,,,,,,,,,,,,,,,,,,,,,
,,,w,0,1.0517,1,0.128542038,#a3d0fb,,right_blue.png,o,1,2,6,1,1,o,right_blue.png,right_orange.png,p,right,60fd201ddecfacd72eccae7f,001,2021-08-01_12h27.40.747,arrow_simon_norep,2021.1.2,Win32,59.52735282,,,,,,,,,,,,,,,,,,,,,,,,,,,,,,,,,,,,,,
,,,p,1,1.6517,0,0.650175635,#f3af84,,right_orange.png,p,1,3,7,1,1,o,right_blue.png,right_orange.png,p,right,60fd201ddecfacd72eccae7f,001,2021-08-01_12h27.40.747,arrow_simon_norep,2021.1.2,Win32,59.52735282,,,,,,,,,,,,,,,,,,,,,,,,,,,,,,,,,,,,,,
,,,w,1,1.0343,0,0.164763639,#a3d0fb,,left_blue.png,w,2,0,8,3,1,w,left_blue.png,left_orange.png,q,right,60fd201ddecfacd72eccae7f,001,2021-08-01_12h27.40.747,arrow_simon_norep,2021.1.2,Win32,59.52735282,,,,,,,,,,,,,,,,,,,,,,,,,,,,,,,,,,,,,,
,,,q,1,1.4684,0,0.772604438,#f3af84,,left_orange.png,q,2,1,9,2,1,w,left_blue.png,left_orange.png,q,left,60fd201ddecfacd72eccae7f,001,2021-08-01_12h27.40.747,arrow_simon_norep,2021.1.2,Win32,59.52735282,,,,,,,,,,,,,,,,,,,,,,,,,,,,,,,,,,,,,,
,,,o,1,1.4509,0,0.762631829,#a3d0fb,,right_blue.png,o,2,2,10,0,1,o,right_blue.png,right_orange.png,p,left,60fd201ddecfacd72eccae7f,001,2021-08-01_12h27.40.747,arrow_simon_norep,2021.1.2,Win32,59.52735282,,,,,,,,,,,,,,,,,,,,,,,,,,,,,,,,,,,,,,
,,,q,1,1.7015,0,0.018075753,#f3af84,,left_orange.png,q,2,3,11,2,1,w,left_blue.png,left_orange.png,q,left,60fd201ddecfacd72eccae7f,001,2021-08-01_12h27.40.747,arrow_simon_norep,2021.1.2,Win32,59.52735282,,,,,,,,,,,,,,,,,,,,,,,,,,,,,,,,,,,,,,
,,,w,1,0.9846,0,0.034594109,#a3d0fb,,left_blue.png,w,3,0,12,2,1,w,left_blue.png,left_orange.png,q,left,60fd201ddecfacd72eccae7f,001,2021-08-01_12h27.40.747,arrow_simon_norep,2021.1.2,Win32,59.52735282,,,,,,,,,,,,,,,,,,,,,,,,,,,,,,,,,,,,,,
,,,q,1,1.6199,0,0.720608796,#f3af84,,left_orange.png,q,3,1,13,3,1,w,left_blue.png,left_orange.png,q,right,60fd201ddecfacd72eccae7f,001,2021-08-01_12h27.40.747,arrow_simon_norep,2021.1.2,Win32,59.52735282,,,,,,,,,,,,,,,,,,,,,,,,,,,,,,,,,,,,,,
,,,o,1,1.0517,0,0.063511232,#a3d0fb,,right_blue.png,o,3,2,14,1,1,o,right_blue.png,right_orange.png,p,right,60fd201ddecfacd72eccae7f,001,2021-08-01_12h27.40.747,arrow_simon_norep,2021.1.2,Win32,59.52735282,,,,,,,,,,,,,,,,,,,,,,,,,,,,,,,,,,,,,,
,,,q,1,1.101,0,0.318334965,#f3af84,,left_orange.png,q,3,3,15,2,1,w,left_blue.png,left_orange.png,q,left,60fd201ddecfacd72eccae7f,001,2021-08-01_12h27.40.747,arrow_simon_norep,2021.1.2,Win32,59.52735282,,,,,,,,,,,,,,,,,,,,,,,,,,,,,,,,,,,,,,
,,,w,1,1.9843,0,0.911480609,#a3d0fb,,left_blue.png,w,4,0,16,3,1,w,left_blue.png,left_orange.png,q,right,60fd201ddecfacd72eccae7f,001,2021-08-01_12h27.40.747,arrow_simon_norep,2021.1.2,Win32,59.52735282,,,,,,,,,,,,,,,,,,,,,,,,,,,,,,,,,,,,,,
,,,q,1,1.2503,0,0.520116295,#f3af84,,left_orange.png,q,4,1,17,3,1,w,left_blue.png,left_orange.png,q,right,60fd201ddecfacd72eccae7f,001,2021-08-01_12h27.40.747,arrow_simon_norep,2021.1.2,Win32,59.52735282,,,,,,,,,,,,,,,,,,,,,,,,,,,,,,,,,,,,,,
,,,w,1,0.9343,0,0.147007747,#a3d0fb,,left_blue.png,w,4,2,18,2,1,w,left_blue.png,left_orange.png,q,left,60fd201ddecfacd72eccae7f,001,2021-08-01_12h27.40.747,arrow_simon_norep,2021.1.2,Win32,59.52735282,,,,,,,,,,,,,,,,,,,,,,,,,,,,,,,,,,,,,,
,,,p,1,1.9678,0,0.957671568,#f3af84,,right_orange.png,p,4,3,19,0,1,o,right_blue.png,right_orange.png,p,left,60fd201ddecfacd72eccae7f,001,2021-08-01_12h27.40.747,arrow_simon_norep,2021.1.2,Win32,59.52735282,,,,,,,,,,,,,,,,,,,,,,,,,,,,,,,,,,,,,,
,,,w,1,1.6184,0,0.800202336,#a3d0fb,,left_blue.png,w,5,0,20,2,1,w,left_blue.png,left_orange.png,q,left,60fd201ddecfacd72eccae7f,001,2021-08-01_12h27.40.747,arrow_simon_norep,2021.1.2,Win32,59.52735282,,,,,,,,,,,,,,,,,,,,,,,,,,,,,,,,,,,,,,
,,,q,1,1.0512,0,0.4506554,#f3af84,,left_orange.png,q,5,1,21,2,1,w,left_blue.png,left_orange.png,q,left,60fd201ddecfacd72eccae7f,001,2021-08-01_12h27.40.747,arrow_simon_norep,2021.1.2,Win32,59.52735282,,,,,,,,,,,,,,,,,,,,,,,,,,,,,,,,,,,,,,
,,,w,1,1.7846,0,0.948466608,#a3d0fb,,left_blue.png,w,5,2,22,3,1,w,left_blue.png,left_orange.png,q,right,60fd201ddecfacd72eccae7f,001,2021-08-01_12h27.40.747,arrow_simon_norep,2021.1.2,Win32,59.52735282,,,,,,,,,,,,,,,,,,,,,,,,,,,,,,,,,,,,,,
,,,q,1,1.3012,0,0.517794543,#f3af84,,left_orange.png,q,5,3,23,3,1,w,left_blue.png,left_orange.png,q,right,60fd201ddecfacd72eccae7f,001,2021-08-01_12h27.40.747,arrow_simon_norep,2021.1.2,Win32,59.52735282,,,,,,,,,,,,,,,,,,,,,,,,,,,,,,,,,,,,,,
,,,o,1,0.818,0,0.139410797,#a3d0fb,,right_blue.png,o,6,0,24,1,1,o,right_blue.png,right_orange.png,p,right,60fd201ddecfacd72eccae7f,001,2021-08-01_12h27.40.747,arrow_simon_norep,2021.1.2,Win32,59.52735282,,,,,,,,,,,,,,,,,,,,,,,,,,,,,,,,,,,,,,
,,,q,1,1.3184,0,0.360339425,#f3af84,,left_orange.png,q,6,1,25,3,1,w,left_blue.png,left_orange.png,q,right,60fd201ddecfacd72eccae7f,001,2021-08-01_12h27.40.747,arrow_simon_norep,2021.1.2,Win32,59.52735282,,,,,,,,,,,,,,,,,,,,,,,,,,,,,,,,,,,,,,
,,,o,1,1.0165,0,0.329240515,#a3d0fb,,right_blue.png,o,6,2,26,1,1,o,right_blue.png,right_orange.png,p,right,60fd201ddecfacd72eccae7f,001,2021-08-01_12h27.40.747,arrow_simon_norep,2021.1.2,Win32,59.52735282,,,,,,,,,,,,,,,,,,,,,,,,,,,,,,,,,,,,,,
,,,p,1,1.0342,0,0.270407234,#f3af84,,right_orange.png,p,6,3,27,1,1,o,right_blue.png,right_orange.png,p,right,60fd201ddecfacd72eccae7f,001,2021-08-01_12h27.40.747,arrow_simon_norep,2021.1.2,Win32,59.52735282,,,,,,,,,,,,,,,,,,,,,,,,,,,,,,,,,,,,,,
,,,o,1,1.7342,0,0.491459649,#a3d0fb,,right_blue.png,o,7,0,28,1,1,o,right_blue.png,right_orange.png,p,right,60fd201ddecfacd72eccae7f,001,2021-08-01_12h27.40.747,arrow_simon_norep,2021.1.2,Win32,59.52735282,,,,,,,,,,,,,,,,,,,,,,,,,,,,,,,,,,,,,,
,,,q,1,1.1014,0,0.357160291,#f3af84,,left_orange.png,q,7,1,29,2,1,w,left_blue.png,left_orange.png,q,left,60fd201ddecfacd72eccae7f,001,2021-08-01_12h27.40.747,arrow_simon_norep,2021.1.2,Win32,59.52735282,,,,,,,,,,,,,,,,,,,,,,,,,,,,,,,,,,,,,,
,,,o,1,1.2343,0,0.286076354,#a3d0fb,,right_blue.png,o,7,2,30,1,1,o,right_blue.png,right_orange.png,p,right,60fd201ddecfacd72eccae7f,001,2021-08-01_12h27.40.747,arrow_simon_norep,2021.1.2,Win32,59.52735282,,,,,,,,,,,,,,,,,,,,,,,,,,,,,,,,,,,,,,
,,,q,1,1.5509,0,0.768379876,#f3af84,,left_orange.png,q,7,3,31,2,1,w,left_blue.png,left_orange.png,q,left,60fd201ddecfacd72eccae7f,001,2021-08-01_12h27.40.747,arrow_simon_norep,2021.1.2,Win32,59.52735282,,,,,,,,,,,,,,,,,,,,,,,,,,,,,,,,,,,,,,
,,,w,0,0.918,1,0.28399828,#a3d0fb,,right_blue.png,o,8,0,32,0,1,o,right_blue.png,right_orange.png,p,left,60fd201ddecfacd72eccae7f,001,2021-08-01_12h27.40.747,arrow_simon_norep,2021.1.2,Win32,59.52735282,,,,,,,,,,,,,,,,,,,,,,,,,,,,,,,,,,,,,,
,,,q,1,1.3176,0,0.71726301,#f3af84,,left_orange.png,q,8,1,33,2,1,w,left_blue.png,left_orange.png,q,left,60fd201ddecfacd72eccae7f,001,2021-08-01_12h27.40.747,arrow_simon_norep,2021.1.2,Win32,59.52735282,,,,,,,,,,,,,,,,,,,,,,,,,,,,,,,,,,,,,,
,,,w,1,1.8018,0,0.716575643,#a3d0fb,,left_blue.png,w,8,2,34,2,1,w,left_blue.png,left_orange.png,q,left,60fd201ddecfacd72eccae7f,001,2021-08-01_12h27.40.747,arrow_simon_norep,2021.1.2,Win32,59.52735282,,,,,,,,,,,,,,,,,,,,,,,,,,,,,,,,,,,,,,
,,,q,1,0.9181,0,0.154260114,#f3af84,,left_orange.png,q,8,3,35,3,1,w,left_blue.png,left_orange.png,q,right,60fd201ddecfacd72eccae7f,001,2021-08-01_12h27.40.747,arrow_simon_norep,2021.1.2,Win32,59.52735282,,,,,,,,,,,,,,,,,,,,,,,,,,,,,,,,,,,,,,
,,,w,1,2.2514,0,0.910724276,#a3d0fb,,left_blue.png,w,9,0,36,2,1,w,left_blue.png,left_orange.png,q,left,60fd201ddecfacd72eccae7f,001,2021-08-01_12h27.40.747,arrow_simon_norep,2021.1.2,Win32,59.52735282,,,,,,,,,,,,,,,,,,,,,,,,,,,,,,,,,,,,,,
,,,p,1,2.2358,0,0.91238671,#f3af84,,right_orange.png,p,9,1,37,0,1,o,right_blue.png,right_orange.png,p,left,60fd201ddecfacd72eccae7f,001,2021-08-01_12h27.40.747,arrow_simon_norep,2021.1.2,Win32,59.52735282,,,,,,,,,,,,,,,,,,,,,,,,,,,,,,,,,,,,,,
,,,o,1,0.8842,0,0.305641206,#a3d0fb,,right_blue.png,o,9,2,38,0,1,o,right_blue.png,right_orange.png,p,left,60fd201ddecfacd72eccae7f,001,2021-08-01_12h27.40.747,arrow_simon_norep,2021.1.2,Win32,59.52735282,,,,,,,,,,,,,,,,,,,,,,,,,,,,,,,,,,,,,,
,,,p,1,1.3175,0,0.597794171,#f3af84,,right_orange.png,p,9,3,39,0,1,o,right_blue.png,right_orange.png,p,left,60fd201ddecfacd72eccae7f,001,2021-08-01_12h27.40.747,arrow_simon_norep,2021.1.2,Win32,59.52735282,,,,,,,,,,,,,,,,,,,,,,,,,,,,,,,,,,,,,,
,,,w,1,1.951,0,0.724268876,#a3d0fb,,left_blue.png,w,10,0,40,2,1,w,left_blue.png,left_orange.png,q,left,60fd201ddecfacd72eccae7f,001,2021-08-01_12h27.40.747,arrow_simon_norep,2021.1.2,Win32,59.52735282,,,,,,,,,,,,,,,,,,,,,,,,,,,,,,,,,,,,,,
,,,p,1,1.2179,0,0.497365213,#f3af84,,right_orange.png,p,10,1,41,1,1,o,right_blue.png,right_orange.png,p,right,60fd201ddecfacd72eccae7f,001,2021-08-01_12h27.40.747,arrow_simon_norep,2021.1.2,Win32,59.52735282,,,,,,,,,,,,,,,,,,,,,,,,,,,,,,,,,,,,,,
,,,o,1,2.1348,0,0.766316994,#a3d0fb,,right_blue.png,o,10,2,42,0,1,o,right_blue.png,right_orange.png,p,left,60fd201ddecfacd72eccae7f,001,2021-08-01_12h27.40.747,arrow_simon_norep,2021.1.2,Win32,59.52735282,,,,,,,,,,,,,,,,,,,,,,,,,,,,,,,,,,,,,,
,,,p,1,1.618,0,0.856401773,#f3af84,,right_orange.png,p,10,3,43,1,1,o,right_blue.png,right_orange.png,p,right,60fd201ddecfacd72eccae7f,001,2021-08-01_12h27.40.747,arrow_simon_norep,2021.1.2,Win32,59.52735282,,,,,,,,,,,,,,,,,,,,,,,,,,,,,,,,,,,,,,
,,,o,1,2.218,0,0.846515471,#a3d0fb,,right_blue.png,o,11,0,44,1,1,o,right_blue.png,right_orange.png,p,right,60fd201ddecfacd72eccae7f,001,2021-08-01_12h27.40.747,arrow_simon_norep,2021.1.2,Win32,59.52735282,,,,,,,,,,,,,,,,,,,,,,,,,,,,,,,,,,,,,,
,,,q,1,1.1175,0,0.372318475,#f3af84,,left_orange.png,q,11,1,45,2,1,w,left_blue.png,left_orange.png,q,left,60fd201ddecfacd72eccae7f,001,2021-08-01_12h27.40.747,arrow_simon_norep,2021.1.2,Win32,59.52735282,,,,,,,,,,,,,,,,,,,,,,,,,,,,,,,,,,,,,,
,,,o,1,1.3342,0,0.365584153,#a3d0fb,,right_blue.png,o,11,2,46,1,1,o,right_blue.png,right_orange.png,p,right,60fd201ddecfacd72eccae7f,001,2021-08-01_12h27.40.747,arrow_simon_norep,2021.1.2,Win32,59.52735282,,,,,,,,,,,,,,,,,,,,,,,,,,,,,,,,,,,,,,
,,,p,1,1.1347,0,0.414437113,#f3af84,,right_orange.png,p,11,3,47,1,1,o,right_blue.png,right_orange.png,p,right,60fd201ddecfacd72eccae7f,001,2021-08-01_12h27.40.747,arrow_simon_norep,2021.1.2,Win32,59.52735282,,,,,,,,,,,,,,,,,,,,,,,,,,,,,,,,,,,,,,
,,,o,1,1.001,0,0.389944106,#a3d0fb,,right_blue.png,o,12,0,48,1,1,o,right_blue.png,right_orange.png,p,right,60fd201ddecfacd72eccae7f,001,2021-08-01_12h27.40.747,arrow_simon_norep,2021.1.2,Win32,59.52735282,,,,,,,,,,,,,,,,,,,,,,,,,,,,,,,,,,,,,,
,,,p,1,1.0344,0,0.292102693,#f3af84,,right_orange.png,p,12,1,49,0,1,o,right_blue.png,right_orange.png,p,left,60fd201ddecfacd72eccae7f,001,2021-08-01_12h27.40.747,arrow_simon_norep,2021.1.2,Win32,59.52735282,,,,,,,,,,,,,,,,,,,,,,,,,,,,,,,,,,,,,,
,,,o,1,1.2181,0,0.529245916,#a3d0fb,,right_blue.png,o,12,2,50,1,1,o,right_blue.png,right_orange.png,p,right,60fd201ddecfacd72eccae7f,001,2021-08-01_12h27.40.747,arrow_simon_norep,2021.1.2,Win32,59.52735282,,,,,,,,,,,,,,,,,,,,,,,,,,,,,,,,,,,,,,
,,,p,1,1.168,0,0.508025971,#f3af84,,right_orange.png,p,12,3,51,0,1,o,right_blue.png,right_orange.png,p,left,60fd201ddecfacd72eccae7f,001,2021-08-01_12h27.40.747,arrow_simon_norep,2021.1.2,Win32,59.52735282,,,,,,,,,,,,,,,,,,,,,,,,,,,,,,,,,,,,,,
,,,w,1,1.2512,0,0.44253126,#a3d0fb,,left_blue.png,w,13,0,52,3,1,w,left_blue.png,left_orange.png,q,right,60fd201ddecfacd72eccae7f,001,2021-08-01_12h27.40.747,arrow_simon_norep,2021.1.2,Win32,59.52735282,,,,,,,,,,,,,,,,,,,,,,,,,,,,,,,,,,,,,,
,,,q,1,1.351,0,0.569660105,#f3af84,,left_orange.png,q,13,1,53,3,1,w,left_blue.png,left_orange.png,q,right,60fd201ddecfacd72eccae7f,001,2021-08-01_12h27.40.747,arrow_simon_norep,2021.1.2,Win32,59.52735282,,,,,,,,,,,,,,,,,,,,,,,,,,,,,,,,,,,,,,
,,,o,1,0.8836,0,0.152852677,#a3d0fb,,right_blue.png,o,13,2,54,0,1,o,right_blue.png,right_orange.png,p,left,60fd201ddecfacd72eccae7f,001,2021-08-01_12h27.40.747,arrow_simon_norep,2021.1.2,Win32,59.52735282,,,,,,,,,,,,,,,,,,,,,,,,,,,,,,,,,,,,,,
,,,p,1,1.8015,0,0.887646989,#f3af84,,right_orange.png,p,13,3,55,0,1,o,right_blue.png,right_orange.png,p,left,60fd201ddecfacd72eccae7f,001,2021-08-01_12h27.40.747,arrow_simon_norep,2021.1.2,Win32,59.52735282,,,,,,,,,,,,,,,,,,,,,,,,,,,,,,,,,,,,,,
,,,o,1,1.4349,0,0.156459654,#a3d0fb,,right_blue.png,o,14,0,56,0,1,o,right_blue.png,right_orange.png,p,left,60fd201ddecfacd72eccae7f,001,2021-08-01_12h27.40.747,arrow_simon_norep,2021.1.2,Win32,59.52735282,,,,,,,,,,,,,,,,,,,,,,,,,,,,,,,,,,,,,,
,,,q,1,1.3516,0,0.434353531,#f3af84,,left_orange.png,q,14,1,57,3,1,w,left_blue.png,left_orange.png,q,right,60fd201ddecfacd72eccae7f,001,2021-08-01_12h27.40.747,arrow_simon_norep,2021.1.2,Win32,59.52735282,,,,,,,,,,,,,,,,,,,,,,,,,,,,,,,,,,,,,,
,,,w,1,0.8511,0,0.166456835,#a3d0fb,,left_blue.png,w,14,2,58,3,1,w,left_blue.png,left_orange.png,q,right,60fd201ddecfacd72eccae7f,001,2021-08-01_12h27.40.747,arrow_simon_norep,2021.1.2,Win32,59.52735282,,,,,,,,,,,,,,,,,,,,,,,,,,,,,,,,,,,,,,
,,,q,1,1.0024,0,0.388400882,#f3af84,,left_orange.png,q,14,3,59,3,1,w,left_blue.png,left_orange.png,q,right,60fd201ddecfacd72eccae7f,001,2021-08-01_12h27.40.747,arrow_simon_norep,2021.1.2,Win32,59.52735282,,,,,,,,,,,,,,,,,,,,,,,,,,,,,,,,,,,,,,
,,,,,,,,,,,,,,,,,,,,,,60fd201ddecfacd72eccae7f,001,2021-08-01_12h27.40.747,arrow_simon_norep,2021.1.2,Win32,59.52735282,space,9.2674,1,0,1,0,1,,,,,,,,,,,,,,,,,,,,,,,,,,,,,,,
,,,,,,,,,,,,,,,,,,,,,,60fd201ddecfacd72eccae7f,001,2021-08-01_12h27.40.747,arrow_simon_norep,2021.1.2,Win32,59.52735282,,,,,,,,space,0,64.7462,w,2.7487,0,0,0,0,1,,,,,,,,,,,,,,,,,,,,,
,,,,,,,,,,,,,,,,,,,,,,60fd201ddecfacd72eccae7f,001,2021-08-01_12h27.40.747,arrow_simon_norep,2021.1.2,Win32,59.52735282,,,,,,,,,,,p,2.6566,1,0,1,0,1,,,,,,,,,,,,,,,,,,,,,
,,,,,,,,,,,,,,,,,,,,,,60fd201ddecfacd72eccae7f,001,2021-08-01_12h27.40.747,arrow_simon_norep,2021.1.2,Win32,59.52735282,,,,,,,,,,,w,2.6238,2,0,2,0,1,,,,,,,,,,,,,,,,,,,,,
,,,,,,,,,,,,,,,,,,,,,,60fd201ddecfacd72eccae7f,001,2021-08-01_12h27.40.747,arrow_simon_norep,2021.1.2,Win32,59.52735282,,,,,,,,,,,p,2.6285,3,0,3,0,1,,,,,,,,,,,,,,,,,,,,,
,,,,,,,,,,,,,,,,,,,,,,60fd201ddecfacd72eccae7f,001,2021-08-01_12h27.40.747,arrow_simon_norep,2021.1.2,Win32,59.52735282,,,,,,,,,,,w,2.7178,4,0,4,0,1,,,,,,,,,,,,,,,,,,,,,
,,,,,,,,,,,,,,,,,,,,,,60fd201ddecfacd72eccae7f,001,2021-08-01_12h27.40.747,arrow_simon_norep,2021.1.2,Win32,59.52735282,,,,,,,,,,,w,2.5674,5,0,5,0,1,,,,,,,,,,,,,,,,,,,,,
,,,,,,,,,,,,,,,,,,,,,,60fd201ddecfacd72eccae7f,001,2021-08-01_12h27.40.747,arrow_simon_norep,2021.1.2,Win32,59.52735282,,,,,,,,,,,w,2.5174,6,0,6,0,1,,,,,,,,,,,,,,,,,,,,,
,,,,,,,,,,,,,,,,,,,,,,60fd201ddecfacd72eccae7f,001,2021-08-01_12h27.40.747,arrow_simon_norep,2021.1.2,Win32,59.52735282,,,,,,,,,,,o,2.5009,7,0,7,0,1,,,,,,,,,,,,,,,,,,,,,
,,,,,,,,,,,,,,,,,,,,,,60fd201ddecfacd72eccae7f,001,2021-08-01_12h27.40.747,arrow_simon_norep,2021.1.2,Win32,59.52735282,,,,,,,,,,,w,2.5015,8,0,8,0,1,,,,,,,,,,,,,,,,,,,,,
,,,,,,,,,,,,,,,,,,,,,,60fd201ddecfacd72eccae7f,001,2021-08-01_12h27.40.747,arrow_simon_norep,2021.1.2,Win32,59.52735282,,,,,,,,,,,p,2.3179,9,0,9,0,1,,,,,,,,,,,,,,,,,,,,,
,,,,,,,,,,,,,,,,,,,,,,60fd201ddecfacd72eccae7f,001,2021-08-01_12h27.40.747,arrow_simon_norep,2021.1.2,Win32,59.52735282,,,,,,,,,,,w,2.6034,10,0,10,0,1,,,,,,,,,,,,,,,,,,,,,
,,,,,,,,,,,,,,,,,,,,,,60fd201ddecfacd72eccae7f,001,2021-08-01_12h27.40.747,arrow_simon_norep,2021.1.2,Win32,59.52735282,,,,,,,,,,,w,2.5013,11,0,11,0,1,,,,,,,,,,,,,,,,,,,,,
,,,,,,,,,,,,,,,,,,,,,,60fd201ddecfacd72eccae7f,001,2021-08-01_12h27.40.747,arrow_simon_norep,2021.1.2,Win32,59.52735282,,,,,,,,,,,o,2.501,12,0,12,0,1,,,,,,,,,,,,,,,,,,,,,
,,,,,,,,,,,,,,,,,,,,,,60fd201ddecfacd72eccae7f,001,2021-08-01_12h27.40.747,arrow_simon_norep,2021.1.2,Win32,59.52735282,,,,,,,,,,,o,2.4346,13,0,13,0,1,,,,,,,,,,,,,,,,,,,,,
,,,,,,,,,,,,,,,,,,,,,,60fd201ddecfacd72eccae7f,001,2021-08-01_12h27.40.747,arrow_simon_norep,2021.1.2,Win32,59.52735282,,,,,,,,,,,o,2.5513,14,0,14,0,1,,,,,,,,,,,,,,,,,,,,,
,,,,,,,,,,,,,,,,,,,,,,60fd201ddecfacd72eccae7f,001,2021-08-01_12h27.40.747,arrow_simon_norep,2021.1.2,Win32,59.52735282,,,,,,,,,,,w,2.5514,15,0,15,0,1,,,,,,,,,,,,,,,,,,,,,
,,,,,,,,,,,,,,,,,,,,,,60fd201ddecfacd72eccae7f,001,2021-08-01_12h27.40.747,arrow_simon_norep,2021.1.2,Win32,59.52735282,,,,,,,,,,,o,2.5839,16,0,16,0,1,,,,,,,,,,,,,,,,,,,,,
,,,,,,,,,,,,,,,,,,,,,,60fd201ddecfacd72eccae7f,001,2021-08-01_12h27.40.747,arrow_simon_norep,2021.1.2,Win32,59.52735282,,,,,,,,,,,o,2.6182,17,0,17,0,1,,,,,,,,,,,,,,,,,,,,,
,,,,,,,,,,,,,,,,,,,,,,60fd201ddecfacd72eccae7f,001,2021-08-01_12h27.40.747,arrow_simon_norep,2021.1.2,Win32,59.52735282,,,,,,,,,,,p,2.5008,18,0,18,0,1,,,,,,,,,,,,,,,,,,,,,
,,,,,,,,,,,,,,,,,,,,,,60fd201ddecfacd72eccae7f,001,2021-08-01_12h27.40.747,arrow_simon_norep,2021.1.2,Win32,59.52735282,,,,,,,,,,,p,2.5011,19,0,19,0,1,,,,,,,,,,,,,,,,,,,,,
,,,,,,,,,,,,,,,,,,,,,,60fd201ddecfacd72eccae7f,001,2021-08-01_12h27.40.747,arrow_simon_norep,2021.1.2,Win32,59.52735282,,,,,,,,,,,p,2.4847,20,0,20,0,1,,,,,,,,,,,,,,,,,,,,,
,,,,,,,,,,,,,,,,,,,,,,60fd201ddecfacd72eccae7f,001,2021-08-01_12h27.40.747,arrow_simon_norep,2021.1.2,Win32,59.52735282,,,,,,,,,,,w,2.535,21,0,21,0,1,,,,,,,,,,,,,,,,,,,,,
,,,,,,,,,,,,,,,,,,,,,,60fd201ddecfacd72eccae7f,001,2021-08-01_12h27.40.747,arrow_simon_norep,2021.1.2,Win32,59.52735282,,,,,,,,,,,p,2.5702,22,0,22,0,1,,,,,,,,,,,,,,,,,,,,,
,,,,,,,,,,,,,,,,,,,,,,60fd201ddecfacd72eccae7f,001,2021-08-01_12h27.40.747,arrow_simon_norep,2021.1.2,Win32,59.52735282,,,,,,,,,,,w,2.3186,23,0,23,0,1,,,,,,,,,,,,,,,,,,,,,
,,,,,,,,,,,,,,,,,,,,,,60fd201ddecfacd72eccae7f,001,2021-08-01_12h27.40.747,arrow_simon_norep,2021.1.2,Win32,59.52735282,,,,,,,,,,,p,2.6181,24,0,24,0,1,,,,,,,,,,,,,,,,,,,,,
,,,,,,,,,,,,,,,,,,,,,,60fd201ddecfacd72eccae7f,001,2021-08-01_12h27.40.747,arrow_simon_norep,2021.1.2,Win32,59.52735282,,,,,,,,,,,w,2.4674,25,0,25,0,1,,,,,,,,,,,,,,,,,,,,,
,,,,,,,,,,,,,,,,,,,,,,60fd201ddecfacd72eccae7f,001,2021-08-01_12h27.40.747,arrow_simon_norep,2021.1.2,Win32,59.52735282,,,,,,,,,,,p,2.4458,26,0,26,0,1,,,,,,,,,,,,,,,,,,,,,
,,,,,,,,,,,,,,,,,,,,,,60fd201ddecfacd72eccae7f,001,2021-08-01_12h27.40.747,arrow_simon_norep,2021.1.2,Win32,59.52735282,,,,,,,,,,,o,2.5171,27,0,27,0,1,,,,,,,,,,,,,,,,,,,,,
,,,,,,,,,,,,,,,,,,,,,,60fd201ddecfacd72eccae7f,001,2021-08-01_12h27.40.747,arrow_simon_norep,2021.1.2,Win32,59.52735282,,,,,,,,,,,p,2.5013,28,0,28,0,1,,,,,,,,,,,,,,,,,,,,,
,,,,,,,,,,,,,,,,,,,,,,60fd201ddecfacd72eccae7f,001,2021-08-01_12h27.40.747,arrow_simon_norep,2021.1.2,Win32,59.52735282,,,,,,,,,,,q,2.5768,29,0,29,0,1,,,,,,,,,,,,,,,,,,,,,
,,,,,,,,,,,,,,,,,,,,,,60fd201ddecfacd72eccae7f,001,2021-08-01_12h27.40.747,arrow_simon_norep,2021.1.2,Win32,59.52735282,,,,,,,,,,,p,2.6848,30,0,30,0,1,,,,,,,,,,,,,,,,,,,,,
,,,,,,,,,,,,,,,,,,,,,,60fd201ddecfacd72eccae7f,001,2021-08-01_12h27.40.747,arrow_simon_norep,2021.1.2,Win32,59.52735282,,,,,,,,,,,q,2.5614,31,0,31,0,1,,,,,,,,,,,,,,,,,,,,,
,,,,,,,,,,,,,,,,,,,,,,60fd201ddecfacd72eccae7f,001,2021-08-01_12h27.40.747,arrow_simon_norep,2021.1.2,Win32,59.52735282,,,,,,,,,,,q,2.6345,32,0,32,0,1,,,,,,,,,,,,,,,,,,,,,
,,,,,,,,,,,,,,,,,,,,,,60fd201ddecfacd72eccae7f,001,2021-08-01_12h27.40.747,arrow_simon_norep,2021.1.2,Win32,59.52735282,,,,,,,,,,,p,2.065,33,0,33,0,1,,,,,,,,,,,,,,,,,,,,,
,,,,,,,,,,,,,,,,,,,,,,60fd201ddecfacd72eccae7f,001,2021-08-01_12h27.40.747,arrow_simon_norep,2021.1.2,Win32,59.52735282,,,,,,,,,,,p,2.6124,34,0,34,0,1,,,,,,,,,,,,,,,,,,,,,
,,,,,,,,,,,,,,,,,,,,,,60fd201ddecfacd72eccae7f,001,2021-08-01_12h27.40.747,arrow_simon_norep,2021.1.2,Win32,59.52735282,,,,,,,,,,,q,2.5843,35,0,35,0,1,,,,,,,,,,,,,,,,,,,,,
,,,,,,,,,,,,,,,,,,,,,,60fd201ddecfacd72eccae7f,001,2021-08-01_12h27.40.747,arrow_simon_norep,2021.1.2,Win32,59.52735282,,,,,,,,,,,p,1.6189,36,0,36,0,1,,,,,,,,,,,,,,,,,,,,,
,,,,,,,,,,,,,,,,,,,,,,60fd201ddecfacd72eccae7f,001,2021-08-01_12h27.40.747,arrow_simon_norep,2021.1.2,Win32,59.52735282,,,,,,,,,,,q,2.6171,37,0,37,0,1,,,,,,,,,,,,,,,,,,,,,
,,,,,,,,,,,,,,,,,,,,,,60fd201ddecfacd72eccae7f,001,2021-08-01_12h27.40.747,arrow_simon_norep,2021.1.2,Win32,59.52735282,,,,,,,,,,,o,2.6845,38,0,38,0,1,,,,,,,,,,,,,,,,,,,,,
,,,,,,,,,,,,,,,,,,,,,,60fd201ddecfacd72eccae7f,001,2021-08-01_12h27.40.747,arrow_simon_norep,2021.1.2,Win32,59.52735282,,,,,,,,,,,o,2.6352,39,0,39,0,1,,,,,,,,,,,,,,,,,,,,,
,,,,,,,,,,,,,,,,,,,,,,60fd201ddecfacd72eccae7f,001,2021-08-01_12h27.40.747,arrow_simon_norep,2021.1.2,Win32,59.52735282,,,,,,,,,,,p,0.2845,40,0,40,0,1,,,,,,,,,,,,,,,,,,,,,
,,,,,,,,,,,,,,,,,,,,,,60fd201ddecfacd72eccae7f,001,2021-08-01_12h27.40.747,arrow_simon_norep,2021.1.2,Win32,59.52735282,,,,,,,,,,,o,2.651,41,0,41,0,1,,,,,,,,,,,,,,,,,,,,,
,,,,,,,,,,,,,,,,,,,,,,60fd201ddecfacd72eccae7f,001,2021-08-01_12h27.40.747,arrow_simon_norep,2021.1.2,Win32,59.52735282,,,,,,,,,,,w,2.5534,42,0,42,0,1,,,,,,,,,,,,,,,,,,,,,
,,,,,,,,,,,,,,,,,,,,,,60fd201ddecfacd72eccae7f,001,2021-08-01_12h27.40.747,arrow_simon_norep,2021.1.2,Win32,59.52735282,,,,,,,,,,,q,2.5269,43,0,43,0,1,,,,,,,,,,,,,,,,,,,,,
,,,,,,,,,,,,,,,,,,,,,,60fd201ddecfacd72eccae7f,001,2021-08-01_12h27.40.747,arrow_simon_norep,2021.1.2,Win32,59.52735282,,,,,,,,,,,q,2.6204,44,0,44,0,1,,,,,,,,,,,,,,,,,,,,,
,,,,,,,,,,,,,,,,,,,,,,60fd201ddecfacd72eccae7f,001,2021-08-01_12h27.40.747,arrow_simon_norep,2021.1.2,Win32,59.52735282,,,,,,,,,,,p,2.6333,45,0,45,0,1,,,,,,,,,,,,,,,,,,,,,
,,,,,,,,,,,,,,,,,,,,,,60fd201ddecfacd72eccae7f,001,2021-08-01_12h27.40.747,arrow_simon_norep,2021.1.2,Win32,59.52735282,,,,,,,,,,,p,2.0799,46,0,46,0,1,,,,,,,,,,,,,,,,,,,,,
,,,,,,,,,,,,,,,,,,,,,,60fd201ddecfacd72eccae7f,001,2021-08-01_12h27.40.747,arrow_simon_norep,2021.1.2,Win32,59.52735282,,,,,,,,,,,p,2.5674,47,0,47,0,1,,,,,,,,,,,,,,,,,,,,,
,,,,,,,,,,,,,,,,,,,,,,60fd201ddecfacd72eccae7f,001,2021-08-01_12h27.40.747,arrow_simon_norep,2021.1.2,Win32,59.52735282,,,,,,,,,,,p,2.5516,48,0,48,0,1,,,,,,,,,,,,,,,,,,,,,
,,,,,,,,,,,,,,,,,,,,,,60fd201ddecfacd72eccae7f,001,2021-08-01_12h27.40.747,arrow_simon_norep,2021.1.2,Win32,59.52735282,,,,,,,,,,,q,2.6358,49,0,49,0,1,,,,,,,,,,,,,,,,,,,,,
,,,,,,,,,,,,,,,,,,,,,,60fd201ddecfacd72eccae7f,001,2021-08-01_12h27.40.747,arrow_simon_norep,2021.1.2,Win32,59.52735282,,,,,,,,,,,o,2.5348,50,0,50,0,1,,,,,,,,,,,,,,,,,,,,,
,,,,,,,,,,,,,,,,,,,,,,60fd201ddecfacd72eccae7f,001,2021-08-01_12h27.40.747,arrow_simon_norep,2021.1.2,Win32,59.52735282,,,,,,,,,,,p,2.4851,51,0,51,0,1,,,,,,,,,,,,,,,,,,,,,
,,,,,,,,,,,,,,,,,,,,,,60fd201ddecfacd72eccae7f,001,2021-08-01_12h27.40.747,arrow_simon_norep,2021.1.2,Win32,59.52735282,,,,,,,,,,,p,2.5362,52,0,52,0,1,,,,,,,,,,,,,,,,,,,,,
,,,,,,,,,,,,,,,,,,,,,,60fd201ddecfacd72eccae7f,001,2021-08-01_12h27.40.747,arrow_simon_norep,2021.1.2,Win32,59.52735282,,,,,,,,,,,w,2.5187,53,0,53,0,1,,,,,,,,,,,,,,,,,,,,,
,,,,,,,,,,,,,,,,,,,,,,60fd201ddecfacd72eccae7f,001,2021-08-01_12h27.40.747,arrow_simon_norep,2021.1.2,Win32,59.52735282,,,,,,,,,,,p,2.5199,54,0,54,0,1,,,,,,,,,,,,,,,,,,,,,
,,,,,,,,,,,,,,,,,,,,,,60fd201ddecfacd72eccae7f,001,2021-08-01_12h27.40.747,arrow_simon_norep,2021.1.2,Win32,59.52735282,,,,,,,,,,,q,2.4343,55,0,55,0,1,,,,,,,,,,,,,,,,,,,,,
,,,,,,,,,,,,,,,,,,,,,,60fd201ddecfacd72eccae7f,001,2021-08-01_12h27.40.747,arrow_simon_norep,2021.1.2,Win32,59.52735282,,,,,,,,,,,p,0.7088,56,0,56,0,1,,,,,,,,,,,,,,,,,,,,,
,,,,,,,,,,,,,,,,,,,,,,60fd201ddecfacd72eccae7f,001,2021-08-01_12h27.40.747,arrow_simon_norep,2021.1.2,Win32,59.52735282,,,,,,,,,,,q,2.3911,57,0,57,0,1,,,,,,,,,,,,,,,,,,,,,
,,,,,,,,,,,,,,,,,,,,,,60fd201ddecfacd72eccae7f,001,2021-08-01_12h27.40.747,arrow_simon_norep,2021.1.2,Win32,59.52735282,,,,,,,,,,,p,2.5061,58,0,58,0,1,,,,,,,,,,,,,,,,,,,,,
,,,,,,,,,,,,,,,,,,,,,,60fd201ddecfacd72eccae7f,001,2021-08-01_12h27.40.747,arrow_simon_norep,2021.1.2,Win32,59.52735282,,,,,,,,,,,q,2.5283,59,0,59,0,1,,,,,,,,,,,,,,,,,,,,,
,,,,,,0,1.609924117,#a3d0fb,,left_blue.png,w,,,,,,w,left_blue.png,left_orange.png,q,left,60fd201ddecfacd72eccae7f,001,2021-08-01_12h27.40.747,arrow_simon_norep,2021.1.2,Win32,59.52735282,,,,,,,,,,,,,,,,,,space,0,57.6249,w,1,1.1049,1,FALSE,TRUE,0,0,0,2,1,,,,,,,
,,,,,,0,2.492816948,#f3af84,,left_orange.png,q,,,,,,w,left_blue.png,left_orange.png,q,left,60fd201ddecfacd72eccae7f,001,2021-08-01_12h27.40.747,arrow_simon_norep,2021.1.2,Win32,59.52735282,,,,,,,,,,,,,,,,,,,,,w,0,1.835,2,TRUE,FALSE,0,1,1,2,1,,,,,,,
,,,,,,0,2.480239384,#a3d0fb,,left_blue.png,w,,,,,,w,left_blue.png,left_orange.png,q,right,60fd201ddecfacd72eccae7f,001,2021-08-01_12h27.40.747,arrow_simon_norep,2021.1.2,Win32,59.52735282,,,,,,,,,,,,,,,,,,,,,q,0,2.4524,3,TRUE,FALSE,0,2,2,3,1,,,,,,,
,,,,,,1,2.457613631,#f3af84,,right_orange.png,p,,,,,,o,right_blue.png,right_orange.png,p,left,60fd201ddecfacd72eccae7f,001,2021-08-01_12h27.40.747,arrow_simon_norep,2021.1.2,Win32,59.52735282,,,,,,,,,,,,,,,,,,,,,o,0,1.591,4,FALSE,FALSE,0,3,3,0,1,,,,,,,
,,,,,,1,1.601367196,#a3d0fb,,right_blue.png,o,,,,,,o,right_blue.png,right_orange.png,p,left,60fd201ddecfacd72eccae7f,001,2021-08-01_12h27.40.747,arrow_simon_norep,2021.1.2,Win32,59.52735282,,,,,,,,,,,,,,,,,,,,,p,0,1.6164,5,TRUE,FALSE,1,0,4,0,1,,,,,,,
,,,,,,1,1.754683467,#f3af84,,right_orange.png,p,,,,,,o,right_blue.png,right_orange.png,p,left,60fd201ddecfacd72eccae7f,001,2021-08-01_12h27.40.747,arrow_simon_norep,2021.1.2,Win32,59.52735282,,,,,,,,,,,,,,,,,,,,,p,1,1.6341,6,TRUE,FALSE,1,1,5,0,1,,,,,,,
,,,,,,0,1.533848112,#a3d0fb,,right_blue.png,o,,,,,,o,right_blue.png,right_orange.png,p,right,60fd201ddecfacd72eccae7f,001,2021-08-01_12h27.40.747,arrow_simon_norep,2021.1.2,Win32,59.52735282,,,,,,,,,,,,,,,,,,,,,o,1,1.5008,7,FALSE,FALSE,1,2,6,1,1,,,,,,,
,,,,,,0,1.73900666,#f3af84,,right_orange.png,p,,,,,,o,right_blue.png,right_orange.png,p,left,60fd201ddecfacd72eccae7f,001,2021-08-01_12h27.40.747,arrow_simon_norep,2021.1.2,Win32,59.52735282,,,,,,,,,,,,,,,,,,,,,p,1,1.5197,8,FALSE,FALSE,1,3,7,0,1,,,,,,,
,,,,,,0,2.057749177,#a3d0fb,,left_blue.png,w,,,,,,w,left_blue.png,left_orange.png,q,right,60fd201ddecfacd72eccae7f,001,2021-08-01_12h27.40.747,arrow_simon_norep,2021.1.2,Win32,59.52735282,,,,,,,,,,,,,,,,,,,,,w,1,1.4677,9,FALSE,FALSE,2,0,8,3,1,,,,,,,
,,,,,,0,1.505073954,#f3af84,,left_orange.png,q,,,,,,w,left_blue.png,left_orange.png,q,right,60fd201ddecfacd72eccae7f,001,2021-08-01_12h27.40.747,arrow_simon_norep,2021.1.2,Win32,59.52735282,,,,,,,,,,,,,,,,,,,,,q,1,1.5178,10,FALSE,FALSE,2,1,9,3,1,,,,,,,
,,,,,,0,2.075970034,#a3d0fb,,left_blue.png,w,,,,,,w,left_blue.png,left_orange.png,q,left,60fd201ddecfacd72eccae7f,001,2021-08-01_12h27.40.747,arrow_simon_norep,2021.1.2,Win32,59.52735282,,,,,,,,,,,,,,,,,,,,,w,1,1.5343,11,FALSE,FALSE,2,2,10,2,1,,,,,,,
,,,,,,0,2.026365897,#f3af84,,left_orange.png,q,,,,,,w,left_blue.png,left_orange.png,q,right,60fd201ddecfacd72eccae7f,001,2021-08-01_12h27.40.747,arrow_simon_norep,2021.1.2,Win32,59.52735282,,,,,,,,,,,,,,,,,,,,,q,1,1.6013,12,TRUE,FALSE,2,3,11,3,1,,,,,,,
,,,,,,0,2.159764332,#a3d0fb,,left_blue.png,w,,,,,,w,left_blue.png,left_orange.png,q,right,60fd201ddecfacd72eccae7f,001,2021-08-01_12h27.40.747,arrow_simon_norep,2021.1.2,Win32,59.52735282,,,,,,,,,,,,,,,,,,,,,o,0,1.8011,13,TRUE,FALSE,3,0,12,3,1,,,,,,,
,,,,,,0,1.941296339,#f3af84,,left_orange.png,q,,,,,,w,left_blue.png,left_orange.png,q,left,60fd201ddecfacd72eccae7f,001,2021-08-01_12h27.40.747,arrow_simon_norep,2021.1.2,Win32,59.52735282,,,,,,,,,,,,,,,,,,,,,q,1,1.5674,14,FALSE,FALSE,3,1,13,2,1,,,,,,,
,,,,,,0,1.673783866,#a3d0fb,,left_blue.png,w,,,,,,w,left_blue.png,left_orange.png,q,left,60fd201ddecfacd72eccae7f,001,2021-08-01_12h27.40.747,arrow_simon_norep,2021.1.2,Win32,59.52735282,,,,,,,,,,,,,,,,,,,,,w,1,1.6196,15,TRUE,FALSE,3,2,14,2,1,,,,,,,
,,,,,,0,1.648831383,#f3af84,,right_orange.png,p,,,,,,o,right_blue.png,right_orange.png,p,right,60fd201ddecfacd72eccae7f,001,2021-08-01_12h27.40.747,arrow_simon_norep,2021.1.2,Win32,59.52735282,,,,,,,,,,,,,,,,,,,,,p,1,1.4849,16,FALSE,FALSE,3,3,15,1,1,,,,,,,
,,,,,,0,2.02066668,#a3d0fb,,right_blue.png,o,,,,,,o,right_blue.png,right_orange.png,p,left,60fd201ddecfacd72eccae7f,001,2021-08-01_12h27.40.747,arrow_simon_norep,2021.1.2,Win32,59.52735282,,,,,,,,,,,,,,,,,,,,,o,1,1.602,17,TRUE,FALSE,4,0,16,0,1,,,,,,,
,,,,,,0,1.507840841,#f3af84,,right_orange.png,p,,,,,,o,right_blue.png,right_orange.png,p,right,60fd201ddecfacd72eccae7f,001,2021-08-01_12h27.40.747,arrow_simon_norep,2021.1.2,Win32,59.52735282,,,,,,,,,,,,,,,,,,,,,p,1,1.4511,18,FALSE,FALSE,4,1,17,1,1,,,,,,,
,,,,,,0,1.980700126,#a3d0fb,,right_blue.png,o,,,,,,o,right_blue.png,right_orange.png,p,left,60fd201ddecfacd72eccae7f,001,2021-08-01_12h27.40.747,arrow_simon_norep,2021.1.2,Win32,59.52735282,,,,,,,,,,,,,,,,,,,,,o,1,1.5375,19,FALSE,FALSE,4,2,18,0,1,,,,,,,
,,,,,,0,1.936458206,#f3af84,,right_orange.png,p,,,,,,o,right_blue.png,right_orange.png,p,right,60fd201ddecfacd72eccae7f,001,2021-08-01_12h27.40.747,arrow_simon_norep,2021.1.2,Win32,59.52735282,,,,,,,,,,,,,,,,,,,,,p,1,1.4008,20,FALSE,FALSE,4,3,19,1,1,,,,,,,
,,,,,,1,2.219158059,#a3d0fb,,right_blue.png,o,,,,,,o,right_blue.png,right_orange.png,p,right,60fd201ddecfacd72eccae7f,001,2021-08-01_12h27.40.747,arrow_simon_norep,2021.1.2,Win32,59.52735282,,,,,,,,,,,,,,,,,,,,,p,0,1.5846,21,FALSE,FALSE,5,0,20,1,1,,,,,,,
,,,,,,1,2.205459542,#f3af84,,left_orange.png,q,,,,,,w,left_blue.png,left_orange.png,q,left,60fd201ddecfacd72eccae7f,001,2021-08-01_12h27.40.747,arrow_simon_norep,2021.1.2,Win32,59.52735282,,,,,,,,,,,,,,,,,,,,,q,1,1.6007,22,TRUE,FALSE,5,1,21,2,1,,,,,,,
,,,,,,1,1.836070016,#a3d0fb,,right_blue.png,o,,,,,,o,right_blue.png,right_orange.png,p,right,60fd201ddecfacd72eccae7f,001,2021-08-01_12h27.40.747,arrow_simon_norep,2021.1.2,Win32,59.52735282,,,,,,,,,,,,,,,,,,,,,o,1,1.3678,23,FALSE,TRUE,5,2,22,1,1,,,,,,,
,,,,,,0,1.622007636,#f3af84,,right_orange.png,p,,,,,,o,right_blue.png,right_orange.png,p,right,60fd201ddecfacd72eccae7f,001,2021-08-01_12h27.40.747,arrow_simon_norep,2021.1.2,Win32,59.52735282,,,,,,,,,,,,,,,,,,,,,p,1,1.4021,24,FALSE,FALSE,5,3,23,1,1,,,,,,,
,,,,,,0,2.231924579,#a3d0fb,,left_blue.png,w,,,,,,w,left_blue.png,left_orange.png,q,left,60fd201ddecfacd72eccae7f,001,2021-08-01_12h27.40.747,arrow_simon_norep,2021.1.2,Win32,59.52735282,,,,,,,,,,,,,,,,,,,,,w,1,1.8012,25,TRUE,FALSE,6,0,24,2,1,,,,,,,
,,,,,,0,1.573716138,#f3af84,,right_orange.png,p,,,,,,o,right_blue.png,right_orange.png,p,left,60fd201ddecfacd72eccae7f,001,2021-08-01_12h27.40.747,arrow_simon_norep,2021.1.2,Win32,59.52735282,,,,,,,,,,,,,,,,,,,,,p,1,1.3861,26,FALSE,TRUE,6,1,25,0,1,,,,,,,
,,,,,,0,2.019259104,#a3d0fb,,right_blue.png,o,,,,,,o,right_blue.png,right_orange.png,p,right,60fd201ddecfacd72eccae7f,001,2021-08-01_12h27.40.747,arrow_simon_norep,2021.1.2,Win32,59.52735282,,,,,,,,,,,,,,,,,,,,,o,1,1.5016,27,FALSE,FALSE,6,2,26,1,1,,,,,,,
,,,,,,0,2.250467767,#f3af84,,left_orange.png,q,,,,,,w,left_blue.png,left_orange.png,q,right,60fd201ddecfacd72eccae7f,001,2021-08-01_12h27.40.747,arrow_simon_norep,2021.1.2,Win32,59.52735282,,,,,,,,,,,,,,,,,,,,,p,0,1.8183,28,TRUE,FALSE,6,3,27,3,1,,,,,,,
,,,,,,1,2.10733764,#a3d0fb,,left_blue.png,w,,,,,,w,left_blue.png,left_orange.png,q,left,60fd201ddecfacd72eccae7f,001,2021-08-01_12h27.40.747,arrow_simon_norep,2021.1.2,Win32,59.52735282,,,,,,,,,,,,,,,,,,,,,q,0,1.5845,29,FALSE,FALSE,7,0,28,2,1,,,,,,,
,,,,,,0,1.566758012,#f3af84,,right_orange.png,p,,,,,,o,right_blue.png,right_orange.png,p,right,60fd201ddecfacd72eccae7f,001,2021-08-01_12h27.40.747,arrow_simon_norep,2021.1.2,Win32,59.52735282,,,,,,,,,,,,,,,,,,,,,p,1,1.5172,30,FALSE,FALSE,7,1,29,1,1,,,,,,,
,,,,,,0,2.410693168,#a3d0fb,,left_blue.png,w,,,,,,w,left_blue.png,left_orange.png,q,left,60fd201ddecfacd72eccae7f,001,2021-08-01_12h27.40.747,arrow_simon_norep,2021.1.2,Win32,59.52735282,,,,,,,,,,,,,,,,,,,,,w,1,1.7525,31,TRUE,FALSE,7,2,30,2,1,,,,,,,
,,,,,,0,2.249156961,#f3af84,,left_orange.png,q,,,,,,w,left_blue.png,left_orange.png,q,right,60fd201ddecfacd72eccae7f,001,2021-08-01_12h27.40.747,arrow_simon_norep,2021.1.2,Win32,59.52735282,,,,,,,,,,,,,,,,,,,,,p,0,1.6184,32,TRUE,FALSE,7,3,31,3,1,,,,,,,
,,,,,,0,2.010587513,#a3d0fb,,left_blue.png,w,,,,,,w,left_blue.png,left_orange.png,q,left,60fd201ddecfacd72eccae7f,001,2021-08-01_12h27.40.747,arrow_simon_norep,2021.1.2,Win32,59.52735282,,,,,,,,,,,,,,,,,,,,,w,1,1.4343,33,FALSE,FALSE,8,0,32,2,1,,,,,,,
,,,,,,0,1.841521669,#f3af84,,right_orange.png,p,,,,,,o,right_blue.png,right_orange.png,p,right,60fd201ddecfacd72eccae7f,001,2021-08-01_12h27.40.747,arrow_simon_norep,2021.1.2,Win32,59.52735282,,,,,,,,,,,,,,,,,,,,,p,1,1.485,34,FALSE,FALSE,8,1,33,1,1,,,,,,,
,,,,,,0,1.586939083,#a3d0fb,,left_blue.png,w,,,,,,w,left_blue.png,left_orange.png,q,right,60fd201ddecfacd72eccae7f,001,2021-08-01_12h27.40.747,arrow_simon_norep,2021.1.2,Win32,59.52735282,,,,,,,,,,,,,,,,,,,,,w,1,1.5018,35,FALSE,FALSE,8,2,34,3,1,,,,,,,
,,,,,,0,2.226922749,#f3af84,,left_orange.png,q,,,,,,w,left_blue.png,left_orange.png,q,left,60fd201ddecfacd72eccae7f,001,2021-08-01_12h27.40.747,arrow_simon_norep,2021.1.2,Win32,59.52735282,,,,,,,,,,,,,,,,,,,,,q,1,1.5183,36,FALSE,FALSE,8,3,35,2,1,,,,,,,
,,,,,,0,1.69847841,#a3d0fb,,left_blue.png,w,,,,,,w,left_blue.png,left_orange.png,q,right,60fd201ddecfacd72eccae7f,001,2021-08-01_12h27.40.747,arrow_simon_norep,2021.1.2,Win32,59.52735282,,,,,,,,,,,,,,,,,,,,,w,1,1.4346,37,FALSE,FALSE,9,0,36,3,1,,,,,,,
,,,,,,0,2.356683275,#f3af84,,right_orange.png,p,,,,,,o,right_blue.png,right_orange.png,p,right,60fd201ddecfacd72eccae7f,001,2021-08-01_12h27.40.747,arrow_simon_norep,2021.1.2,Win32,59.52735282,,,,,,,,,,,,,,,,,,,,,p,1,1.619,38,TRUE,FALSE,9,1,37,1,1,,,,,,,
,,,,,,0,1.673935864,#a3d0fb,,left_blue.png,w,,,,,,w,left_blue.png,left_orange.png,q,right,60fd201ddecfacd72eccae7f,001,2021-08-01_12h27.40.747,arrow_simon_norep,2021.1.2,Win32,59.52735282,,,,,,,,,,,,,,,,,,,,,w,1,1.3349,39,FALSE,TRUE,9,2,38,3,1,,,,,,,
,,,,,,0,2.113202375,#f3af84,,right_orange.png,p,,,,,,o,right_blue.png,right_orange.png,p,right,60fd201ddecfacd72eccae7f,001,2021-08-01_12h27.40.747,arrow_simon_norep,2021.1.2,Win32,59.52735282,,,,,,,,,,,,,,,,,,,,,p,1,1.5015,40,FALSE,FALSE,9,3,39,1,1,,,,,,,
,,,,,,1,2.222055189,#a3d0fb,,right_blue.png,o,,,,,,o,right_blue.png,right_orange.png,p,left,60fd201ddecfacd72eccae7f,001,2021-08-01_12h27.40.747,arrow_simon_norep,2021.1.2,Win32,59.52735282,,,,,,,,,,,,,,,,,,,,,w,0,1.5511,41,FALSE,FALSE,10,0,40,0,1,,,,,,,
,,,,,,1,1.870929218,#f3af84,,right_orange.png,p,,,,,,o,right_blue.png,right_orange.png,p,right,60fd201ddecfacd72eccae7f,001,2021-08-01_12h27.40.747,arrow_simon_norep,2021.1.2,Win32,59.52735282,,,,,,,,,,,,,,,,,,,,,p,1,1.3501,42,FALSE,TRUE,10,1,41,1,1,,,,,,,
,,,,,,1,2.3541742,#a3d0fb,,right_blue.png,o,,,,,,o,right_blue.png,right_orange.png,p,left,60fd201ddecfacd72eccae7f,001,2021-08-01_12h27.40.747,arrow_simon_norep,2021.1.2,Win32,59.52735282,,,,,,,,,,,,,,,,,,,,,w,0,1.6513,43,TRUE,FALSE,10,2,42,0,1,,,,,,,
,,,,,,1,2.044952056,#f3af84,,right_orange.png,p,,,,,,o,right_blue.png,right_orange.png,p,left,60fd201ddecfacd72eccae7f,001,2021-08-01_12h27.40.747,arrow_simon_norep,2021.1.2,Win32,59.52735282,,,,,,,,,,,,,,,,,,,,,p,1,1.6519,44,TRUE,FALSE,10,3,43,0,1,,,,,,,
,,,,,,1,2.26363456,#a3d0fb,,left_blue.png,w,,,,,,w,left_blue.png,left_orange.png,q,right,60fd201ddecfacd72eccae7f,001,2021-08-01_12h27.40.747,arrow_simon_norep,2021.1.2,Win32,59.52735282,,,,,,,,,,,,,,,,,,,,,w,1,1.6752,45,TRUE,FALSE,11,0,44,3,1,,,,,,,
,,,,,,0,2.091128149,#f3af84,,right_orange.png,p,,,,,,o,right_blue.png,right_orange.png,p,right,60fd201ddecfacd72eccae7f,001,2021-08-01_12h27.40.747,arrow_simon_norep,2021.1.2,Win32,59.52735282,,,,,,,,,,,,,,,,,,,,,p,1,1.5193,46,FALSE,FALSE,11,1,45,1,1,,,,,,,
,,,,,,0,2.475818495,#a3d0fb,,right_blue.png,o,,,,,,o,right_blue.png,right_orange.png,p,left,60fd201ddecfacd72eccae7f,001,2021-08-01_12h27.40.747,arrow_simon_norep,2021.1.2,Win32,59.52735282,,,,,,,,,,,,,,,,,,,,,w,0,1.7125,47,TRUE,FALSE,11,2,46,0,1,,,,,,,
,,,,,,0,1.638375618,#f3af84,,left_orange.png,q,,,,,,w,left_blue.png,left_orange.png,q,left,60fd201ddecfacd72eccae7f,001,2021-08-01_12h27.40.747,arrow_simon_norep,2021.1.2,Win32,59.52735282,,,,,,,,,,,,,,,,,,,,,q,1,1.4514,48,FALSE,FALSE,11,3,47,2,1,,,,,,,
,,,,,,0,2.210026469,#a3d0fb,,left_blue.png,w,,,,,,w,left_blue.png,left_orange.png,q,right,60fd201ddecfacd72eccae7f,001,2021-08-01_12h27.40.747,arrow_simon_norep,2021.1.2,Win32,59.52735282,,,,,,,,,,,,,,,,,,,,,w,1,1.6177,49,TRUE,FALSE,12,0,48,3,1,,,,,,,
,,,,,,0,2.027269882,#f3af84,,left_orange.png,q,,,,,,w,left_blue.png,left_orange.png,q,right,60fd201ddecfacd72eccae7f,001,2021-08-01_12h27.40.747,arrow_simon_norep,2021.1.2,Win32,59.52735282,,,,,,,,,,,,,,,,,,,,,q,1,1.6613,50,TRUE,FALSE,12,1,49,3,1,,,,,,,
,,,,,,0,1.592594484,#a3d0fb,,left_blue.png,w,,,,,,w,left_blue.png,left_orange.png,q,left,60fd201ddecfacd72eccae7f,001,2021-08-01_12h27.40.747,arrow_simon_norep,2021.1.2,Win32,59.52735282,,,,,,,,,,,,,,,,,,,,,w,1,1.4353,51,FALSE,FALSE,12,2,50,2,1,,,,,,,
,,,,,,0,1.521826189,#f3af84,,right_orange.png,p,,,,,,o,right_blue.png,right_orange.png,p,left,60fd201ddecfacd72eccae7f,001,2021-08-01_12h27.40.747,arrow_simon_norep,2021.1.2,Win32,59.52735282,,,,,,,,,,,,,,,,,,,,,p,1,1.4189,52,FALSE,FALSE,12,3,51,0,1,,,,,,,
,,,,,,0,2.371423226,#a3d0fb,,left_blue.png,w,,,,,,w,left_blue.png,left_orange.png,q,right,60fd201ddecfacd72eccae7f,001,2021-08-01_12h27.40.747,arrow_simon_norep,2021.1.2,Win32,59.52735282,,,,,,,,,,,,,,,,,,,,,o,0,1.685,53,TRUE,FALSE,13,0,52,3,1,,,,,,,
,,,,,,0,1.776379175,#f3af84,,right_orange.png,p,,,,,,o,right_blue.png,right_orange.png,p,left,60fd201ddecfacd72eccae7f,001,2021-08-01_12h27.40.747,arrow_simon_norep,2021.1.2,Win32,59.52735282,,,,,,,,,,,,,,,,,,,,,p,1,1.6015,54,TRUE,FALSE,13,1,53,0,1,,,,,,,
,,,,,,0,2.173003243,#a3d0fb,,left_blue.png,w,,,,,,w,left_blue.png,left_orange.png,q,right,60fd201ddecfacd72eccae7f,001,2021-08-01_12h27.40.747,arrow_simon_norep,2021.1.2,Win32,59.52735282,,,,,,,,,,,,,,,,,,,,,w,1,1.6186,55,TRUE,FALSE,13,2,54,3,1,,,,,,,
,,,,,,0,2.30435628,#f3af84,,left_orange.png,q,,,,,,w,left_blue.png,left_orange.png,q,left,60fd201ddecfacd72eccae7f,001,2021-08-01_12h27.40.747,arrow_simon_norep,2021.1.2,Win32,59.52735282,,,,,,,,,,,,,,,,,,,,,q,1,1.5847,56,FALSE,FALSE,13,3,55,2,1,,,,,,,
,,,,,,0,1.861089685,#a3d0fb,,right_blue.png,o,,,,,,o,right_blue.png,right_orange.png,p,left,60fd201ddecfacd72eccae7f,001,2021-08-01_12h27.40.747,arrow_simon_norep,2021.1.2,Win32,59.52735282,,,,,,,,,,,,,,,,,,,,,w,0,1.3532,57,FALSE,TRUE,14,0,56,0,1,,,,,,,
,,,,,,0,1.53471463,#f3af84,,left_orange.png,q,,,,,,w,left_blue.png,left_orange.png,q,left,60fd201ddecfacd72eccae7f,001,2021-08-01_12h27.40.747,arrow_simon_norep,2021.1.2,Win32,59.52735282,,,,,,,,,,,,,,,,,,,,,q,1,1.4525,58,FALSE,FALSE,14,1,57,2,1,,,,,,,
,,,,,,0,2.26344545,#a3d0fb,,right_blue.png,o,,,,,,o,right_blue.png,right_orange.png,p,right,60fd201ddecfacd72eccae7f,001,2021-08-01_12h27.40.747,arrow_simon_norep,2021.1.2,Win32,59.52735282,,,,,,,,,,,,,,,,,,,,,o,1,1.5848,59,FALSE,FALSE,14,2,58,1,1,,,,,,,
,,,,,,0,2.007375155,#f3af84,,right_orange.png,p,,,,,,o,right_blue.png,right_orange.png,p,left,60fd201ddecfacd72eccae7f,001,2021-08-01_12h27.40.747,arrow_simon_norep,2021.1.2,Win32,59.52735282,,,,,,,,,,,,,,,,,,,,,p,1,1.5012,60,FALSE,FALSE,14,3,59,0,1,,,,,,,
,,,,,,,,,,,,,,,,,,,,,,60fd201ddecfacd72eccae7f,001,2021-08-01_12h27.40.747,arrow_simon_norep,2021.1.2,Win32,59.52735282,,,,,,,,,,,,,,,,,,,,,,,,,,,,,,,,space,59.3147,0,0,0,0,1
,,,,,,0,2.060356509,#a3d0fb,,right_blue.png,o,,,,,,o,right_blue.png,right_orange.png,p,right,60fd201ddecfacd72eccae7f,001,2021-08-01_12h27.40.747,arrow_simon_norep,2021.1.2,Win32,59.52735282,,,,,,,,,,,,,,,,,,,,,o,1,1.5341,1,FALSE,FALSE,0,0,0,1,1,,,,,,,
,,,,,,0,2.200058042,#f3af84,,right_orange.png,p,,,,,,o,right_blue.png,right_orange.png,p,left,60fd201ddecfacd72eccae7f,001,2021-08-01_12h27.40.747,arrow_simon_norep,2021.1.2,Win32,59.52735282,,,,,,,,,,,,,,,,,,,,,p,1,1.6014,2,TRUE,FALSE,0,1,1,0,1,,,,,,,
,,,,,,0,1.749093824,#a3d0fb,,left_blue.png,w,,,,,,w,left_blue.png,left_orange.png,q,left,60fd201ddecfacd72eccae7f,001,2021-08-01_12h27.40.747,arrow_simon_norep,2021.1.2,Win32,59.52735282,,,,,,,,,,,,,,,,,,,,,w,1,1.5352,3,FALSE,FALSE,0,2,2,2,1,,,,,,,
,,,,,,0,2.132395618,#f3af84,,right_orange.png,p,,,,,,o,right_blue.png,right_orange.png,p,right,60fd201ddecfacd72eccae7f,001,2021-08-01_12h27.40.747,arrow_simon_norep,2021.1.2,Win32,59.52735282,,,,,,,,,,,,,,,,,,,,,p,1,1.5346,4,FALSE,FALSE,0,3,3,1,1,,,,,,,
,,,,,,0,2.486769603,#a3d0fb,,left_blue.png,w,,,,,,w,left_blue.png,left_orange.png,q,left,60fd201ddecfacd72eccae7f,001,2021-08-01_12h27.40.747,arrow_simon_norep,2021.1.2,Win32,59.52735282,,,,,,,,,,,,,,,,,,,,,w,1,1.7183,5,TRUE,FALSE,1,0,4,2,1,,,,,,,
,,,,,,0,2.167966105,#f3af84,,right_orange.png,p,,,,,,o,right_blue.png,right_orange.png,p,right,60fd201ddecfacd72eccae7f,001,2021-08-01_12h27.40.747,arrow_simon_norep,2021.1.2,Win32,59.52735282,,,,,,,,,,,,,,,,,,,,,p,1,1.5012,6,FALSE,FALSE,1,1,5,1,1,,,,,,,
,,,,,,0,2.443774317,#a3d0fb,,right_blue.png,o,,,,,,o,right_blue.png,right_orange.png,p,right,60fd201ddecfacd72eccae7f,001,2021-08-01_12h27.40.747,arrow_simon_norep,2021.1.2,Win32,59.52735282,,,,,,,,,,,,,,,,,,,,,o,1,1.6686,7,TRUE,FALSE,1,2,6,1,1,,,,,,,
,,,,,,0,2.291295189,#f3af84,,right_orange.png,p,,,,,,o,right_blue.png,right_orange.png,p,right,60fd201ddecfacd72eccae7f,001,2021-08-01_12h27.40.747,arrow_simon_norep,2021.1.2,Win32,59.52735282,,,,,,,,,,,,,,,,,,,,,p,1,1.5511,8,FALSE,FALSE,1,3,7,1,1,,,,,,,
,,,,,,0,2.385490537,#a3d0fb,,right_blue.png,o,,,,,,o,right_blue.png,right_orange.png,p,right,60fd201ddecfacd72eccae7f,001,2021-08-01_12h27.40.747,arrow_simon_norep,2021.1.2,Win32,59.52735282,,,,,,,,,,,,,,,,,,,,,o,1,1.8354,9,TRUE,FALSE,2,0,8,1,1,,,,,,,
,,,,,,1,2.185734152,#f3af84,,right_orange.png,p,,,,,,o,right_blue.png,right_orange.png,p,left,60fd201ddecfacd72eccae7f,001,2021-08-01_12h27.40.747,arrow_simon_norep,2021.1.2,Win32,59.52735282,,,,,,,,,,,,,,,,,,,,,q,0,1.5346,10,FALSE,FALSE,2,1,9,0,1,,,,,,,
,,,,,,0,2.332648202,#a3d0fb,,left_blue.png,w,,,,,,w,left_blue.png,left_orange.png,q,left,60fd201ddecfacd72eccae7f,001,2021-08-01_12h27.40.747,arrow_simon_norep,2021.1.2,Win32,59.52735282,,,,,,,,,,,,,,,,,,,,,w,1,1.5853,11,FALSE,FALSE,2,2,10,2,1,,,,,,,
,,,,,,0,1.844056696,#f3af84,,right_orange.png,p,,,,,,o,right_blue.png,right_orange.png,p,right,60fd201ddecfacd72eccae7f,001,2021-08-01_12h27.40.747,arrow_simon_norep,2021.1.2,Win32,59.52735282,,,,,,,,,,,,,,,,,,,,,p,1,1.1997,12,FALSE,TRUE,2,3,11,1,1,,,,,,,
,,,,,,0,1.779687561,#a3d0fb,,right_blue.png,o,,,,,,o,right_blue.png,right_orange.png,p,right,60fd201ddecfacd72eccae7f,001,2021-08-01_12h27.40.747,arrow_simon_norep,2021.1.2,Win32,59.52735282,,,,,,,,,,,,,,,,,,,,,o,1,1.5351,13,FALSE,FALSE,3,0,12,1,1,,,,,,,
,,,,,,0,1.756982455,#f3af84,,left_orange.png,q,,,,,,w,left_blue.png,left_orange.png,q,left,60fd201ddecfacd72eccae7f,001,2021-08-01_12h27.40.747,arrow_simon_norep,2021.1.2,Win32,59.52735282,,,,,,,,,,,,,,,,,,,,,q,1,1.5057,14,FALSE,FALSE,3,1,13,2,1,,,,,,,
,,,,,,0,2.018252687,#a3d0fb,,right_blue.png,o,,,,,,o,right_blue.png,right_orange.png,p,right,60fd201ddecfacd72eccae7f,001,2021-08-01_12h27.40.747,arrow_simon_norep,2021.1.2,Win32,59.52735282,,,,,,,,,,,,,,,,,,,,,o,1,1.3806,15,FALSE,TRUE,3,2,14,1,1,,,,,,,
,,,,,,1,2.388084273,#f3af84,,right_orange.png,p,,,,,,o,right_blue.png,right_orange.png,p,left,60fd201ddecfacd72eccae7f,001,2021-08-01_12h27.40.747,arrow_simon_norep,2021.1.2,Win32,59.52735282,,,,,,,,,,,,,,,,,,,,,q,0,1.5757,16,FALSE,FALSE,3,3,15,0,1,,,,,,,
,,,,,,0,2.472158557,#a3d0fb,,right_blue.png,o,,,,,,o,right_blue.png,right_orange.png,p,right,60fd201ddecfacd72eccae7f,001,2021-08-01_12h27.40.747,arrow_simon_norep,2021.1.2,Win32,59.52735282,,,,,,,,,,,,,,,,,,,,,o,1,1.4451,17,FALSE,FALSE,4,0,16,1,1,,,,,,,
,,,,,,0,2.197266302,#f3af84,,left_orange.png,q,,,,,,w,left_blue.png,left_orange.png,q,left,60fd201ddecfacd72eccae7f,001,2021-08-01_12h27.40.747,arrow_simon_norep,2021.1.2,Win32,59.52735282,,,,,,,,,,,,,,,,,,,,,q,1,1.5644,18,FALSE,FALSE,4,1,17,2,1,,,,,,,
,,,,,,0,2.316517969,#a3d0fb,,left_blue.png,w,,,,,,w,left_blue.png,left_orange.png,q,left,60fd201ddecfacd72eccae7f,001,2021-08-01_12h27.40.747,arrow_simon_norep,2021.1.2,Win32,59.52735282,,,,,,,,,,,,,,,,,,,,,w,1,1.5688,19,FALSE,FALSE,4,2,18,2,1,,,,,,,
,,,,,,0,1.96750575,#f3af84,,left_orange.png,q,,,,,,w,left_blue.png,left_orange.png,q,right,60fd201ddecfacd72eccae7f,001,2021-08-01_12h27.40.747,arrow_simon_norep,2021.1.2,Win32,59.52735282,,,,,,,,,,,,,,,,,,,,,q,1,1.4642,20,FALSE,FALSE,4,3,19,3,1,,,,,,,
,,,,,,0,2.455447445,#a3d0fb,,right_blue.png,o,,,,,,o,right_blue.png,right_orange.png,p,right,60fd201ddecfacd72eccae7f,001,2021-08-01_12h27.40.747,arrow_simon_norep,2021.1.2,Win32,59.52735282,,,,,,,,,,,,,,,,,,,,,o,1,1.7099,21,TRUE,FALSE,5,0,20,1,1,,,,,,,
,,,,,,0,2.440181868,#f3af84,,left_orange.png,q,,,,,,w,left_blue.png,left_orange.png,q,right,60fd201ddecfacd72eccae7f,001,2021-08-01_12h27.40.747,arrow_simon_norep,2021.1.2,Win32,59.52735282,,,,,,,,,,,,,,,,,,,,,p,0,1.6688,22,TRUE,FALSE,5,1,21,3,1,,,,,,,
,,,,,,0,1.500535559,#a3d0fb,,right_blue.png,o,,,,,,o,right_blue.png,right_orange.png,p,left,60fd201ddecfacd72eccae7f,001,2021-08-01_12h27.40.747,arrow_simon_norep,2021.1.2,Win32,59.52735282,,,,,,,,,,,,,,,,,,,,,o,1,1.4189,23,FALSE,FALSE,5,2,22,0,1,,,,,,,
,,,,,,0,2.030472396,#f3af84,,left_orange.png,q,,,,,,w,left_blue.png,left_orange.png,q,left,60fd201ddecfacd72eccae7f,001,2021-08-01_12h27.40.747,arrow_simon_norep,2021.1.2,Win32,59.52735282,,,,,,,,,,,,,,,,,,,,,q,1,1.4851,24,FALSE,FALSE,5,3,23,2,1,,,,,,,
,,,,,,0,1.808922261,#a3d0fb,,right_blue.png,o,,,,,,o,right_blue.png,right_orange.png,p,left,60fd201ddecfacd72eccae7f,001,2021-08-01_12h27.40.747,arrow_simon_norep,2021.1.2,Win32,59.52735282,,,,,,,,,,,,,,,,,,,,,o,1,1.4634,25,FALSE,FALSE,6,0,24,0,1,,,,,,,
,,,,,,0,1.696817246,#f3af84,,right_orange.png,p,,,,,,o,right_blue.png,right_orange.png,p,left,60fd201ddecfacd72eccae7f,001,2021-08-01_12h27.40.747,arrow_simon_norep,2021.1.2,Win32,59.52735282,,,,,,,,,,,,,,,,,,,,,p,1,1.4991,26,FALSE,FALSE,6,1,25,0,1,,,,,,,
,,,,,,0,2.02483901,#a3d0fb,,left_blue.png,w,,,,,,w,left_blue.png,left_orange.png,q,right,60fd201ddecfacd72eccae7f,001,2021-08-01_12h27.40.747,arrow_simon_norep,2021.1.2,Win32,59.52735282,,,,,,,,,,,,,,,,,,,,,w,1,1.601,27,TRUE,FALSE,6,2,26,3,1,,,,,,,
,,,,,,0,1.921277727,#f3af84,,right_orange.png,p,,,,,,o,right_blue.png,right_orange.png,p,right,60fd201ddecfacd72eccae7f,001,2021-08-01_12h27.40.747,arrow_simon_norep,2021.1.2,Win32,59.52735282,,,,,,,,,,,,,,,,,,,,,p,1,1.4691,28,FALSE,FALSE,6,3,27,1,1,,,,,,,
,,,,,,0,2.345612737,#a3d0fb,,left_blue.png,w,,,,,,w,left_blue.png,left_orange.png,q,right,60fd201ddecfacd72eccae7f,001,2021-08-01_12h27.40.747,arrow_simon_norep,2021.1.2,Win32,59.52735282,,,,,,,,,,,,,,,,,,,,,o,0,1.6849,29,TRUE,FALSE,7,0,28,3,1,,,,,,,
,,,,,,0,1.913162583,#f3af84,,right_orange.png,p,,,,,,o,right_blue.png,right_orange.png,p,left,60fd201ddecfacd72eccae7f,001,2021-08-01_12h27.40.747,arrow_simon_norep,2021.1.2,Win32,59.52735282,,,,,,,,,,,,,,,,,,,,,p,1,1.4177,30,FALSE,FALSE,7,1,29,0,1,,,,,,,
,,,,,,0,1.63424426,#a3d0fb,,right_blue.png,o,,,,,,o,right_blue.png,right_orange.png,p,left,60fd201ddecfacd72eccae7f,001,2021-08-01_12h27.40.747,arrow_simon_norep,2021.1.2,Win32,59.52735282,,,,,,,,,,,,,,,,,,,,,o,1,1.534,31,FALSE,FALSE,7,2,30,0,1,,,,,,,
,,,,,,0,1.526518526,#f3af84,,right_orange.png,p,,,,,,o,right_blue.png,right_orange.png,p,left,60fd201ddecfacd72eccae7f,001,2021-08-01_12h27.40.747,arrow_simon_norep,2021.1.2,Win32,59.52735282,,,,,,,,,,,,,,,,,,,,,p,1,1.452,32,FALSE,FALSE,7,3,31,0,1,,,,,,,
,,,,,,0,2.412577942,#a3d0fb,,left_blue.png,w,,,,,,w,left_blue.png,left_orange.png,q,left,60fd201ddecfacd72eccae7f,001,2021-08-01_12h27.40.747,arrow_simon_norep,2021.1.2,Win32,59.52735282,,,,,,,,,,,,,,,,,,,,,w,1,1.6844,33,TRUE,FALSE,8,0,32,2,1,,,,,,,
,,,,,,0,2.089207539,#f3af84,,left_orange.png,q,,,,,,w,left_blue.png,left_orange.png,q,left,60fd201ddecfacd72eccae7f,001,2021-08-01_12h27.40.747,arrow_simon_norep,2021.1.2,Win32,59.52735282,,,,,,,,,,,,,,,,,,,,,q,1,1.4432,34,FALSE,FALSE,8,1,33,2,1,,,,,,,
,,,,,,0,2.058544472,#a3d0fb,,right_blue.png,o,,,,,,o,right_blue.png,right_orange.png,p,right,60fd201ddecfacd72eccae7f,001,2021-08-01_12h27.40.747,arrow_simon_norep,2021.1.2,Win32,59.52735282,,,,,,,,,,,,,,,,,,,,,o,1,1.461,35,FALSE,FALSE,8,2,34,1,1,,,,,,,
,,,,,,0,2.2257168,#f3af84,,left_orange.png,q,,,,,,w,left_blue.png,left_orange.png,q,right,60fd201ddecfacd72eccae7f,001,2021-08-01_12h27.40.747,arrow_simon_norep,2021.1.2,Win32,59.52735282,,,,,,,,,,,,,,,,,,,,,q,1,1.5781,36,FALSE,FALSE,8,3,35,3,1,,,,,,,
,,,,,,0,2.112036978,#a3d0fb,,left_blue.png,w,,,,,,w,left_blue.png,left_orange.png,q,right,60fd201ddecfacd72eccae7f,001,2021-08-01_12h27.40.747,arrow_simon_norep,2021.1.2,Win32,59.52735282,,,,,,,,,,,,,,,,,,,,,w,1,1.5854,37,FALSE,FALSE,9,0,36,3,1,,,,,,,
,,,,,,0,2.026302563,#f3af84,,left_orange.png,q,,,,,,w,left_blue.png,left_orange.png,q,right,60fd201ddecfacd72eccae7f,001,2021-08-01_12h27.40.747,arrow_simon_norep,2021.1.2,Win32,59.52735282,,,,,,,,,,,,,,,,,,,,,q,1,1.5319,38,FALSE,FALSE,9,1,37,3,1,,,,,,,
,,,,,,0,2.279957945,#a3d0fb,,left_blue.png,w,,,,,,w,left_blue.png,left_orange.png,q,left,60fd201ddecfacd72eccae7f,001,2021-08-01_12h27.40.747,arrow_simon_norep,2021.1.2,Win32,59.52735282,,,,,,,,,,,,,,,,,,,,,w,1,1.7448,39,TRUE,FALSE,9,2,38,2,1,,,,,,,
,,,,,,0,1.93693625,#f3af84,,left_orange.png,q,,,,,,w,left_blue.png,left_orange.png,q,left,60fd201ddecfacd72eccae7f,001,2021-08-01_12h27.40.747,arrow_simon_norep,2021.1.2,Win32,59.52735282,,,,,,,,,,,,,,,,,,,,,q,1,1.3579,40,FALSE,TRUE,9,3,39,2,1,,,,,,,
,,,,,,0,1.861653291,#a3d0fb,,left_blue.png,w,,,,,,w,left_blue.png,left_orange.png,q,left,60fd201ddecfacd72eccae7f,001,2021-08-01_12h27.40.747,arrow_simon_norep,2021.1.2,Win32,59.52735282,,,,,,,,,,,,,,,,,,,,,w,1,1.4734,41,FALSE,FALSE,10,0,40,2,1,,,,,,,
,,,,,,0,1.956675258,#f3af84,,left_orange.png,q,,,,,,w,left_blue.png,left_orange.png,q,right,60fd201ddecfacd72eccae7f,001,2021-08-01_12h27.40.747,arrow_simon_norep,2021.1.2,Win32,59.52735282,,,,,,,,,,,,,,,,,,,,,q,1,1.4192,42,FALSE,FALSE,10,1,41,3,1,,,,,,,
,,,,,,0,1.561250737,#a3d0fb,,right_blue.png,o,,,,,,o,right_blue.png,right_orange.png,p,right,60fd201ddecfacd72eccae7f,001,2021-08-01_12h27.40.747,arrow_simon_norep,2021.1.2,Win32,59.52735282,,,,,,,,,,,,,,,,,,,,,o,1,1.4187,43,FALSE,FALSE,10,2,42,1,1,,,,,,,
,,,,,,0,1.521736833,#f3af84,,left_orange.png,q,,,,,,w,left_blue.png,left_orange.png,q,right,60fd201ddecfacd72eccae7f,001,2021-08-01_12h27.40.747,arrow_simon_norep,2021.1.2,Win32,59.52735282,,,,,,,,,,,,,,,,,,,,,q,1,1.4536,44,FALSE,FALSE,10,3,43,3,1,,,,,,,
,,,,,,0,2.414880738,#a3d0fb,,left_blue.png,w,,,,,,w,left_blue.png,left_orange.png,q,right,60fd201ddecfacd72eccae7f,001,2021-08-01_12h27.40.747,arrow_simon_norep,2021.1.2,Win32,59.52735282,,,,,,,,,,,,,,,,,,,,,o,0,1.718,45,TRUE,FALSE,11,0,44,3,1,,,,,,,
,,,,,,0,1.670721905,#f3af84,,left_orange.png,q,,,,,,w,left_blue.png,left_orange.png,q,left,60fd201ddecfacd72eccae7f,001,2021-08-01_12h27.40.747,arrow_simon_norep,2021.1.2,Win32,59.52735282,,,,,,,,,,,,,,,,,,,,,q,1,1.4512,46,FALSE,FALSE,11,1,45,2,1,,,,,,,
,,,,,,0,2.11298552,#a3d0fb,,left_blue.png,w,,,,,,w,left_blue.png,left_orange.png,q,right,60fd201ddecfacd72eccae7f,001,2021-08-01_12h27.40.747,arrow_simon_norep,2021.1.2,Win32,59.52735282,,,,,,,,,,,,,,,,,,,,,w,1,1.6198,47,TRUE,FALSE,11,2,46,3,1,,,,,,,
,,,,,,1,2.107105904,#f3af84,,right_orange.png,p,,,,,,o,right_blue.png,right_orange.png,p,left,60fd201ddecfacd72eccae7f,001,2021-08-01_12h27.40.747,arrow_simon_norep,2021.1.2,Win32,59.52735282,,,,,,,,,,,,,,,,,,,,,q,0,1.521,48,FALSE,FALSE,11,3,47,0,1,,,,,,,
,,,,,,1,2.240312288,#a3d0fb,,left_blue.png,w,,,,,,w,left_blue.png,left_orange.png,q,right,60fd201ddecfacd72eccae7f,001,2021-08-01_12h27.40.747,arrow_simon_norep,2021.1.2,Win32,59.52735282,,,,,,,,,,,,,,,,,,,,,w,1,1.9777,49,TRUE,FALSE,12,0,48,3,1,,,,,,,
,,,,,,1,1.507439683,#f3af84,,right_orange.png,p,,,,,,o,right_blue.png,right_orange.png,p,left,60fd201ddecfacd72eccae7f,001,2021-08-01_12h27.40.747,arrow_simon_norep,2021.1.2,Win32,59.52735282,,,,,,,,,,,,,,,,,,,,,p,1,1.0301,50,FALSE,TRUE,12,1,49,0,1,,,,,,,
,,,,,,0,2.080683341,#a3d0fb,,left_blue.png,w,,,,,,w,left_blue.png,left_orange.png,q,right,60fd201ddecfacd72eccae7f,001,2021-08-01_12h27.40.747,arrow_simon_norep,2021.1.2,Win32,59.52735282,,,,,,,,,,,,,,,,,,,,,w,1,1.597,51,FALSE,FALSE,12,2,50,3,1,,,,,,,
,,,,,,0,1.983203498,#f3af84,,left_orange.png,q,,,,,,w,left_blue.png,left_orange.png,q,left,60fd201ddecfacd72eccae7f,001,2021-08-01_12h27.40.747,arrow_simon_norep,2021.1.2,Win32,59.52735282,,,,,,,,,,,,,,,,,,,,,q,1,1.5183,52,FALSE,FALSE,12,3,51,2,1,,,,,,,
,,,,,,0,2.323362111,#a3d0fb,,right_blue.png,o,,,,,,o,right_blue.png,right_orange.png,p,left,60fd201ddecfacd72eccae7f,001,2021-08-01_12h27.40.747,arrow_simon_norep,2021.1.2,Win32,59.52735282,,,,,,,,,,,,,,,,,,,,,o,1,1.6999,53,TRUE,FALSE,13,0,52,0,1,,,,,,,
,,,,,,0,2.319355221,#f3af84,,left_orange.png,q,,,,,,w,left_blue.png,left_orange.png,q,right,60fd201ddecfacd72eccae7f,001,2021-08-01_12h27.40.747,arrow_simon_norep,2021.1.2,Win32,59.52735282,,,,,,,,,,,,,,,,,,,,,p,0,1.6509,54,TRUE,FALSE,13,1,53,3,1,,,,,,,
,,,,,,0,1.752251707,#a3d0fb,,right_blue.png,o,,,,,,o,right_blue.png,right_orange.png,p,left,60fd201ddecfacd72eccae7f,001,2021-08-01_12h27.40.747,arrow_simon_norep,2021.1.2,Win32,59.52735282,,,,,,,,,,,,,,,,,,,,,o,1,1.4353,55,FALSE,FALSE,13,2,54,0,1,,,,,,,
,,,,,,0,1.637576139,#f3af84,,right_orange.png,p,,,,,,o,right_blue.png,right_orange.png,p,left,60fd201ddecfacd72eccae7f,001,2021-08-01_12h27.40.747,arrow_simon_norep,2021.1.2,Win32,59.52735282,,,,,,,,,,,,,,,,,,,,,p,1,1.4845,56,FALSE,FALSE,13,3,55,0,1,,,,,,,
,,,,,,0,1.807207334,#a3d0fb,,right_blue.png,o,,,,,,o,right_blue.png,right_orange.png,p,right,60fd201ddecfacd72eccae7f,001,2021-08-01_12h27.40.747,arrow_simon_norep,2021.1.2,Win32,59.52735282,,,,,,,,,,,,,,,,,,,,,o,1,1.4869,57,FALSE,FALSE,14,0,56,1,1,,,,,,,
,,,,,,0,1.623002473,#f3af84,,left_orange.png,q,,,,,,w,left_blue.png,left_orange.png,q,left,60fd201ddecfacd72eccae7f,001,2021-08-01_12h27.40.747,arrow_simon_norep,2021.1.2,Win32,59.52735282,,,,,,,,,,,,,,,,,,,,,q,1,1.3999,58,FALSE,TRUE,14,1,57,2,1,,,,,,,
,,,,,,0,1.920026619,#a3d0fb,,left_blue.png,w,,,,,,w,left_blue.png,left_orange.png,q,right,60fd201ddecfacd72eccae7f,001,2021-08-01_12h27.40.747,arrow_simon_norep,2021.1.2,Win32,59.52735282,,,,,,,,,,,,,,,,,,,,,w,1,1.5009,59,FALSE,FALSE,14,2,58,3,1,,,,,,,
,,,,,,0,2.078020314,#f3af84,,right_orange.png,p,,,,,,o,right_blue.png,right_orange.png,p,left,60fd201ddecfacd72eccae7f,001,2021-08-01_12h27.40.747,arrow_simon_norep,2021.1.2,Win32,59.52735282,,,,,,,,,,,,,,,,,,,,,p,1,1.6348,60,TRUE,FALSE,14,3,59,0,1,,,,,,,
,,,,,,,,,,,,,,,,,,,,,,60fd201ddecfacd72eccae7f,001,2021-08-01_12h27.40.747,arrow_simon_norep,2021.1.2,Win32,59.52735282,,,,,,,,,,,,,,,,,,,,,,,,,,,,,,,,space,71.8962,1,0,1,0,1
,,,,,,0,1.999824563,#a3d0fb,,left_blue.png,w,,,,,,w,left_blue.png,left_orange.png,q,left,60fd201ddecfacd72eccae7f,001,2021-08-01_12h27.40.747,arrow_simon_norep,2021.1.2,Win32,59.52735282,,,,,,,,,,,,,,,,,,,,,w,1,2.6534,1,TRUE,FALSE,0,0,0,2,1,,,,,,,
,,,,,,1,2.06716731,#f3af84,,left_orange.png,q,,,,,,w,left_blue.png,left_orange.png,q,left,60fd201ddecfacd72eccae7f,001,2021-08-01_12h27.40.747,arrow_simon_norep,2021.1.2,Win32,59.52735282,,,,,,,,,,,,,,,,,,,,,w,0,1.5385,2,FALSE,FALSE,0,1,1,2,1,,,,,,,
,,,,,,0,2.303348181,#a3d0fb,,right_blue.png,o,,,,,,o,right_blue.png,right_orange.png,p,left,60fd201ddecfacd72eccae7f,001,2021-08-01_12h27.40.747,arrow_simon_norep,2021.1.2,Win32,59.52735282,,,,,,,,,,,,,,,,,,,,,o,1,1.5911,3,FALSE,FALSE,0,2,2,0,1,,,,,,,
,,,,,,0,2.024059428,#f3af84,,left_orange.png,q,,,,,,w,left_blue.png,left_orange.png,q,left,60fd201ddecfacd72eccae7f,001,2021-08-01_12h27.40.747,arrow_simon_norep,2021.1.2,Win32,59.52735282,,,,,,,,,,,,,,,,,,,,,q,1,1.3851,4,FALSE,TRUE,0,3,3,2,1,,,,,,,
,,,,,,1,2.403712704,#a3d0fb,,left_blue.png,w,,,,,,w,left_blue.png,left_orange.png,q,right,60fd201ddecfacd72eccae7f,001,2021-08-01_12h27.40.747,arrow_simon_norep,2021.1.2,Win32,59.52735282,,,,,,,,,,,,,,,,,,,,,o,0,1.5926,5,FALSE,FALSE,1,0,4,3,1,,,,,,,
,,,,,,0,1.963191977,#f3af84,,right_orange.png,p,,,,,,o,right_blue.png,right_orange.png,p,left,60fd201ddecfacd72eccae7f,001,2021-08-01_12h27.40.747,arrow_simon_norep,2021.1.2,Win32,59.52735282,,,,,,,,,,,,,,,,,,,,,p,1,1.518,6,FALSE,FALSE,1,1,5,0,1,,,,,,,
,,,,,,0,2.086200214,#a3d0fb,,right_blue.png,o,,,,,,o,right_blue.png,right_orange.png,p,right,60fd201ddecfacd72eccae7f,001,2021-08-01_12h27.40.747,arrow_simon_norep,2021.1.2,Win32,59.52735282,,,,,,,,,,,,,,,,,,,,,o,1,1.4808,7,FALSE,FALSE,1,2,6,1,1,,,,,,,
,,,,,,0,2.267480523,#f3af84,,left_orange.png,q,,,,,,w,left_blue.png,left_orange.png,q,left,60fd201ddecfacd72eccae7f,001,2021-08-01_12h27.40.747,arrow_simon_norep,2021.1.2,Win32,59.52735282,,,,,,,,,,,,,,,,,,,,,q,1,1.5416,8,FALSE,FALSE,1,3,7,2,1,,,,,,,
,,,,,,0,1.770603468,#a3d0fb,,right_blue.png,o,,,,,,o,right_blue.png,right_orange.png,p,right,60fd201ddecfacd72eccae7f,001,2021-08-01_12h27.40.747,arrow_simon_norep,2021.1.2,Win32,59.52735282,,,,,,,,,,,,,,,,,,,,,o,1,1.5054,9,FALSE,FALSE,2,0,8,1,1,,,,,,,
,,,,,,0,1.925239999,#f3af84,,right_orange.png,p,,,,,,o,right_blue.png,right_orange.png,p,right,60fd201ddecfacd72eccae7f,001,2021-08-01_12h27.40.747,arrow_simon_norep,2021.1.2,Win32,59.52735282,,,,,,,,,,,,,,,,,,,,,p,1,1.234,10,FALSE,TRUE,2,1,9,1,1,,,,,,,
,,,,,,0,1.618009533,#a3d0fb,,right_blue.png,o,,,,,,o,right_blue.png,right_orange.png,p,right,60fd201ddecfacd72eccae7f,001,2021-08-01_12h27.40.747,arrow_simon_norep,2021.1.2,Win32,59.52735282,,,,,,,,,,,,,,,,,,,,,o,1,1.5185,11,FALSE,FALSE,2,2,10,1,1,,,,,,,
,,,,,,1,2.244828772,#f3af84,,left_orange.png,q,,,,,,w,left_blue.png,left_orange.png,q,right,60fd201ddecfacd72eccae7f,001,2021-08-01_12h27.40.747,arrow_simon_norep,2021.1.2,Win32,59.52735282,,,,,,,,,,,,,,,,,,,,,p,0,1.5849,12,FALSE,FALSE,2,3,11,3,1,,,,,,,
,,,,,,0,2.093807837,#a3d0fb,,right_blue.png,o,,,,,,o,right_blue.png,right_orange.png,p,right,60fd201ddecfacd72eccae7f,001,2021-08-01_12h27.40.747,arrow_simon_norep,2021.1.2,Win32,59.52735282,,,,,,,,,,,,,,,,,,,,,o,1,1.4349,13,FALSE,FALSE,3,0,12,1,1,,,,,,,
,,,,,,1,2.253587221,#f3af84,,right_orange.png,p,,,,,,o,right_blue.png,right_orange.png,p,left,60fd201ddecfacd72eccae7f,001,2021-08-01_12h27.40.747,arrow_simon_norep,2021.1.2,Win32,59.52735282,,,,,,,,,,,,,,,,,,,,,q,0,1.5345,14,FALSE,FALSE,3,1,13,0,1,,,,,,,
,,,,,,1,1.624707317,#a3d0fb,,right_blue.png,o,,,,,,o,right_blue.png,right_orange.png,p,right,60fd201ddecfacd72eccae7f,001,2021-08-01_12h27.40.747,arrow_simon_norep,2021.1.2,Win32,59.52735282,,,,,,,,,,,,,,,,,,,,,o,1,1.2358,15,FALSE,TRUE,3,2,14,1,1,,,,,,,
,,,,,,1,2.453396192,#f3af84,,right_orange.png,p,,,,,,o,right_blue.png,right_orange.png,p,left,60fd201ddecfacd72eccae7f,001,2021-08-01_12h27.40.747,arrow_simon_norep,2021.1.2,Win32,59.52735282,,,,,,,,,,,,,,,,,,,,,p,1,1.6845,16,TRUE,FALSE,3,3,15,0,1,,,,,,,
,,,,,,0,1.782414403,#a3d0fb,,left_blue.png,w,,,,,,w,left_blue.png,left_orange.png,q,left,60fd201ddecfacd72eccae7f,001,2021-08-01_12h27.40.747,arrow_simon_norep,2021.1.2,Win32,59.52735282,,,,,,,,,,,,,,,,,,,,,w,1,1.5352,17,FALSE,FALSE,4,0,16,2,1,,,,,,,
,,,,,,1,2.20845791,#f3af84,,left_orange.png,q,,,,,,w,left_blue.png,left_orange.png,q,right,60fd201ddecfacd72eccae7f,001,2021-08-01_12h27.40.747,arrow_simon_norep,2021.1.2,Win32,59.52735282,,,,,,,,,,,,,,,,,,,,,p,0,1.52,18,FALSE,FALSE,4,1,17,3,1,,,,,,,
,,,,,,1,2.496547771,#a3d0fb,,right_blue.png,o,,,,,,o,right_blue.png,right_orange.png,p,right,60fd201ddecfacd72eccae7f,001,2021-08-01_12h27.40.747,arrow_simon_norep,2021.1.2,Win32,59.52735282,,,,,,,,,,,,,,,,,,,,,o,1,2.168,19,TRUE,FALSE,4,2,18,1,1,,,,,,,
,,,,,,0,1.914815875,#f3af84,,right_orange.png,p,,,,,,o,right_blue.png,right_orange.png,p,left,60fd201ddecfacd72eccae7f,001,2021-08-01_12h27.40.747,arrow_simon_norep,2021.1.2,Win32,59.52735282,,,,,,,,,,,,,,,,,,,,,p,1,1.5341,20,FALSE,FALSE,4,3,19,0,1,,,,,,,
,,,,,,0,1.645982745,#a3d0fb,,left_blue.png,w,,,,,,w,left_blue.png,left_orange.png,q,right,60fd201ddecfacd72eccae7f,001,2021-08-01_12h27.40.747,arrow_simon_norep,2021.1.2,Win32,59.52735282,,,,,,,,,,,,,,,,,,,,,w,1,1.5184,21,FALSE,FALSE,5,0,20,3,1,,,,,,,
,,,,,,0,1.612732154,#f3af84,,right_orange.png,p,,,,,,o,right_blue.png,right_orange.png,p,right,60fd201ddecfacd72eccae7f,001,2021-08-01_12h27.40.747,arrow_simon_norep,2021.1.2,Win32,59.52735282,,,,,,,,,,,,,,,,,,,,,p,1,1.4851,22,FALSE,FALSE,5,1,21,1,1,,,,,,,
,,,,,,0,2.016702768,#a3d0fb,,left_blue.png,w,,,,,,w,left_blue.png,left_orange.png,q,left,60fd201ddecfacd72eccae7f,001,2021-08-01_12h27.40.747,arrow_simon_norep,2021.1.2,Win32,59.52735282,,,,,,,,,,,,,,,,,,,,,w,1,1.4521,23,FALSE,FALSE,5,2,22,2,1,,,,,,,
,,,,,,0,2.14489307,#f3af84,,left_orange.png,q,,,,,,w,left_blue.png,left_orange.png,q,right,60fd201ddecfacd72eccae7f,001,2021-08-01_12h27.40.747,arrow_simon_norep,2021.1.2,Win32,59.52735282,,,,,,,,,,,,,,,,,,,,,q,1,1.5696,24,FALSE,FALSE,5,3,23,3,1,,,,,,,
,,,,,,0,2.32122953,#a3d0fb,,right_blue.png,o,,,,,,o,right_blue.png,right_orange.png,p,right,60fd201ddecfacd72eccae7f,001,2021-08-01_12h27.40.747,arrow_simon_norep,2021.1.2,Win32,59.52735282,,,,,,,,,,,,,,,,,,,,,o,1,1.7019,25,TRUE,FALSE,6,0,24,1,1,,,,,,,
,,,,,,0,1.922217231,#f3af84,,left_orange.png,q,,,,,,w,left_blue.png,left_orange.png,q,left,60fd201ddecfacd72eccae7f,001,2021-08-01_12h27.40.747,arrow_simon_norep,2021.1.2,Win32,59.52735282,,,,,,,,,,,,,,,,,,,,,q,1,1.3509,26,FALSE,TRUE,6,1,25,2,1,,,,,,,
,,,,,,0,1.772122202,#a3d0fb,,right_blue.png,o,,,,,,o,right_blue.png,right_orange.png,p,right,60fd201ddecfacd72eccae7f,001,2021-08-01_12h27.40.747,arrow_simon_norep,2021.1.2,Win32,59.52735282,,,,,,,,,,,,,,,,,,,,,o,1,1.6179,27,TRUE,FALSE,6,2,26,1,1,,,,,,,
,,,,,,0,2.088639806,#f3af84,,left_orange.png,q,,,,,,w,left_blue.png,left_orange.png,q,right,60fd201ddecfacd72eccae7f,001,2021-08-01_12h27.40.747,arrow_simon_norep,2021.1.2,Win32,59.52735282,,,,,,,,,,,,,,,,,,,,,q,1,1.4846,28,FALSE,FALSE,6,3,27,3,1,,,,,,,
,,,,,,0,1.528985299,#a3d0fb,,left_blue.png,w,,,,,,w,left_blue.png,left_orange.png,q,left,60fd201ddecfacd72eccae7f,001,2021-08-01_12h27.40.747,arrow_simon_norep,2021.1.2,Win32,59.52735282,,,,,,,,,,,,,,,,,,,,,w,1,1.5016,29,FALSE,FALSE,7,0,28,2,1,,,,,,,
,,,,,,0,1.987540024,#f3af84,,left_orange.png,q,,,,,,w,left_blue.png,left_orange.png,q,right,60fd201ddecfacd72eccae7f,001,2021-08-01_12h27.40.747,arrow_simon_norep,2021.1.2,Win32,59.52735282,,,,,,,,,,,,,,,,,,,,,q,1,1.3848,30,FALSE,TRUE,7,1,29,3,1,,,,,,,
,,,,,,0,2.108704933,#a3d0fb,,right_blue.png,o,,,,,,o,right_blue.png,right_orange.png,p,left,60fd201ddecfacd72eccae7f,001,2021-08-01_12h27.40.747,arrow_simon_norep,2021.1.2,Win32,59.52735282,,,,,,,,,,,,,,,,,,,,,o,1,1.5344,31,FALSE,FALSE,7,2,30,0,1,,,,,,,
,,,,,,0,1.727201447,#f3af84,,left_orange.png,q,,,,,,w,left_blue.png,left_orange.png,q,left,60fd201ddecfacd72eccae7f,001,2021-08-01_12h27.40.747,arrow_simon_norep,2021.1.2,Win32,59.52735282,,,,,,,,,,,,,,,,,,,,,q,1,1.5353,32,FALSE,FALSE,7,3,31,2,1,,,,,,,
,,,,,,0,2.462512392,#a3d0fb,,left_blue.png,w,,,,,,w,left_blue.png,left_orange.png,q,left,60fd201ddecfacd72eccae7f,001,2021-08-01_12h27.40.747,arrow_simon_norep,2021.1.2,Win32,59.52735282,,,,,,,,,,,,,,,,,,,,,w,1,1.7348,33,TRUE,FALSE,8,0,32,2,1,,,,,,,
,,,,,,0,2.454281246,#f3af84,,left_orange.png,q,,,,,,w,left_blue.png,left_orange.png,q,right,60fd201ddecfacd72eccae7f,001,2021-08-01_12h27.40.747,arrow_simon_norep,2021.1.2,Win32,59.52735282,,,,,,,,,,,,,,,,,,,,,q,1,1.8005,34,TRUE,FALSE,8,1,33,3,1,,,,,,,
,,,,,,0,2.223797637,#a3d0fb,,left_blue.png,w,,,,,,w,left_blue.png,left_orange.png,q,left,60fd201ddecfacd72eccae7f,001,2021-08-01_12h27.40.747,arrow_simon_norep,2021.1.2,Win32,59.52735282,,,,,,,,,,,,,,,,,,,,,w,1,1.6514,35,TRUE,FALSE,8,2,34,2,1,,,,,,,
,,,,,,0,1.505137138,#f3af84,,right_orange.png,p,,,,,,o,right_blue.png,right_orange.png,p,right,60fd201ddecfacd72eccae7f,001,2021-08-01_12h27.40.747,arrow_simon_norep,2021.1.2,Win32,59.52735282,,,,,,,,,,,,,,,,,,,,,p,1,1.4679,36,FALSE,FALSE,8,3,35,1,1,,,,,,,
,,,,,,1,2.209189607,#a3d0fb,,right_blue.png,o,,,,,,o,right_blue.png,right_orange.png,p,left,60fd201ddecfacd72eccae7f,001,2021-08-01_12h27.40.747,arrow_simon_norep,2021.1.2,Win32,59.52735282,,,,,,,,,,,,,,,,,,,,,w,0,1.4861,37,FALSE,FALSE,9,0,36,0,1,,,,,,,
,,,,,,1,2.262894486,#f3af84,,left_orange.png,q,,,,,,w,left_blue.png,left_orange.png,q,left,60fd201ddecfacd72eccae7f,001,2021-08-01_12h27.40.747,arrow_simon_norep,2021.1.2,Win32,59.52735282,,,,,,,,,,,,,,,,,,,,,q,1,1.6033,38,TRUE,FALSE,9,1,37,2,1,,,,,,,
,,,,,,1,1.870579206,#a3d0fb,,left_blue.png,w,,,,,,w,left_blue.png,left_orange.png,q,right,60fd201ddecfacd72eccae7f,001,2021-08-01_12h27.40.747,arrow_simon_norep,2021.1.2,Win32,59.52735282,,,,,,,,,,,,,,,,,,,,,w,1,1.2864,39,FALSE,TRUE,9,2,38,3,1,,,,,,,
,,,,,,0,1.512890631,#f3af84,,left_orange.png,q,,,,,,w,left_blue.png,left_orange.png,q,right,60fd201ddecfacd72eccae7f,001,2021-08-01_12h27.40.747,arrow_simon_norep,2021.1.2,Win32,59.52735282,,,,,,,,,,,,,,,,,,,,,q,1,1.4846,40,FALSE,FALSE,9,3,39,3,1,,,,,,,
,,,,,,0,1.551838826,#a3d0fb,,right_blue.png,o,,,,,,o,right_blue.png,right_orange.png,p,right,60fd201ddecfacd72eccae7f,001,2021-08-01_12h27.40.747,arrow_simon_norep,2021.1.2,Win32,59.52735282,,,,,,,,,,,,,,,,,,,,,o,1,1.4335,41,FALSE,FALSE,10,0,40,1,1,,,,,,,
,,,,,,0,1.802188689,#f3af84,,left_orange.png,q,,,,,,w,left_blue.png,left_orange.png,q,left,60fd201ddecfacd72eccae7f,001,2021-08-01_12h27.40.747,arrow_simon_norep,2021.1.2,Win32,59.52735282,,,,,,,,,,,,,,,,,,,,,q,1,1.4351,42,FALSE,FALSE,10,1,41,2,1,,,,,,,
,,,,,,0,1.937057974,#a3d0fb,,right_blue.png,o,,,,,,o,right_blue.png,right_orange.png,p,left,60fd201ddecfacd72eccae7f,001,2021-08-01_12h27.40.747,arrow_simon_norep,2021.1.2,Win32,59.52735282,,,,,,,,,,,,,,,,,,,,,o,1,1.4177,43,FALSE,FALSE,10,2,42,0,1,,,,,,,
,,,,,,0,2.152009705,#f3af84,,right_orange.png,p,,,,,,o,right_blue.png,right_orange.png,p,left,60fd201ddecfacd72eccae7f,001,2021-08-01_12h27.40.747,arrow_simon_norep,2021.1.2,Win32,59.52735282,,,,,,,,,,,,,,,,,,,,,p,1,1.5848,44,FALSE,FALSE,10,3,43,0,1,,,,,,,
,,,,,,0,1.960260431,#a3d0fb,,right_blue.png,o,,,,,,o,right_blue.png,right_orange.png,p,left,60fd201ddecfacd72eccae7f,001,2021-08-01_12h27.40.747,arrow_simon_norep,2021.1.2,Win32,59.52735282,,,,,,,,,,,,,,,,,,,,,o,1,1.4016,45,FALSE,FALSE,11,0,44,0,1,,,,,,,
,,,,,,0,1.682008479,#f3af84,,right_orange.png,p,,,,,,o,right_blue.png,right_orange.png,p,left,60fd201ddecfacd72eccae7f,001,2021-08-01_12h27.40.747,arrow_simon_norep,2021.1.2,Win32,59.52735282,,,,,,,,,,,,,,,,,,,,,p,1,1.4838,46,FALSE,FALSE,11,1,45,0,1,,,,,,,
,,,,,,0,1.791172812,#a3d0fb,,right_blue.png,o,,,,,,o,right_blue.png,right_orange.png,p,left,60fd201ddecfacd72eccae7f,001,2021-08-01_12h27.40.747,arrow_simon_norep,2021.1.2,Win32,59.52735282,,,,,,,,,,,,,,,,,,,,,o,1,1.4513,47,FALSE,FALSE,11,2,46,0,1,,,,,,,
,,,,,,0,1.51309037,#f3af84,,left_orange.png,q,,,,,,w,left_blue.png,left_orange.png,q,left,60fd201ddecfacd72eccae7f,001,2021-08-01_12h27.40.747,arrow_simon_norep,2021.1.2,Win32,59.52735282,,,,,,,,,,,,,,,,,,,,,q,1,1.4846,48,FALSE,FALSE,11,3,47,2,1,,,,,,,
,,,,,,0,2.240024011,#a3d0fb,,right_blue.png,o,,,,,,o,right_blue.png,right_orange.png,p,right,60fd201ddecfacd72eccae7f,001,2021-08-01_12h27.40.747,arrow_simon_norep,2021.1.2,Win32,59.52735282,,,,,,,,,,,,,,,,,,,,,o,1,1.5852,49,FALSE,FALSE,12,0,48,1,1,,,,,,,
,,,,,,0,1.580822339,#f3af84,,left_orange.png,q,,,,,,w,left_blue.png,left_orange.png,q,left,60fd201ddecfacd72eccae7f,001,2021-08-01_12h27.40.747,arrow_simon_norep,2021.1.2,Win32,59.52735282,,,,,,,,,,,,,,,,,,,,,q,1,1.5015,50,FALSE,FALSE,12,1,49,2,1,,,,,,,
,,,,,,0,2.278691716,#a3d0fb,,left_blue.png,w,,,,,,w,left_blue.png,left_orange.png,q,right,60fd201ddecfacd72eccae7f,001,2021-08-01_12h27.40.747,arrow_simon_norep,2021.1.2,Win32,59.52735282,,,,,,,,,,,,,,,,,,,,,w,1,1.7016,51,TRUE,FALSE,12,2,50,3,1,,,,,,,
,,,,,,0,1.983134645,#f3af84,,left_orange.png,q,,,,,,w,left_blue.png,left_orange.png,q,right,60fd201ddecfacd72eccae7f,001,2021-08-01_12h27.40.747,arrow_simon_norep,2021.1.2,Win32,59.52735282,,,,,,,,,,,,,,,,,,,,,q,1,1.519,52,FALSE,FALSE,12,3,51,3,1,,,,,,,
,,,,,,0,2.211482896,#a3d0fb,,right_blue.png,o,,,,,,o,right_blue.png,right_orange.png,p,left,60fd201ddecfacd72eccae7f,001,2021-08-01_12h27.40.747,arrow_simon_norep,2021.1.2,Win32,59.52735282,,,,,,,,,,,,,,,,,,,,,o,1,1.5689,53,FALSE,FALSE,13,0,52,0,1,,,,,,,
,,,,,,0,1.695632447,#f3af84,,right_orange.png,p,,,,,,o,right_blue.png,right_orange.png,p,left,60fd201ddecfacd72eccae7f,001,2021-08-01_12h27.40.747,arrow_simon_norep,2021.1.2,Win32,59.52735282,,,,,,,,,,,,,,,,,,,,,q,0,1.135,54,FALSE,TRUE,13,1,53,0,1,,,,,,,
,,,,,,0,1.811322279,#a3d0fb,,left_blue.png,w,,,,,,w,left_blue.png,left_orange.png,q,right,60fd201ddecfacd72eccae7f,001,2021-08-01_12h27.40.747,arrow_simon_norep,2021.1.2,Win32,59.52735282,,,,,,,,,,,,,,,,,,,,,o,0,1.2011,55,FALSE,TRUE,13,2,54,3,1,,,,,,,
,,,,,,0,1.563587566,#f3af84,,left_orange.png,q,,,,,,w,left_blue.png,left_orange.png,q,right,60fd201ddecfacd72eccae7f,001,2021-08-01_12h27.40.747,arrow_simon_norep,2021.1.2,Win32,59.52735282,,,,,,,,,,,,,,,,,,,,,q,1,1.4839,56,FALSE,FALSE,13,3,55,3,1,,,,,,,
,,,,,,0,2.406140683,#a3d0fb,,left_blue.png,w,,,,,,w,left_blue.png,left_orange.png,q,right,60fd201ddecfacd72eccae7f,001,2021-08-01_12h27.40.747,arrow_simon_norep,2021.1.2,Win32,59.52735282,,,,,,,,,,,,,,,,,,,,,o,0,1.7015,57,TRUE,FALSE,14,0,56,3,1,,,,,,,
,,,,,,0,1.605393998,#f3af84,,right_orange.png,p,,,,,,o,right_blue.png,right_orange.png,p,right,60fd201ddecfacd72eccae7f,001,2021-08-01_12h27.40.747,arrow_simon_norep,2021.1.2,Win32,59.52735282,,,,,,,,,,,,,,,,,,,,,p,1,1.4357,58,FALSE,FALSE,14,1,57,1,1,,,,,,,
,,,,,,0,1.561208106,#a3d0fb,,right_blue.png,o,,,,,,o,right_blue.png,right_orange.png,p,left,60fd201ddecfacd72eccae7f,001,2021-08-01_12h27.40.747,arrow_simon_norep,2021.1.2,Win32,59.52735282,,,,,,,,,,,,,,,,,,,,,o,1,1.4511,59,FALSE,FALSE,14,2,58,0,1,,,,,,,
,,,,,,0,1.824719459,#f3af84,,right_orange.png,p,,,,,,o,right_blue.png,right_orange.png,p,right,60fd201ddecfacd72eccae7f,001,2021-08-01_12h27.40.747,arrow_simon_norep,2021.1.2,Win32,59.52735282,,,,,,,,,,,,,,,,,,,,,p,1,1.485,60,FALSE,FALSE,14,3,59,1,1,,,,,,,
,,,,,,,,,,,,,,,,,,,,,,60fd201ddecfacd72eccae7f,001,2021-08-01_12h27.40.747,arrow_simon_norep,2021.1.2,Win32,59.52735282,,,,,,,,,,,,,,,,,,,,,,,,,,,,,,,,space,60.4309,2,0,2,0,1
,,,,,,0,2.384851314,#a3d0fb,,right_blue.png,o,,,,,,o,right_blue.png,right_orange.png,p,left,60fd201ddecfacd72eccae7f,001,2021-08-01_12h27.40.747,arrow_simon_norep,2021.1.2,Win32,59.52735282,,,,,,,,,,,,,,,,,,,,,w,0,1.8017,1,TRUE,FALSE,0,0,0,0,1,,,,,,,
,,,,,,0,2.400417875,#f3af84,,left_orange.png,q,,,,,,w,left_blue.png,left_orange.png,q,right,60fd201ddecfacd72eccae7f,001,2021-08-01_12h27.40.747,arrow_simon_norep,2021.1.2,Win32,59.52735282,,,,,,,,,,,,,,,,,,,,,q,1,1.7674,2,TRUE,FALSE,0,1,1,3,1,,,,,,,
,,,,,,0,1.761184064,#a3d0fb,,left_blue.png,w,,,,,,w,left_blue.png,left_orange.png,q,left,60fd201ddecfacd72eccae7f,001,2021-08-01_12h27.40.747,arrow_simon_norep,2021.1.2,Win32,59.52735282,,,,,,,,,,,,,,,,,,,,,w,1,1.5188,3,FALSE,FALSE,0,2,2,2,1,,,,,,,
,,,,,,0,1.855852811,#f3af84,,right_orange.png,p,,,,,,o,right_blue.png,right_orange.png,p,left,60fd201ddecfacd72eccae7f,001,2021-08-01_12h27.40.747,arrow_simon_norep,2021.1.2,Win32,59.52735282,,,,,,,,,,,,,,,,,,,,,p,1,1.5017,4,FALSE,FALSE,0,3,3,0,1,,,,,,,
,,,,,,0,2.494572606,#a3d0fb,,left_blue.png,w,,,,,,w,left_blue.png,left_orange.png,q,left,60fd201ddecfacd72eccae7f,001,2021-08-01_12h27.40.747,arrow_simon_norep,2021.1.2,Win32,59.52735282,,,,,,,,,,,,,,,,,,,,,w,1,1.7858,5,TRUE,FALSE,1,0,4,2,1,,,,,,,
,,,,,,0,2.210179639,#f3af84,,right_orange.png,p,,,,,,o,right_blue.png,right_orange.png,p,right,60fd201ddecfacd72eccae7f,001,2021-08-01_12h27.40.747,arrow_simon_norep,2021.1.2,Win32,59.52735282,,,,,,,,,,,,,,,,,,,,,p,1,1.5346,6,FALSE,FALSE,1,1,5,1,1,,,,,,,
,,,,,,0,1.967314742,#a3d0fb,,left_blue.png,w,,,,,,w,left_blue.png,left_orange.png,q,left,60fd201ddecfacd72eccae7f,001,2021-08-01_12h27.40.747,arrow_simon_norep,2021.1.2,Win32,59.52735282,,,,,,,,,,,,,,,,,,,,,w,1,1.5508,7,FALSE,FALSE,1,2,6,2,1,,,,,,,
,,,,,,0,1.893755667,#f3af84,,left_orange.png,q,,,,,,w,left_blue.png,left_orange.png,q,left,60fd201ddecfacd72eccae7f,001,2021-08-01_12h27.40.747,arrow_simon_norep,2021.1.2,Win32,59.52735282,,,,,,,,,,,,,,,,,,,,,q,1,1.5019,8,FALSE,FALSE,1,3,7,2,1,,,,,,,
,,,,,,0,1.912324836,#a3d0fb,,right_blue.png,o,,,,,,o,right_blue.png,right_orange.png,p,right,60fd201ddecfacd72eccae7f,001,2021-08-01_12h27.40.747,arrow_simon_norep,2021.1.2,Win32,59.52735282,,,,,,,,,,,,,,,,,,,,,o,1,1.5023,9,FALSE,FALSE,2,0,8,1,1,,,,,,,
,,,,,,0,1.989195202,#f3af84,,right_orange.png,p,,,,,,o,right_blue.png,right_orange.png,p,right,60fd201ddecfacd72eccae7f,001,2021-08-01_12h27.40.747,arrow_simon_norep,2021.1.2,Win32,59.52735282,,,,,,,,,,,,,,,,,,,,,p,1,1.4851,10,FALSE,FALSE,2,1,9,1,1,,,,,,,
,,,,,,0,1.815394428,#a3d0fb,,left_blue.png,w,,,,,,w,left_blue.png,left_orange.png,q,right,60fd201ddecfacd72eccae7f,001,2021-08-01_12h27.40.747,arrow_simon_norep,2021.1.2,Win32,59.52735282,,,,,,,,,,,,,,,,,,,,,w,1,1.4844,11,FALSE,FALSE,2,2,10,3,1,,,,,,,
,,,,,,0,1.799568762,#f3af84,,right_orange.png,p,,,,,,o,right_blue.png,right_orange.png,p,left,60fd201ddecfacd72eccae7f,001,2021-08-01_12h27.40.747,arrow_simon_norep,2021.1.2,Win32,59.52735282,,,,,,,,,,,,,,,,,,,,,p,1,1.5026,12,FALSE,FALSE,2,3,11,0,1,,,,,,,
,,,,,,0,2.052410628,#a3d0fb,,right_blue.png,o,,,,,,o,right_blue.png,right_orange.png,p,left,60fd201ddecfacd72eccae7f,001,2021-08-01_12h27.40.747,arrow_simon_norep,2021.1.2,Win32,59.52735282,,,,,,,,,,,,,,,,,,,,,o,1,1.5344,13,FALSE,FALSE,3,0,12,0,1,,,,,,,
,,,,,,0,2.133110965,#f3af84,,left_orange.png,q,,,,,,w,left_blue.png,left_orange.png,q,right,60fd201ddecfacd72eccae7f,001,2021-08-01_12h27.40.747,arrow_simon_norep,2021.1.2,Win32,59.52735282,,,,,,,,,,,,,,,,,,,,,q,1,1.5677,14,FALSE,FALSE,3,1,13,3,1,,,,,,,
,,,,,,0,2.175845622,#a3d0fb,,right_blue.png,o,,,,,,o,right_blue.png,right_orange.png,p,left,60fd201ddecfacd72eccae7f,001,2021-08-01_12h27.40.747,arrow_simon_norep,2021.1.2,Win32,59.52735282,,,,,,,,,,,,,,,,,,,,,o,1,1.5846,15,FALSE,FALSE,3,2,14,0,1,,,,,,,
,,,,,,0,1.520897555,#f3af84,,right_orange.png,p,,,,,,o,right_blue.png,right_orange.png,p,left,60fd201ddecfacd72eccae7f,001,2021-08-01_12h27.40.747,arrow_simon_norep,2021.1.2,Win32,59.52735282,,,,,,,,,,,,,,,,,,,,,p,1,1.4177,16,FALSE,FALSE,3,3,15,0,1,,,,,,,
,,,,,,0,1.898931108,#a3d0fb,,right_blue.png,o,,,,,,o,right_blue.png,right_orange.png,p,right,60fd201ddecfacd72eccae7f,001,2021-08-01_12h27.40.747,arrow_simon_norep,2021.1.2,Win32,59.52735282,,,,,,,,,,,,,,,,,,,,,o,1,1.5346,17,FALSE,FALSE,4,0,16,1,1,,,,,,,
,,,,,,0,2.313658575,#f3af84,,left_orange.png,q,,,,,,w,left_blue.png,left_orange.png,q,right,60fd201ddecfacd72eccae7f,001,2021-08-01_12h27.40.747,arrow_simon_norep,2021.1.2,Win32,59.52735282,,,,,,,,,,,,,,,,,,,,,p,0,1.6185,18,TRUE,FALSE,4,1,17,3,1,,,,,,,
,,,,,,0,1.75323135,#a3d0fb,,left_blue.png,w,,,,,,w,left_blue.png,left_orange.png,q,right,60fd201ddecfacd72eccae7f,001,2021-08-01_12h27.40.747,arrow_simon_norep,2021.1.2,Win32,59.52735282,,,,,,,,,,,,,,,,,,,,,w,1,1.5178,19,FALSE,FALSE,4,2,18,3,1,,,,,,,
,,,,,,0,1.999879752,#f3af84,,right_orange.png,p,,,,,,o,right_blue.png,right_orange.png,p,left,60fd201ddecfacd72eccae7f,001,2021-08-01_12h27.40.747,arrow_simon_norep,2021.1.2,Win32,59.52735282,,,,,,,,,,,,,,,,,,,,,p,1,1.451,20,FALSE,FALSE,4,3,19,0,1,,,,,,,
,,,,,,0,2.229299754,#a3d0fb,,left_blue.png,w,,,,,,w,left_blue.png,left_orange.png,q,left,60fd201ddecfacd72eccae7f,001,2021-08-01_12h27.40.747,arrow_simon_norep,2021.1.2,Win32,59.52735282,,,,,,,,,,,,,,,,,,,,,w,1,1.6011,21,TRUE,FALSE,5,0,20,2,1,,,,,,,
,,,,,,0,1.77081234,#f3af84,,left_orange.png,q,,,,,,w,left_blue.png,left_orange.png,q,right,60fd201ddecfacd72eccae7f,001,2021-08-01_12h27.40.747,arrow_simon_norep,2021.1.2,Win32,59.52735282,,,,,,,,,,,,,,,,,,,,,q,1,1.5353,22,FALSE,FALSE,5,1,21,3,1,,,,,,,
,,,,,,0,1.719139206,#a3d0fb,,left_blue.png,w,,,,,,w,left_blue.png,left_orange.png,q,right,60fd201ddecfacd72eccae7f,001,2021-08-01_12h27.40.747,arrow_simon_norep,2021.1.2,Win32,59.52735282,,,,,,,,,,,,,,,,,,,,,w,1,1.5014,23,FALSE,FALSE,5,2,22,3,1,,,,,,,
,,,,,,0,2.269785967,#f3af84,,left_orange.png,q,,,,,,w,left_blue.png,left_orange.png,q,left,60fd201ddecfacd72eccae7f,001,2021-08-01_12h27.40.747,arrow_simon_norep,2021.1.2,Win32,59.52735282,,,,,,,,,,,,,,,,,,,,,q,1,1.5693,24,FALSE,FALSE,5,3,23,2,1,,,,,,,
,,,,,,0,1.865090534,#a3d0fb,,right_blue.png,o,,,,,,o,right_blue.png,right_orange.png,p,left,60fd201ddecfacd72eccae7f,001,2021-08-01_12h27.40.747,arrow_simon_norep,2021.1.2,Win32,59.52735282,,,,,,,,,,,,,,,,,,,,,o,1,1.4679,25,FALSE,FALSE,6,0,24,0,1,,,,,,,
,,,,,,0,1.804470135,#f3af84,,right_orange.png,p,,,,,,o,right_blue.png,right_orange.png,p,left,60fd201ddecfacd72eccae7f,001,2021-08-01_12h27.40.747,arrow_simon_norep,2021.1.2,Win32,59.52735282,,,,,,,,,,,,,,,,,,,,,p,1,1.4513,26,FALSE,FALSE,6,1,25,0,1,,,,,,,
,,,,,,0,1.87985506,#a3d0fb,,right_blue.png,o,,,,,,o,right_blue.png,right_orange.png,p,right,60fd201ddecfacd72eccae7f,001,2021-08-01_12h27.40.747,arrow_simon_norep,2021.1.2,Win32,59.52735282,,,,,,,,,,,,,,,,,,,,,o,1,1.452,27,FALSE,FALSE,6,2,26,1,1,,,,,,,
,,,,,,0,2.400574011,#f3af84,,left_orange.png,q,,,,,,w,left_blue.png,left_orange.png,q,left,60fd201ddecfacd72eccae7f,001,2021-08-01_12h27.40.747,arrow_simon_norep,2021.1.2,Win32,59.52735282,,,,,,,,,,,,,,,,,,,,,q,1,1.683,28,TRUE,FALSE,6,3,27,2,1,,,,,,,
,,,,,,0,1.615591915,#a3d0fb,,right_blue.png,o,,,,,,o,right_blue.png,right_orange.png,p,left,60fd201ddecfacd72eccae7f,001,2021-08-01_12h27.40.747,arrow_simon_norep,2021.1.2,Win32,59.52735282,,,,,,,,,,,,,,,,,,,,,o,1,1.4516,29,FALSE,FALSE,7,0,28,0,1,,,,,,,
,,,,,,0,2.238611066,#f3af84,,left_orange.png,q,,,,,,w,left_blue.png,left_orange.png,q,left,60fd201ddecfacd72eccae7f,001,2021-08-01_12h27.40.747,arrow_simon_norep,2021.1.2,Win32,59.52735282,,,,,,,,,,,,,,,,,,,,,q,1,1.6178,30,TRUE,FALSE,7,1,29,2,1,,,,,,,
,,,,,,0,1.644884085,#a3d0fb,,right_blue.png,o,,,,,,o,right_blue.png,right_orange.png,p,left,60fd201ddecfacd72eccae7f,001,2021-08-01_12h27.40.747,arrow_simon_norep,2021.1.2,Win32,59.52735282,,,,,,,,,,,,,,,,,,,,,o,1,1.0687,31,FALSE,TRUE,7,2,30,0,1,,,,,,,
,,,,,,0,1.840008763,#f3af84,,left_orange.png,q,,,,,,w,left_blue.png,left_orange.png,q,right,60fd201ddecfacd72eccae7f,001,2021-08-01_12h27.40.747,arrow_simon_norep,2021.1.2,Win32,59.52735282,,,,,,,,,,,,,,,,,,,,,q,1,1.5011,32,FALSE,FALSE,7,3,31,3,1,,,,,,,
,,,,,,0,2.35890564,#a3d0fb,,right_blue.png,o,,,,,,o,right_blue.png,right_orange.png,p,right,60fd201ddecfacd72eccae7f,001,2021-08-01_12h27.40.747,arrow_simon_norep,2021.1.2,Win32,59.52735282,,,,,,,,,,,,,,,,,,,,,o,1,1.7176,33,TRUE,FALSE,8,0,32,1,1,,,,,,,
,,,,,,0,2.014775414,#f3af84,,left_orange.png,q,,,,,,w,left_blue.png,left_orange.png,q,left,60fd201ddecfacd72eccae7f,001,2021-08-01_12h27.40.747,arrow_simon_norep,2021.1.2,Win32,59.52735282,,,,,,,,,,,,,,,,,,,,,q,1,1.4848,34,FALSE,FALSE,8,1,33,2,1,,,,,,,
,,,,,,0,2.154147713,#a3d0fb,,right_blue.png,o,,,,,,o,right_blue.png,right_orange.png,p,right,60fd201ddecfacd72eccae7f,001,2021-08-01_12h27.40.747,arrow_simon_norep,2021.1.2,Win32,59.52735282,,,,,,,,,,,,,,,,,,,,,o,1,1.5361,35,FALSE,FALSE,8,2,34,1,1,,,,,,,
,,,,,,0,1.668007265,#f3af84,,left_orange.png,q,,,,,,w,left_blue.png,left_orange.png,q,right,60fd201ddecfacd72eccae7f,001,2021-08-01_12h27.40.747,arrow_simon_norep,2021.1.2,Win32,59.52735282,,,,,,,,,,,,,,,,,,,,,q,1,1.568,36,FALSE,FALSE,8,3,35,3,1,,,,,,,
,,,,,,0,2.383767957,#a3d0fb,,left_blue.png,w,,,,,,w,left_blue.png,left_orange.png,q,left,60fd201ddecfacd72eccae7f,001,2021-08-01_12h27.40.747,arrow_simon_norep,2021.1.2,Win32,59.52735282,,,,,,,,,,,,,,,,,,,,,w,1,1.6682,37,TRUE,FALSE,9,0,36,2,1,,,,,,,
,,,,,,0,2.166176754,#f3af84,,right_orange.png,p,,,,,,o,right_blue.png,right_orange.png,p,right,60fd201ddecfacd72eccae7f,001,2021-08-01_12h27.40.747,arrow_simon_norep,2021.1.2,Win32,59.52735282,,,,,,,,,,,,,,,,,,,,,p,1,1.501,38,FALSE,FALSE,9,1,37,1,1,,,,,,,
,,,,,,0,2.406894027,#a3d0fb,,right_blue.png,o,,,,,,o,right_blue.png,right_orange.png,p,right,60fd201ddecfacd72eccae7f,001,2021-08-01_12h27.40.747,arrow_simon_norep,2021.1.2,Win32,59.52735282,,,,,,,,,,,,,,,,,,,,,o,1,1.8023,39,TRUE,FALSE,9,2,38,1,1,,,,,,,
,,,,,,0,1.662790574,#f3af84,,right_orange.png,p,,,,,,o,right_blue.png,right_orange.png,p,right,60fd201ddecfacd72eccae7f,001,2021-08-01_12h27.40.747,arrow_simon_norep,2021.1.2,Win32,59.52735282,,,,,,,,,,,,,,,,,,,,,p,1,1.4856,40,FALSE,FALSE,9,3,39,1,1,,,,,,,
,,,,,,0,1.852817678,#a3d0fb,,left_blue.png,w,,,,,,w,left_blue.png,left_orange.png,q,right,60fd201ddecfacd72eccae7f,001,2021-08-01_12h27.40.747,arrow_simon_norep,2021.1.2,Win32,59.52735282,,,,,,,,,,,,,,,,,,,,,w,1,1.5177,41,FALSE,FALSE,10,0,40,3,1,,,,,,,
,,,,,,0,2.281500303,#f3af84,,left_orange.png,q,,,,,,w,left_blue.png,left_orange.png,q,right,60fd201ddecfacd72eccae7f,001,2021-08-01_12h27.40.747,arrow_simon_norep,2021.1.2,Win32,59.52735282,,,,,,,,,,,,,,,,,,,,,q,1,1.6685,42,TRUE,FALSE,10,1,41,3,1,,,,,,,
,,,,,,0,1.743905851,#a3d0fb,,left_blue.png,w,,,,,,w,left_blue.png,left_orange.png,q,right,60fd201ddecfacd72eccae7f,001,2021-08-01_12h27.40.747,arrow_simon_norep,2021.1.2,Win32,59.52735282,,,,,,,,,,,,,,,,,,,,,w,1,1.3681,43,FALSE,TRUE,10,2,42,3,1,,,,,,,
,,,,,,0,2.014355552,#f3af84,,left_orange.png,q,,,,,,w,left_blue.png,left_orange.png,q,right,60fd201ddecfacd72eccae7f,001,2021-08-01_12h27.40.747,arrow_simon_norep,2021.1.2,Win32,59.52735282,,,,,,,,,,,,,,,,,,,,,q,1,1.5222,44,FALSE,FALSE,10,3,43,3,1,,,,,,,
,,,,,,0,1.930059285,#a3d0fb,,right_blue.png,o,,,,,,o,right_blue.png,right_orange.png,p,left,60fd201ddecfacd72eccae7f,001,2021-08-01_12h27.40.747,arrow_simon_norep,2021.1.2,Win32,59.52735282,,,,,,,,,,,,,,,,,,,,,o,1,1.5187,45,FALSE,FALSE,11,0,44,0,1,,,,,,,
,,,,,,0,1.923021979,#f3af84,,right_orange.png,p,,,,,,o,right_blue.png,right_orange.png,p,left,60fd201ddecfacd72eccae7f,001,2021-08-01_12h27.40.747,arrow_simon_norep,2021.1.2,Win32,59.52735282,,,,,,,,,,,,,,,,,,,,,p,1,1.4844,46,FALSE,FALSE,11,1,45,0,1,,,,,,,
,,,,,,0,1.71782742,#a3d0fb,,left_blue.png,w,,,,,,w,left_blue.png,left_orange.png,q,right,60fd201ddecfacd72eccae7f,001,2021-08-01_12h27.40.747,arrow_simon_norep,2021.1.2,Win32,59.52735282,,,,,,,,,,,,,,,,,,,,,w,1,1.4678,47,FALSE,FALSE,11,2,46,3,1,,,,,,,
,,,,,,0,1.611657116,#f3af84,,left_orange.png,q,,,,,,w,left_blue.png,left_orange.png,q,left,60fd201ddecfacd72eccae7f,001,2021-08-01_12h27.40.747,arrow_simon_norep,2021.1.2,Win32,59.52735282,,,,,,,,,,,,,,,,,,,,,q,1,1.5014,48,FALSE,FALSE,11,3,47,2,1,,,,,,,
,,,,,,0,1.691347264,#a3d0fb,,left_blue.png,w,,,,,,w,left_blue.png,left_orange.png,q,left,60fd201ddecfacd72eccae7f,001,2021-08-01_12h27.40.747,arrow_simon_norep,2021.1.2,Win32,59.52735282,,,,,,,,,,,,,,,,,,,,,w,1,1.5515,49,FALSE,FALSE,12,0,48,2,1,,,,,,,
,,,,,,0,2.194888236,#f3af84,,right_orange.png,p,,,,,,o,right_blue.png,right_orange.png,p,right,60fd201ddecfacd72eccae7f,001,2021-08-01_12h27.40.747,arrow_simon_norep,2021.1.2,Win32,59.52735282,,,,,,,,,,,,,,,,,,,,,p,1,1.551,50,FALSE,FALSE,12,1,49,1,1,,,,,,,
,,,,,,0,1.81681342,#a3d0fb,,left_blue.png,w,,,,,,w,left_blue.png,left_orange.png,q,left,60fd201ddecfacd72eccae7f,001,2021-08-01_12h27.40.747,arrow_simon_norep,2021.1.2,Win32,59.52735282,,,,,,,,,,,,,,,,,,,,,w,1,1.5015,51,FALSE,FALSE,12,2,50,2,1,,,,,,,
