instruct_resp_simon.keys,instruct_resp_simon.corr,instruct_resp_simon.rt,trial_resp_simon.keys,trial_resp_simon.corr,trial_resp_simon.rt,kerr,target_onset,target_color,target_pos,target_file,target_resp,trials_train_simon.thisRepN,trials_train_simon.thisTrialN,trials_train_simon.thisN,trials_train_simon.thisIndex,trials_train_simon.ran,odd_target_resp,odd_target_file,even_target_file,even_target_resp,target_side,participant,session,date,expName,psychopyVersion,OS,frameRate,train_block_note_resp.keys,train_block_note_resp.rt,blocks_train.thisRepN,blocks_train.thisTrialN,blocks_train.thisN,blocks_train.thisIndex,blocks_train.ran,instruct_resp_timing.keys,instruct_resp_timing.corr,instruct_resp_timing.rt,trial_resp_timing.keys,trial_resp_timing.rt,trials_train_timing.thisRepN,trials_train_timing.thisTrialN,trials_train_timing.thisN,trials_train_timing.thisIndex,trials_train_timing.ran,instruct_resp.keys,instruct_resp.corr,instruct_resp.rt,trial_resp.keys,trial_resp.corr,trial_resp.rt,trial_num,too_slow,too_soon,trials.thisRepN,trials.thisTrialN,trials.thisN,trials.thisIndex,trials.ran,block_note_resp.keys,block_note_resp.rt,blocks.thisRepN,blocks.thisTrialN,blocks.thisN,blocks.thisIndex,blocks.ran
space,0,33.942,w,0,3.268,1,0.26107674,#a3d0fb,,right_blue.png,o,0,0,0,0,1,o,right_blue.png,right_orange.png,p,left,60fda003f3acba0353b4c015,001,2021-07-25_16h32.29.845,arrow_simon_norep,2021.1.2,MacIntel,62.5,,,,,,,,,,,,,,,,,,,,,,,,,,,,,,,,,,,,,,
,,,p,1,4.091,0,0.594941419,#f3af84,,right_orange.png,p,0,1,1,0,1,o,right_blue.png,right_orange.png,p,left,60fda003f3acba0353b4c015,001,2021-07-25_16h32.29.845,arrow_simon_norep,2021.1.2,MacIntel,62.5,,,,,,,,,,,,,,,,,,,,,,,,,,,,,,,,,,,,,,
,,,o,0,2.698,1,0.763461982,#a3d0fb,,left_blue.png,w,0,2,2,2,1,w,left_blue.png,left_orange.png,q,left,60fda003f3acba0353b4c015,001,2021-07-25_16h32.29.845,arrow_simon_norep,2021.1.2,MacIntel,62.5,,,,,,,,,,,,,,,,,,,,,,,,,,,,,,,,,,,,,,
,,,q,1,7.299,0,0.574599887,#f3af84,,left_orange.png,q,0,3,3,3,1,w,left_blue.png,left_orange.png,q,right,60fda003f3acba0353b4c015,001,2021-07-25_16h32.29.845,arrow_simon_norep,2021.1.2,MacIntel,62.5,,,,,,,,,,,,,,,,,,,,,,,,,,,,,,,,,,,,,,
,,,o,1,4.888,0,0.933859987,#a3d0fb,,right_blue.png,o,1,0,4,0,1,o,right_blue.png,right_orange.png,p,left,60fda003f3acba0353b4c015,001,2021-07-25_16h32.29.845,arrow_simon_norep,2021.1.2,MacIntel,62.5,,,,,,,,,,,,,,,,,,,,,,,,,,,,,,,,,,,,,,
,,,p,1,2.198,0,0.683028177,#f3af84,,right_orange.png,p,1,1,5,0,1,o,right_blue.png,right_orange.png,p,left,60fda003f3acba0353b4c015,001,2021-07-25_16h32.29.845,arrow_simon_norep,2021.1.2,MacIntel,62.5,,,,,,,,,,,,,,,,,,,,,,,,,,,,,,,,,,,,,,
,,,w,1,4.026,0,0.153232177,#a3d0fb,,left_blue.png,w,1,2,6,3,1,w,left_blue.png,left_orange.png,q,right,60fda003f3acba0353b4c015,001,2021-07-25_16h32.29.845,arrow_simon_norep,2021.1.2,MacIntel,62.5,,,,,,,,,,,,,,,,,,,,,,,,,,,,,,,,,,,,,,
,,,p,1,6.617,0,0.961215592,#f3af84,,right_orange.png,p,1,3,7,1,1,o,right_blue.png,right_orange.png,p,right,60fda003f3acba0353b4c015,001,2021-07-25_16h32.29.845,arrow_simon_norep,2021.1.2,MacIntel,62.5,,,,,,,,,,,,,,,,,,,,,,,,,,,,,,,,,,,,,,
,,,w,1,2.851,0,0.871099386,#a3d0fb,,left_blue.png,w,2,0,8,3,1,w,left_blue.png,left_orange.png,q,right,60fda003f3acba0353b4c015,001,2021-07-25_16h32.29.845,arrow_simon_norep,2021.1.2,MacIntel,62.5,,,,,,,,,,,,,,,,,,,,,,,,,,,,,,,,,,,,,,
,,,p,1,1.878,0,0.308986919,#f3af84,,right_orange.png,p,2,1,9,0,1,o,right_blue.png,right_orange.png,p,left,60fda003f3acba0353b4c015,001,2021-07-25_16h32.29.845,arrow_simon_norep,2021.1.2,MacIntel,62.5,,,,,,,,,,,,,,,,,,,,,,,,,,,,,,,,,,,,,,
,,,w,1,1.898,0,0.223826423,#a3d0fb,,left_blue.png,w,2,2,10,3,1,w,left_blue.png,left_orange.png,q,right,60fda003f3acba0353b4c015,001,2021-07-25_16h32.29.845,arrow_simon_norep,2021.1.2,MacIntel,62.5,,,,,,,,,,,,,,,,,,,,,,,,,,,,,,,,,,,,,,
,,,p,1,2.023,0,0.692513419,#f3af84,,right_orange.png,p,2,3,11,0,1,o,right_blue.png,right_orange.png,p,left,60fda003f3acba0353b4c015,001,2021-07-25_16h32.29.845,arrow_simon_norep,2021.1.2,MacIntel,62.5,,,,,,,,,,,,,,,,,,,,,,,,,,,,,,,,,,,,,,
,,,w,1,2.723,0,0.910183158,#a3d0fb,,left_blue.png,w,3,0,12,2,1,w,left_blue.png,left_orange.png,q,left,60fda003f3acba0353b4c015,001,2021-07-25_16h32.29.845,arrow_simon_norep,2021.1.2,MacIntel,62.5,,,,,,,,,,,,,,,,,,,,,,,,,,,,,,,,,,,,,,
,,,q,1,1.542,0,0.361331383,#f3af84,,left_orange.png,q,3,1,13,2,1,w,left_blue.png,left_orange.png,q,left,60fda003f3acba0353b4c015,001,2021-07-25_16h32.29.845,arrow_simon_norep,2021.1.2,MacIntel,62.5,,,,,,,,,,,,,,,,,,,,,,,,,,,,,,,,,,,,,,
,,,w,1,1.148,0,0.415184146,#a3d0fb,,left_blue.png,w,3,2,14,2,1,w,left_blue.png,left_orange.png,q,left,60fda003f3acba0353b4c015,001,2021-07-25_16h32.29.845,arrow_simon_norep,2021.1.2,MacIntel,62.5,,,,,,,,,,,,,,,,,,,,,,,,,,,,,,,,,,,,,,
,,,p,1,1.95,0,0.144079928,#f3af84,,right_orange.png,p,3,3,15,0,1,o,right_blue.png,right_orange.png,p,left,60fda003f3acba0353b4c015,001,2021-07-25_16h32.29.845,arrow_simon_norep,2021.1.2,MacIntel,62.5,,,,,,,,,,,,,,,,,,,,,,,,,,,,,,,,,,,,,,
,,,w,1,1.375,0,0.063034556,#a3d0fb,,left_blue.png,w,4,0,16,2,1,w,left_blue.png,left_orange.png,q,left,60fda003f3acba0353b4c015,001,2021-07-25_16h32.29.845,arrow_simon_norep,2021.1.2,MacIntel,62.5,,,,,,,,,,,,,,,,,,,,,,,,,,,,,,,,,,,,,,
,,,o,0,8,1,0.889226898,#f3af84,,right_orange.png,p,4,1,17,1,1,o,right_blue.png,right_orange.png,p,right,60fda003f3acba0353b4c015,001,2021-07-25_16h32.29.845,arrow_simon_norep,2021.1.2,MacIntel,62.5,,,,,,,,,,,,,,,,,,,,,,,,,,,,,,,,,,,,,,
,,,o,1,2.798,0,0.264665723,#a3d0fb,,right_blue.png,o,4,2,18,1,1,o,right_blue.png,right_orange.png,p,right,60fda003f3acba0353b4c015,001,2021-07-25_16h32.29.845,arrow_simon_norep,2021.1.2,MacIntel,62.5,,,,,,,,,,,,,,,,,,,,,,,,,,,,,,,,,,,,,,
,,,q,1,1.587,0,0.310619053,#f3af84,,left_orange.png,q,4,3,19,3,1,w,left_blue.png,left_orange.png,q,right,60fda003f3acba0353b4c015,001,2021-07-25_16h32.29.845,arrow_simon_norep,2021.1.2,MacIntel,62.5,,,,,,,,,,,,,,,,,,,,,,,,,,,,,,,,,,,,,,
,,,o,1,3.864,0,0.01524953,#a3d0fb,,right_blue.png,o,5,0,20,1,1,o,right_blue.png,right_orange.png,p,right,60fda003f3acba0353b4c015,001,2021-07-25_16h32.29.845,arrow_simon_norep,2021.1.2,MacIntel,62.5,,,,,,,,,,,,,,,,,,,,,,,,,,,,,,,,,,,,,,
,,,p,1,1.129,0,0.229054394,#f3af84,,right_orange.png,p,5,1,21,1,1,o,right_blue.png,right_orange.png,p,right,60fda003f3acba0353b4c015,001,2021-07-25_16h32.29.845,arrow_simon_norep,2021.1.2,MacIntel,62.5,,,,,,,,,,,,,,,,,,,,,,,,,,,,,,,,,,,,,,
,,,o,1,1.742,0,0.582705375,#a3d0fb,,right_blue.png,o,5,2,22,1,1,o,right_blue.png,right_orange.png,p,right,60fda003f3acba0353b4c015,001,2021-07-25_16h32.29.845,arrow_simon_norep,2021.1.2,MacIntel,62.5,,,,,,,,,,,,,,,,,,,,,,,,,,,,,,,,,,,,,,
,,,q,1,1.876,0,0.405599494,#f3af84,,left_orange.png,q,5,3,23,3,1,w,left_blue.png,left_orange.png,q,right,60fda003f3acba0353b4c015,001,2021-07-25_16h32.29.845,arrow_simon_norep,2021.1.2,MacIntel,62.5,,,,,,,,,,,,,,,,,,,,,,,,,,,,,,,,,,,,,,
,,,o,1,2.416,0,0.521522775,#a3d0fb,,right_blue.png,o,6,0,24,1,1,o,right_blue.png,right_orange.png,p,right,60fda003f3acba0353b4c015,001,2021-07-25_16h32.29.845,arrow_simon_norep,2021.1.2,MacIntel,62.5,,,,,,,,,,,,,,,,,,,,,,,,,,,,,,,,,,,,,,
,,,q,1,3.4,0,0.795151195,#f3af84,,left_orange.png,q,6,1,25,3,1,w,left_blue.png,left_orange.png,q,right,60fda003f3acba0353b4c015,001,2021-07-25_16h32.29.845,arrow_simon_norep,2021.1.2,MacIntel,62.5,,,,,,,,,,,,,,,,,,,,,,,,,,,,,,,,,,,,,,
,,,o,1,3.772,0,0.020072206,#a3d0fb,,right_blue.png,o,6,2,26,0,1,o,right_blue.png,right_orange.png,p,left,60fda003f3acba0353b4c015,001,2021-07-25_16h32.29.845,arrow_simon_norep,2021.1.2,MacIntel,62.5,,,,,,,,,,,,,,,,,,,,,,,,,,,,,,,,,,,,,,
,,,q,1,2.168,0,0.713419048,#f3af84,,left_orange.png,q,6,3,27,3,1,w,left_blue.png,left_orange.png,q,right,60fda003f3acba0353b4c015,001,2021-07-25_16h32.29.845,arrow_simon_norep,2021.1.2,MacIntel,62.5,,,,,,,,,,,,,,,,,,,,,,,,,,,,,,,,,,,,,,
,,,o,1,2.407,0,0.712676444,#a3d0fb,,right_blue.png,o,7,0,28,1,1,o,right_blue.png,right_orange.png,p,right,60fda003f3acba0353b4c015,001,2021-07-25_16h32.29.845,arrow_simon_norep,2021.1.2,MacIntel,62.5,,,,,,,,,,,,,,,,,,,,,,,,,,,,,,,,,,,,,,
,,,q,1,2.883,0,0.167122963,#f3af84,,left_orange.png,q,7,1,29,2,1,w,left_blue.png,left_orange.png,q,left,60fda003f3acba0353b4c015,001,2021-07-25_16h32.29.845,arrow_simon_norep,2021.1.2,MacIntel,62.5,,,,,,,,,,,,,,,,,,,,,,,,,,,,,,,,,,,,,,
,,,w,1,2.985,0,0.831035388,#a3d0fb,,left_blue.png,w,7,2,30,2,1,w,left_blue.png,left_orange.png,q,left,60fda003f3acba0353b4c015,001,2021-07-25_16h32.29.845,arrow_simon_norep,2021.1.2,MacIntel,62.5,,,,,,,,,,,,,,,,,,,,,,,,,,,,,,,,,,,,,,
,,,p,1,3.588,0,0.677315338,#f3af84,,right_orange.png,p,7,3,31,1,1,o,right_blue.png,right_orange.png,p,right,60fda003f3acba0353b4c015,001,2021-07-25_16h32.29.845,arrow_simon_norep,2021.1.2,MacIntel,62.5,,,,,,,,,,,,,,,,,,,,,,,,,,,,,,,,,,,,,,
,,,w,0,3.412,1,0.609620731,#a3d0fb,,right_blue.png,o,8,0,32,0,1,o,right_blue.png,right_orange.png,p,left,60fda003f3acba0353b4c015,001,2021-07-25_16h32.29.845,arrow_simon_norep,2021.1.2,MacIntel,62.5,,,,,,,,,,,,,,,,,,,,,,,,,,,,,,,,,,,,,,
,,,p,1,6.399,0,0.446624478,#f3af84,,right_orange.png,p,8,1,33,1,1,o,right_blue.png,right_orange.png,p,right,60fda003f3acba0353b4c015,001,2021-07-25_16h32.29.845,arrow_simon_norep,2021.1.2,MacIntel,62.5,,,,,,,,,,,,,,,,,,,,,,,,,,,,,,,,,,,,,,
,,,o,1,1.972,0,0.026333115,#a3d0fb,,right_blue.png,o,8,2,34,0,1,o,right_blue.png,right_orange.png,p,left,60fda003f3acba0353b4c015,001,2021-07-25_16h32.29.845,arrow_simon_norep,2021.1.2,MacIntel,62.5,,,,,,,,,,,,,,,,,,,,,,,,,,,,,,,,,,,,,,
,,,q,1,2.484,0,0.727866391,#f3af84,,left_orange.png,q,8,3,35,3,1,w,left_blue.png,left_orange.png,q,right,60fda003f3acba0353b4c015,001,2021-07-25_16h32.29.845,arrow_simon_norep,2021.1.2,MacIntel,62.5,,,,,,,,,,,,,,,,,,,,,,,,,,,,,,,,,,,,,,
,,,o,1,3.624,0,0.804254074,#a3d0fb,,right_blue.png,o,9,0,36,0,1,o,right_blue.png,right_orange.png,p,left,60fda003f3acba0353b4c015,001,2021-07-25_16h32.29.845,arrow_simon_norep,2021.1.2,MacIntel,62.5,,,,,,,,,,,,,,,,,,,,,,,,,,,,,,,,,,,,,,
,,,q,1,1.865,0,0.281631423,#f3af84,,left_orange.png,q,9,1,37,2,1,w,left_blue.png,left_orange.png,q,left,60fda003f3acba0353b4c015,001,2021-07-25_16h32.29.845,arrow_simon_norep,2021.1.2,MacIntel,62.5,,,,,,,,,,,,,,,,,,,,,,,,,,,,,,,,,,,,,,
,,,w,1,2.639,0,0.330976227,#a3d0fb,,left_blue.png,w,9,2,38,2,1,w,left_blue.png,left_orange.png,q,left,60fda003f3acba0353b4c015,001,2021-07-25_16h32.29.845,arrow_simon_norep,2021.1.2,MacIntel,62.5,,,,,,,,,,,,,,,,,,,,,,,,,,,,,,,,,,,,,,
,,,q,1,2.713,0,0.722904115,#f3af84,,left_orange.png,q,9,3,39,3,1,w,left_blue.png,left_orange.png,q,right,60fda003f3acba0353b4c015,001,2021-07-25_16h32.29.845,arrow_simon_norep,2021.1.2,MacIntel,62.5,,,,,,,,,,,,,,,,,,,,,,,,,,,,,,,,,,,,,,
,,,w,1,0.99,0,0.016949353,#a3d0fb,,left_blue.png,w,10,0,40,2,1,w,left_blue.png,left_orange.png,q,left,60fda003f3acba0353b4c015,001,2021-07-25_16h32.29.845,arrow_simon_norep,2021.1.2,MacIntel,62.5,,,,,,,,,,,,,,,,,,,,,,,,,,,,,,,,,,,,,,
,,,q,1,2.023,0,0.588673478,#f3af84,,left_orange.png,q,10,1,41,3,1,w,left_blue.png,left_orange.png,q,right,60fda003f3acba0353b4c015,001,2021-07-25_16h32.29.845,arrow_simon_norep,2021.1.2,MacIntel,62.5,,,,,,,,,,,,,,,,,,,,,,,,,,,,,,,,,,,,,,
,,,w,1,1.483,0,0.017199301,#a3d0fb,,left_blue.png,w,10,2,42,3,1,w,left_blue.png,left_orange.png,q,right,60fda003f3acba0353b4c015,001,2021-07-25_16h32.29.845,arrow_simon_norep,2021.1.2,MacIntel,62.5,,,,,,,,,,,,,,,,,,,,,,,,,,,,,,,,,,,,,,
,,,p,1,1.902,0,0.509539201,#f3af84,,right_orange.png,p,10,3,43,0,1,o,right_blue.png,right_orange.png,p,left,60fda003f3acba0353b4c015,001,2021-07-25_16h32.29.845,arrow_simon_norep,2021.1.2,MacIntel,62.5,,,,,,,,,,,,,,,,,,,,,,,,,,,,,,,,,,,,,,
,,,w,1,1.046,0,0.049848771,#a3d0fb,,left_blue.png,w,11,0,44,3,1,w,left_blue.png,left_orange.png,q,right,60fda003f3acba0353b4c015,001,2021-07-25_16h32.29.845,arrow_simon_norep,2021.1.2,MacIntel,62.5,,,,,,,,,,,,,,,,,,,,,,,,,,,,,,,,,,,,,,
,,,q,1,3.304,0,0.716126599,#f3af84,,left_orange.png,q,11,1,45,3,1,w,left_blue.png,left_orange.png,q,right,60fda003f3acba0353b4c015,001,2021-07-25_16h32.29.845,arrow_simon_norep,2021.1.2,MacIntel,62.5,,,,,,,,,,,,,,,,,,,,,,,,,,,,,,,,,,,,,,
,,,w,1,4.232,0,0.44045094,#a3d0fb,,left_blue.png,w,11,2,46,2,1,w,left_blue.png,left_orange.png,q,left,60fda003f3acba0353b4c015,001,2021-07-25_16h32.29.845,arrow_simon_norep,2021.1.2,MacIntel,62.5,,,,,,,,,,,,,,,,,,,,,,,,,,,,,,,,,,,,,,
,,,p,1,2.572,0,0.958667391,#f3af84,,right_orange.png,p,11,3,47,1,1,o,right_blue.png,right_orange.png,p,right,60fda003f3acba0353b4c015,001,2021-07-25_16h32.29.845,arrow_simon_norep,2021.1.2,MacIntel,62.5,,,,,,,,,,,,,,,,,,,,,,,,,,,,,,,,,,,,,,
,,,w,1,1.374,0,0.501200462,#a3d0fb,,left_blue.png,w,12,0,48,2,1,w,left_blue.png,left_orange.png,q,left,60fda003f3acba0353b4c015,001,2021-07-25_16h32.29.845,arrow_simon_norep,2021.1.2,MacIntel,62.5,,,,,,,,,,,,,,,,,,,,,,,,,,,,,,,,,,,,,,
,,,p,1,1.723,0,0.574781074,#f3af84,,right_orange.png,p,12,1,49,0,1,o,right_blue.png,right_orange.png,p,left,60fda003f3acba0353b4c015,001,2021-07-25_16h32.29.845,arrow_simon_norep,2021.1.2,MacIntel,62.5,,,,,,,,,,,,,,,,,,,,,,,,,,,,,,,,,,,,,,
,,,w,1,2.491,0,0.744851739,#a3d0fb,,left_blue.png,w,12,2,50,2,1,w,left_blue.png,left_orange.png,q,left,60fda003f3acba0353b4c015,001,2021-07-25_16h32.29.845,arrow_simon_norep,2021.1.2,MacIntel,62.5,,,,,,,,,,,,,,,,,,,,,,,,,,,,,,,,,,,,,,
,,,p,1,1.469,0,0.78573907,#f3af84,,right_orange.png,p,12,3,51,1,1,o,right_blue.png,right_orange.png,p,right,60fda003f3acba0353b4c015,001,2021-07-25_16h32.29.845,arrow_simon_norep,2021.1.2,MacIntel,62.5,,,,,,,,,,,,,,,,,,,,,,,,,,,,,,,,,,,,,,
,,,o,1,1.038,0,0.185467709,#a3d0fb,,right_blue.png,o,13,0,52,1,1,o,right_blue.png,right_orange.png,p,right,60fda003f3acba0353b4c015,001,2021-07-25_16h32.29.845,arrow_simon_norep,2021.1.2,MacIntel,62.5,,,,,,,,,,,,,,,,,,,,,,,,,,,,,,,,,,,,,,
,,,p,1,3.281,0,0.114749292,#f3af84,,right_orange.png,p,13,1,53,0,1,o,right_blue.png,right_orange.png,p,left,60fda003f3acba0353b4c015,001,2021-07-25_16h32.29.845,arrow_simon_norep,2021.1.2,MacIntel,62.5,,,,,,,,,,,,,,,,,,,,,,,,,,,,,,,,,,,,,,
,,,w,1,2.753,0,0.965797946,#a3d0fb,,left_blue.png,w,13,2,54,2,1,w,left_blue.png,left_orange.png,q,left,60fda003f3acba0353b4c015,001,2021-07-25_16h32.29.845,arrow_simon_norep,2021.1.2,MacIntel,62.5,,,,,,,,,,,,,,,,,,,,,,,,,,,,,,,,,,,,,,
,,,p,1,1.78,0,0.789570349,#f3af84,,right_orange.png,p,13,3,55,1,1,o,right_blue.png,right_orange.png,p,right,60fda003f3acba0353b4c015,001,2021-07-25_16h32.29.845,arrow_simon_norep,2021.1.2,MacIntel,62.5,,,,,,,,,,,,,,,,,,,,,,,,,,,,,,,,,,,,,,
,,,o,1,2.896,0,0.2751953,#a3d0fb,,right_blue.png,o,14,0,56,0,1,o,right_blue.png,right_orange.png,p,left,60fda003f3acba0353b4c015,001,2021-07-25_16h32.29.845,arrow_simon_norep,2021.1.2,MacIntel,62.5,,,,,,,,,,,,,,,,,,,,,,,,,,,,,,,,,,,,,,
,,,q,1,4.931,0,0.941321467,#f3af84,,left_orange.png,q,14,1,57,3,1,w,left_blue.png,left_orange.png,q,right,60fda003f3acba0353b4c015,001,2021-07-25_16h32.29.845,arrow_simon_norep,2021.1.2,MacIntel,62.5,,,,,,,,,,,,,,,,,,,,,,,,,,,,,,,,,,,,,,
,,,o,1,3.187,0,0.543660883,#a3d0fb,,right_blue.png,o,14,2,58,1,1,o,right_blue.png,right_orange.png,p,right,60fda003f3acba0353b4c015,001,2021-07-25_16h32.29.845,arrow_simon_norep,2021.1.2,MacIntel,62.5,,,,,,,,,,,,,,,,,,,,,,,,,,,,,,,,,,,,,,
,,,q,1,2.706,0,0.825039555,#f3af84,,left_orange.png,q,14,3,59,2,1,w,left_blue.png,left_orange.png,q,left,60fda003f3acba0353b4c015,001,2021-07-25_16h32.29.845,arrow_simon_norep,2021.1.2,MacIntel,62.5,,,,,,,,,,,,,,,,,,,,,,,,,,,,,,,,,,,,,,
,,,,,,,,,,,,,,,,,,,,,,60fda003f3acba0353b4c015,001,2021-07-25_16h32.29.845,arrow_simon_norep,2021.1.2,MacIntel,62.5,space,24.589,0,0,0,0,1,,,,,,,,,,,,,,,,,,,,,,,,,,,,,,,
,,,o,1,2.511,0,0.200752513,#a3d0fb,,right_blue.png,o,0,0,0,1,1,o,right_blue.png,right_orange.png,p,right,60fda003f3acba0353b4c015,001,2021-07-25_16h32.29.845,arrow_simon_norep,2021.1.2,MacIntel,62.5,,,,,,,,,,,,,,,,,,,,,,,,,,,,,,,,,,,,,,
,,,p,1,3.213,0,0.885869245,#f3af84,,right_orange.png,p,0,1,1,1,1,o,right_blue.png,right_orange.png,p,right,60fda003f3acba0353b4c015,001,2021-07-25_16h32.29.845,arrow_simon_norep,2021.1.2,MacIntel,62.5,,,,,,,,,,,,,,,,,,,,,,,,,,,,,,,,,,,,,,
,,,o,1,1.373,0,0.564339499,#a3d0fb,,right_blue.png,o,0,2,2,1,1,o,right_blue.png,right_orange.png,p,right,60fda003f3acba0353b4c015,001,2021-07-25_16h32.29.845,arrow_simon_norep,2021.1.2,MacIntel,62.5,,,,,,,,,,,,,,,,,,,,,,,,,,,,,,,,,,,,,,
,,,p,1,2.049,0,0.90697346,#f3af84,,right_orange.png,p,0,3,3,0,1,o,right_blue.png,right_orange.png,p,left,60fda003f3acba0353b4c015,001,2021-07-25_16h32.29.845,arrow_simon_norep,2021.1.2,MacIntel,62.5,,,,,,,,,,,,,,,,,,,,,,,,,,,,,,,,,,,,,,
,,,o,1,1.768,0,0.594283669,#a3d0fb,,right_blue.png,o,1,0,4,1,1,o,right_blue.png,right_orange.png,p,right,60fda003f3acba0353b4c015,001,2021-07-25_16h32.29.845,arrow_simon_norep,2021.1.2,MacIntel,62.5,,,,,,,,,,,,,,,,,,,,,,,,,,,,,,,,,,,,,,
,,,p,1,0.985,0,0.20934508,#f3af84,,right_orange.png,p,1,1,5,1,1,o,right_blue.png,right_orange.png,p,right,60fda003f3acba0353b4c015,001,2021-07-25_16h32.29.845,arrow_simon_norep,2021.1.2,MacIntel,62.5,,,,,,,,,,,,,,,,,,,,,,,,,,,,,,,,,,,,,,
,,,o,1,0.632,0,0.046075376,#a3d0fb,,right_blue.png,o,1,2,6,0,1,o,right_blue.png,right_orange.png,p,left,60fda003f3acba0353b4c015,001,2021-07-25_16h32.29.845,arrow_simon_norep,2021.1.2,MacIntel,62.5,,,,,,,,,,,,,,,,,,,,,,,,,,,,,,,,,,,,,,
,,,q,1,1.457,0,0.15408286,#f3af84,,left_orange.png,q,1,3,7,2,1,w,left_blue.png,left_orange.png,q,left,60fda003f3acba0353b4c015,001,2021-07-25_16h32.29.845,arrow_simon_norep,2021.1.2,MacIntel,62.5,,,,,,,,,,,,,,,,,,,,,,,,,,,,,,,,,,,,,,
,,,w,1,1.789,0,0.881549143,#a3d0fb,,left_blue.png,w,2,0,8,3,1,w,left_blue.png,left_orange.png,q,right,60fda003f3acba0353b4c015,001,2021-07-25_16h32.29.845,arrow_simon_norep,2021.1.2,MacIntel,62.5,,,,,,,,,,,,,,,,,,,,,,,,,,,,,,,,,,,,,,
,,,p,1,1.505,0,0.530537345,#f3af84,,right_orange.png,p,2,1,9,0,1,o,right_blue.png,right_orange.png,p,left,60fda003f3acba0353b4c015,001,2021-07-25_16h32.29.845,arrow_simon_norep,2021.1.2,MacIntel,62.5,,,,,,,,,,,,,,,,,,,,,,,,,,,,,,,,,,,,,,
,,,w,1,2.683,0,0.814814013,#a3d0fb,,left_blue.png,w,2,2,10,2,1,w,left_blue.png,left_orange.png,q,left,60fda003f3acba0353b4c015,001,2021-07-25_16h32.29.845,arrow_simon_norep,2021.1.2,MacIntel,62.5,,,,,,,,,,,,,,,,,,,,,,,,,,,,,,,,,,,,,,
,,,q,1,9.54,0,0.886198878,#f3af84,,left_orange.png,q,2,3,11,3,1,w,left_blue.png,left_orange.png,q,right,60fda003f3acba0353b4c015,001,2021-07-25_16h32.29.845,arrow_simon_norep,2021.1.2,MacIntel,62.5,,,,,,,,,,,,,,,,,,,,,,,,,,,,,,,,,,,,,,
,,,o,1,4.338,0,0.173210697,#a3d0fb,,right_blue.png,o,3,0,12,1,1,o,right_blue.png,right_orange.png,p,right,60fda003f3acba0353b4c015,001,2021-07-25_16h32.29.845,arrow_simon_norep,2021.1.2,MacIntel,62.5,,,,,,,,,,,,,,,,,,,,,,,,,,,,,,,,,,,,,,
,,,p,1,2.806,0,0.809526204,#f3af84,,right_orange.png,p,3,1,13,0,1,o,right_blue.png,right_orange.png,p,left,60fda003f3acba0353b4c015,001,2021-07-25_16h32.29.845,arrow_simon_norep,2021.1.2,MacIntel,62.5,,,,,,,,,,,,,,,,,,,,,,,,,,,,,,,,,,,,,,
,,,w,1,5.91,0,0.971691867,#a3d0fb,,left_blue.png,w,3,2,14,3,1,w,left_blue.png,left_orange.png,q,right,60fda003f3acba0353b4c015,001,2021-07-25_16h32.29.845,arrow_simon_norep,2021.1.2,MacIntel,62.5,,,,,,,,,,,,,,,,,,,,,,,,,,,,,,,,,,,,,,
,,,q,1,3.95,0,0.371516273,#f3af84,,left_orange.png,q,3,3,15,2,1,w,left_blue.png,left_orange.png,q,left,60fda003f3acba0353b4c015,001,2021-07-25_16h32.29.845,arrow_simon_norep,2021.1.2,MacIntel,62.5,,,,,,,,,,,,,,,,,,,,,,,,,,,,,,,,,,,,,,
,,,w,1,1.65,0,0.133372923,#a3d0fb,,left_blue.png,w,4,0,16,2,1,w,left_blue.png,left_orange.png,q,left,60fda003f3acba0353b4c015,001,2021-07-25_16h32.29.845,arrow_simon_norep,2021.1.2,MacIntel,62.5,,,,,,,,,,,,,,,,,,,,,,,,,,,,,,,,,,,,,,
,,,p,1,1.169,0,0.38112756,#f3af84,,right_orange.png,p,4,1,17,1,1,o,right_blue.png,right_orange.png,p,right,60fda003f3acba0353b4c015,001,2021-07-25_16h32.29.845,arrow_simon_norep,2021.1.2,MacIntel,62.5,,,,,,,,,,,,,,,,,,,,,,,,,,,,,,,,,,,,,,
,,,p,0,1.54,1,0.784597903,#a3d0fb,,right_blue.png,o,4,2,18,0,1,o,right_blue.png,right_orange.png,p,left,60fda003f3acba0353b4c015,001,2021-07-25_16h32.29.845,arrow_simon_norep,2021.1.2,MacIntel,62.5,,,,,,,,,,,,,,,,,,,,,,,,,,,,,,,,,,,,,,
,,,q,1,3.873,0,0.258388435,#f3af84,,left_orange.png,q,4,3,19,2,1,w,left_blue.png,left_orange.png,q,left,60fda003f3acba0353b4c015,001,2021-07-25_16h32.29.845,arrow_simon_norep,2021.1.2,MacIntel,62.5,,,,,,,,,,,,,,,,,,,,,,,,,,,,,,,,,,,,,,
,,,o,1,2.222,0,0.698583802,#a3d0fb,,right_blue.png,o,5,0,20,1,1,o,right_blue.png,right_orange.png,p,right,60fda003f3acba0353b4c015,001,2021-07-25_16h32.29.845,arrow_simon_norep,2021.1.2,MacIntel,62.5,,,,,,,,,,,,,,,,,,,,,,,,,,,,,,,,,,,,,,
,,,q,1,1.548,0,0.378054244,#f3af84,,left_orange.png,q,5,1,21,2,1,w,left_blue.png,left_orange.png,q,left,60fda003f3acba0353b4c015,001,2021-07-25_16h32.29.845,arrow_simon_norep,2021.1.2,MacIntel,62.5,,,,,,,,,,,,,,,,,,,,,,,,,,,,,,,,,,,,,,
,,,w,1,1.707,0,0.516970431,#a3d0fb,,left_blue.png,w,5,2,22,3,1,w,left_blue.png,left_orange.png,q,right,60fda003f3acba0353b4c015,001,2021-07-25_16h32.29.845,arrow_simon_norep,2021.1.2,MacIntel,62.5,,,,,,,,,,,,,,,,,,,,,,,,,,,,,,,,,,,,,,
,,,q,1,6.681,0,0.895752573,#f3af84,,left_orange.png,q,5,3,23,3,1,w,left_blue.png,left_orange.png,q,right,60fda003f3acba0353b4c015,001,2021-07-25_16h32.29.845,arrow_simon_norep,2021.1.2,MacIntel,62.5,,,,,,,,,,,,,,,,,,,,,,,,,,,,,,,,,,,,,,
,,,w,0,2.317,1,0.687318508,#a3d0fb,,right_blue.png,o,6,0,24,0,1,o,right_blue.png,right_orange.png,p,left,60fda003f3acba0353b4c015,001,2021-07-25_16h32.29.845,arrow_simon_norep,2021.1.2,MacIntel,62.5,,,,,,,,,,,,,,,,,,,,,,,,,,,,,,,,,,,,,,
,,,q,1,4.496,0,0.766119372,#f3af84,,left_orange.png,q,6,1,25,2,1,w,left_blue.png,left_orange.png,q,left,60fda003f3acba0353b4c015,001,2021-07-25_16h32.29.845,arrow_simon_norep,2021.1.2,MacIntel,62.5,,,,,,,,,,,,,,,,,,,,,,,,,,,,,,,,,,,,,,
,,,o,1,3.906,0,0.399505027,#a3d0fb,,right_blue.png,o,6,2,26,1,1,o,right_blue.png,right_orange.png,p,right,60fda003f3acba0353b4c015,001,2021-07-25_16h32.29.845,arrow_simon_norep,2021.1.2,MacIntel,62.5,,,,,,,,,,,,,,,,,,,,,,,,,,,,,,,,,,,,,,
,,,p,1,1.788,0,0.21068986,#f3af84,,right_orange.png,p,6,3,27,0,1,o,right_blue.png,right_orange.png,p,left,60fda003f3acba0353b4c015,001,2021-07-25_16h32.29.845,arrow_simon_norep,2021.1.2,MacIntel,62.5,,,,,,,,,,,,,,,,,,,,,,,,,,,,,,,,,,,,,,
,,,o,1,1.696,0,0.120044599,#a3d0fb,,right_blue.png,o,7,0,28,0,1,o,right_blue.png,right_orange.png,p,left,60fda003f3acba0353b4c015,001,2021-07-25_16h32.29.845,arrow_simon_norep,2021.1.2,MacIntel,62.5,,,,,,,,,,,,,,,,,,,,,,,,,,,,,,,,,,,,,,
,,,q,1,1.88,0,0.225778208,#f3af84,,left_orange.png,q,7,1,29,2,1,w,left_blue.png,left_orange.png,q,left,60fda003f3acba0353b4c015,001,2021-07-25_16h32.29.845,arrow_simon_norep,2021.1.2,MacIntel,62.5,,,,,,,,,,,,,,,,,,,,,,,,,,,,,,,,,,,,,,
,,,w,1,1.987,0,0.103290941,#a3d0fb,,left_blue.png,w,7,2,30,3,1,w,left_blue.png,left_orange.png,q,right,60fda003f3acba0353b4c015,001,2021-07-25_16h32.29.845,arrow_simon_norep,2021.1.2,MacIntel,62.5,,,,,,,,,,,,,,,,,,,,,,,,,,,,,,,,,,,,,,
,,,q,1,3.885,0,0.836787839,#f3af84,,left_orange.png,q,7,3,31,2,1,w,left_blue.png,left_orange.png,q,left,60fda003f3acba0353b4c015,001,2021-07-25_16h32.29.845,arrow_simon_norep,2021.1.2,MacIntel,62.5,,,,,,,,,,,,,,,,,,,,,,,,,,,,,,,,,,,,,,
,,,o,1,7.358,0,0.330883302,#a3d0fb,,right_blue.png,o,8,0,32,0,1,o,right_blue.png,right_orange.png,p,left,60fda003f3acba0353b4c015,001,2021-07-25_16h32.29.845,arrow_simon_norep,2021.1.2,MacIntel,62.5,,,,,,,,,,,,,,,,,,,,,,,,,,,,,,,,,,,,,,
,,,q,1,5.663,0,0.560898815,#f3af84,,left_orange.png,q,8,1,33,2,1,w,left_blue.png,left_orange.png,q,left,60fda003f3acba0353b4c015,001,2021-07-25_16h32.29.845,arrow_simon_norep,2021.1.2,MacIntel,62.5,,,,,,,,,,,,,,,,,,,,,,,,,,,,,,,,,,,,,,
,,,w,1,1.95,0,0.122392789,#a3d0fb,,left_blue.png,w,8,2,34,3,1,w,left_blue.png,left_orange.png,q,right,60fda003f3acba0353b4c015,001,2021-07-25_16h32.29.845,arrow_simon_norep,2021.1.2,MacIntel,62.5,,,,,,,,,,,,,,,,,,,,,,,,,,,,,,,,,,,,,,
,,,p,1,1.448,0,0.210080378,#f3af84,,right_orange.png,p,8,3,35,0,1,o,right_blue.png,right_orange.png,p,left,60fda003f3acba0353b4c015,001,2021-07-25_16h32.29.845,arrow_simon_norep,2021.1.2,MacIntel,62.5,,,,,,,,,,,,,,,,,,,,,,,,,,,,,,,,,,,,,,
,,,o,1,2.614,0,0.829185567,#a3d0fb,,right_blue.png,o,9,0,36,0,1,o,right_blue.png,right_orange.png,p,left,60fda003f3acba0353b4c015,001,2021-07-25_16h32.29.845,arrow_simon_norep,2021.1.2,MacIntel,62.5,,,,,,,,,,,,,,,,,,,,,,,,,,,,,,,,,,,,,,
,,,q,1,2.064,0,0.821582817,#f3af84,,left_orange.png,q,9,1,37,3,1,w,left_blue.png,left_orange.png,q,right,60fda003f3acba0353b4c015,001,2021-07-25_16h32.29.845,arrow_simon_norep,2021.1.2,MacIntel,62.5,,,,,,,,,,,,,,,,,,,,,,,,,,,,,,,,,,,,,,
,,,w,1,1.582,0,0.517572856,#a3d0fb,,left_blue.png,w,9,2,38,3,1,w,left_blue.png,left_orange.png,q,right,60fda003f3acba0353b4c015,001,2021-07-25_16h32.29.845,arrow_simon_norep,2021.1.2,MacIntel,62.5,,,,,,,,,,,,,,,,,,,,,,,,,,,,,,,,,,,,,,
,,,p,1,1.709,0,0.776331866,#f3af84,,right_orange.png,p,9,3,39,0,1,o,right_blue.png,right_orange.png,p,left,60fda003f3acba0353b4c015,001,2021-07-25_16h32.29.845,arrow_simon_norep,2021.1.2,MacIntel,62.5,,,,,,,,,,,,,,,,,,,,,,,,,,,,,,,,,,,,,,
,,,w,1,1.975,0,0.612240287,#a3d0fb,,left_blue.png,w,10,0,40,3,1,w,left_blue.png,left_orange.png,q,right,60fda003f3acba0353b4c015,001,2021-07-25_16h32.29.845,arrow_simon_norep,2021.1.2,MacIntel,62.5,,,,,,,,,,,,,,,,,,,,,,,,,,,,,,,,,,,,,,
,,,p,1,3.449,0,0.577973726,#f3af84,,right_orange.png,p,10,1,41,0,1,o,right_blue.png,right_orange.png,p,left,60fda003f3acba0353b4c015,001,2021-07-25_16h32.29.845,arrow_simon_norep,2021.1.2,MacIntel,62.5,,,,,,,,,,,,,,,,,,,,,,,,,,,,,,,,,,,,,,
,,,w,1,1.891,0,0.691048093,#a3d0fb,,left_blue.png,w,10,2,42,3,1,w,left_blue.png,left_orange.png,q,right,60fda003f3acba0353b4c015,001,2021-07-25_16h32.29.845,arrow_simon_norep,2021.1.2,MacIntel,62.5,,,,,,,,,,,,,,,,,,,,,,,,,,,,,,,,,,,,,,
,,,q,1,2.582,0,0.925812889,#f3af84,,left_orange.png,q,10,3,43,2,1,w,left_blue.png,left_orange.png,q,left,60fda003f3acba0353b4c015,001,2021-07-25_16h32.29.845,arrow_simon_norep,2021.1.2,MacIntel,62.5,,,,,,,,,,,,,,,,,,,,,,,,,,,,,,,,,,,,,,
,,,o,1,1.665,0,0.772588358,#a3d0fb,,right_blue.png,o,11,0,44,0,1,o,right_blue.png,right_orange.png,p,left,60fda003f3acba0353b4c015,001,2021-07-25_16h32.29.845,arrow_simon_norep,2021.1.2,MacIntel,62.5,,,,,,,,,,,,,,,,,,,,,,,,,,,,,,,,,,,,,,
,,,q,1,2.966,0,0.800693971,#f3af84,,left_orange.png,q,11,1,45,2,1,w,left_blue.png,left_orange.png,q,left,60fda003f3acba0353b4c015,001,2021-07-25_16h32.29.845,arrow_simon_norep,2021.1.2,MacIntel,62.5,,,,,,,,,,,,,,,,,,,,,,,,,,,,,,,,,,,,,,
,,,w,1,1.384,0,0.072456157,#a3d0fb,,left_blue.png,w,11,2,46,3,1,w,left_blue.png,left_orange.png,q,right,60fda003f3acba0353b4c015,001,2021-07-25_16h32.29.845,arrow_simon_norep,2021.1.2,MacIntel,62.5,,,,,,,,,,,,,,,,,,,,,,,,,,,,,,,,,,,,,,
,,,p,1,1.956,0,0.355914603,#f3af84,,right_orange.png,p,11,3,47,1,1,o,right_blue.png,right_orange.png,p,right,60fda003f3acba0353b4c015,001,2021-07-25_16h32.29.845,arrow_simon_norep,2021.1.2,MacIntel,62.5,,,,,,,,,,,,,,,,,,,,,,,,,,,,,,,,,,,,,,
,,,o,1,1.564,0,0.428546166,#a3d0fb,,right_blue.png,o,12,0,48,1,1,o,right_blue.png,right_orange.png,p,right,60fda003f3acba0353b4c015,001,2021-07-25_16h32.29.845,arrow_simon_norep,2021.1.2,MacIntel,62.5,,,,,,,,,,,,,,,,,,,,,,,,,,,,,,,,,,,,,,
,,,q,1,4.101,0,0.161571668,#f3af84,,left_orange.png,q,12,1,49,3,1,w,left_blue.png,left_orange.png,q,right,60fda003f3acba0353b4c015,001,2021-07-25_16h32.29.845,arrow_simon_norep,2021.1.2,MacIntel,62.5,,,,,,,,,,,,,,,,,,,,,,,,,,,,,,,,,,,,,,
,,,o,1,1.6,0,0.016347772,#a3d0fb,,right_blue.png,o,12,2,50,1,1,o,right_blue.png,right_orange.png,p,right,60fda003f3acba0353b4c015,001,2021-07-25_16h32.29.845,arrow_simon_norep,2021.1.2,MacIntel,62.5,,,,,,,,,,,,,,,,,,,,,,,,,,,,,,,,,,,,,,
,,,p,1,3.637,0,0.410423457,#f3af84,,right_orange.png,p,12,3,51,1,1,o,right_blue.png,right_orange.png,p,right,60fda003f3acba0353b4c015,001,2021-07-25_16h32.29.845,arrow_simon_norep,2021.1.2,MacIntel,62.5,,,,,,,,,,,,,,,,,,,,,,,,,,,,,,,,,,,,,,
,,,o,1,1.662,0,0.130039789,#a3d0fb,,right_blue.png,o,13,0,52,0,1,o,right_blue.png,right_orange.png,p,left,60fda003f3acba0353b4c015,001,2021-07-25_16h32.29.845,arrow_simon_norep,2021.1.2,MacIntel,62.5,,,,,,,,,,,,,,,,,,,,,,,,,,,,,,,,,,,,,,
,,,q,1,2.037,0,0.925814587,#f3af84,,left_orange.png,q,13,1,53,2,1,w,left_blue.png,left_orange.png,q,left,60fda003f3acba0353b4c015,001,2021-07-25_16h32.29.845,arrow_simon_norep,2021.1.2,MacIntel,62.5,,,,,,,,,,,,,,,,,,,,,,,,,,,,,,,,,,,,,,
,,,w,1,1.59,0,0.981260935,#a3d0fb,,left_blue.png,w,13,2,54,3,1,w,left_blue.png,left_orange.png,q,right,60fda003f3acba0353b4c015,001,2021-07-25_16h32.29.845,arrow_simon_norep,2021.1.2,MacIntel,62.5,,,,,,,,,,,,,,,,,,,,,,,,,,,,,,,,,,,,,,
,,,q,1,0.889,0,0.003419802,#f3af84,,left_orange.png,q,13,3,55,2,1,w,left_blue.png,left_orange.png,q,left,60fda003f3acba0353b4c015,001,2021-07-25_16h32.29.845,arrow_simon_norep,2021.1.2,MacIntel,62.5,,,,,,,,,,,,,,,,,,,,,,,,,,,,,,,,,,,,,,
,,,w,1,1.198,0,0.702821444,#a3d0fb,,left_blue.png,w,14,0,56,3,1,w,left_blue.png,left_orange.png,q,right,60fda003f3acba0353b4c015,001,2021-07-25_16h32.29.845,arrow_simon_norep,2021.1.2,MacIntel,62.5,,,,,,,,,,,,,,,,,,,,,,,,,,,,,,,,,,,,,,
,,,p,1,1.554,0,0.261238494,#f3af84,,right_orange.png,p,14,1,57,1,1,o,right_blue.png,right_orange.png,p,right,60fda003f3acba0353b4c015,001,2021-07-25_16h32.29.845,arrow_simon_norep,2021.1.2,MacIntel,62.5,,,,,,,,,,,,,,,,,,,,,,,,,,,,,,,,,,,,,,
,,,w,1,1.243,0,0.232916774,#a3d0fb,,left_blue.png,w,14,2,58,2,1,w,left_blue.png,left_orange.png,q,left,60fda003f3acba0353b4c015,001,2021-07-25_16h32.29.845,arrow_simon_norep,2021.1.2,MacIntel,62.5,,,,,,,,,,,,,,,,,,,,,,,,,,,,,,,,,,,,,,
,,,p,1,1.48,0,0.535610995,#f3af84,,right_orange.png,p,14,3,59,1,1,o,right_blue.png,right_orange.png,p,right,60fda003f3acba0353b4c015,001,2021-07-25_16h32.29.845,arrow_simon_norep,2021.1.2,MacIntel,62.5,,,,,,,,,,,,,,,,,,,,,,,,,,,,,,,,,,,,,,
,,,,,,,,,,,,,,,,,,,,,,60fda003f3acba0353b4c015,001,2021-07-25_16h32.29.845,arrow_simon_norep,2021.1.2,MacIntel,62.5,space,2.855,1,0,1,0,1,,,,,,,,,,,,,,,,,,,,,,,,,,,,,,,
,,,,,,,,,,,,,,,,,,,,,,60fda003f3acba0353b4c015,001,2021-07-25_16h32.29.845,arrow_simon_norep,2021.1.2,MacIntel,62.5,,,,,,,,space,0,34.024,q,2.812,0,0,0,0,1,,,,,,,,,,,,,,,,,,,,,
,,,,,,,,,,,,,,,,,,,,,,60fda003f3acba0353b4c015,001,2021-07-25_16h32.29.845,arrow_simon_norep,2021.1.2,MacIntel,62.5,,,,,,,,,,,q,2.64,1,0,1,0,1,,,,,,,,,,,,,,,,,,,,,
,,,,,,,,,,,,,,,,,,,,,,60fda003f3acba0353b4c015,001,2021-07-25_16h32.29.845,arrow_simon_norep,2021.1.2,MacIntel,62.5,,,,,,,,,,,w,2.356,2,0,2,0,1,,,,,,,,,,,,,,,,,,,,,
,,,,,,,,,,,,,,,,,,,,,,60fda003f3acba0353b4c015,001,2021-07-25_16h32.29.845,arrow_simon_norep,2021.1.2,MacIntel,62.5,,,,,,,,,,,q,2.242,3,0,3,0,1,,,,,,,,,,,,,,,,,,,,,
,,,,,,,,,,,,,,,,,,,,,,60fda003f3acba0353b4c015,001,2021-07-25_16h32.29.845,arrow_simon_norep,2021.1.2,MacIntel,62.5,,,,,,,,,,,w,2.732,4,0,4,0,1,,,,,,,,,,,,,,,,,,,,,
,,,,,,,,,,,,,,,,,,,,,,60fda003f3acba0353b4c015,001,2021-07-25_16h32.29.845,arrow_simon_norep,2021.1.2,MacIntel,62.5,,,,,,,,,,,q,2.405,5,0,5,0,1,,,,,,,,,,,,,,,,,,,,,
,,,,,,,,,,,,,,,,,,,,,,60fda003f3acba0353b4c015,001,2021-07-25_16h32.29.845,arrow_simon_norep,2021.1.2,MacIntel,62.5,,,,,,,,,,,w,1.901,6,0,6,0,1,,,,,,,,,,,,,,,,,,,,,
,,,,,,,,,,,,,,,,,,,,,,60fda003f3acba0353b4c015,001,2021-07-25_16h32.29.845,arrow_simon_norep,2021.1.2,MacIntel,62.5,,,,,,,,,,,q,2.072,7,0,7,0,1,,,,,,,,,,,,,,,,,,,,,
,,,,,,,,,,,,,,,,,,,,,,60fda003f3acba0353b4c015,001,2021-07-25_16h32.29.845,arrow_simon_norep,2021.1.2,MacIntel,62.5,,,,,,,,,,,w,2.323,8,0,8,0,1,,,,,,,,,,,,,,,,,,,,,
,,,,,,,,,,,,,,,,,,,,,,60fda003f3acba0353b4c015,001,2021-07-25_16h32.29.845,arrow_simon_norep,2021.1.2,MacIntel,62.5,,,,,,,,,,,q,2.35,9,0,9,0,1,,,,,,,,,,,,,,,,,,,,,
,,,,,,,,,,,,,,,,,,,,,,60fda003f3acba0353b4c015,001,2021-07-25_16h32.29.845,arrow_simon_norep,2021.1.2,MacIntel,62.5,,,,,,,,,,,w,2.358,10,0,10,0,1,,,,,,,,,,,,,,,,,,,,,
,,,,,,,,,,,,,,,,,,,,,,60fda003f3acba0353b4c015,001,2021-07-25_16h32.29.845,arrow_simon_norep,2021.1.2,MacIntel,62.5,,,,,,,,,,,q,3.085,11,0,11,0,1,,,,,,,,,,,,,,,,,,,,,
,,,,,,,,,,,,,,,,,,,,,,60fda003f3acba0353b4c015,001,2021-07-25_16h32.29.845,arrow_simon_norep,2021.1.2,MacIntel,62.5,,,,,,,,,,,q,2.392,12,0,12,0,1,,,,,,,,,,,,,,,,,,,,,
,,,,,,,,,,,,,,,,,,,,,,60fda003f3acba0353b4c015,001,2021-07-25_16h32.29.845,arrow_simon_norep,2021.1.2,MacIntel,62.5,,,,,,,,,,,q,2.384,13,0,13,0,1,,,,,,,,,,,,,,,,,,,,,
,,,,,,,,,,,,,,,,,,,,,,60fda003f3acba0353b4c015,001,2021-07-25_16h32.29.845,arrow_simon_norep,2021.1.2,MacIntel,62.5,,,,,,,,,,,w,2.57,14,0,14,0,1,,,,,,,,,,,,,,,,,,,,,
,,,,,,,,,,,,,,,,,,,,,,60fda003f3acba0353b4c015,001,2021-07-25_16h32.29.845,arrow_simon_norep,2021.1.2,MacIntel,62.5,,,,,,,,,,,q,2.562,15,0,15,0,1,,,,,,,,,,,,,,,,,,,,,
,,,,,,,,,,,,,,,,,,,,,,60fda003f3acba0353b4c015,001,2021-07-25_16h32.29.845,arrow_simon_norep,2021.1.2,MacIntel,62.5,,,,,,,,,,,w,2.663,16,0,16,0,1,,,,,,,,,,,,,,,,,,,,,
,,,,,,,,,,,,,,,,,,,,,,60fda003f3acba0353b4c015,001,2021-07-25_16h32.29.845,arrow_simon_norep,2021.1.2,MacIntel,62.5,,,,,,,,,,,q,2.433,17,0,17,0,1,,,,,,,,,,,,,,,,,,,,,
,,,,,,,,,,,,,,,,,,,,,,60fda003f3acba0353b4c015,001,2021-07-25_16h32.29.845,arrow_simon_norep,2021.1.2,MacIntel,62.5,,,,,,,,,,,w,2.349,18,0,18,0,1,,,,,,,,,,,,,,,,,,,,,
,,,,,,,,,,,,,,,,,,,,,,60fda003f3acba0353b4c015,001,2021-07-25_16h32.29.845,arrow_simon_norep,2021.1.2,MacIntel,62.5,,,,,,,,,,,q,2.348,19,0,19,0,1,,,,,,,,,,,,,,,,,,,,,
,,,,,,,,,,,,,,,,,,,,,,60fda003f3acba0353b4c015,001,2021-07-25_16h32.29.845,arrow_simon_norep,2021.1.2,MacIntel,62.5,,,,,,,,,,,w,2.376,20,0,20,0,1,,,,,,,,,,,,,,,,,,,,,
,,,,,,,,,,,,,,,,,,,,,,60fda003f3acba0353b4c015,001,2021-07-25_16h32.29.845,arrow_simon_norep,2021.1.2,MacIntel,62.5,,,,,,,,,,,q,2.392,21,0,21,0,1,,,,,,,,,,,,,,,,,,,,,
,,,,,,,,,,,,,,,,,,,,,,60fda003f3acba0353b4c015,001,2021-07-25_16h32.29.845,arrow_simon_norep,2021.1.2,MacIntel,62.5,,,,,,,,,,,w,2.417,22,0,22,0,1,,,,,,,,,,,,,,,,,,,,,
,,,,,,,,,,,,,,,,,,,,,,60fda003f3acba0353b4c015,001,2021-07-25_16h32.29.845,arrow_simon_norep,2021.1.2,MacIntel,62.5,,,,,,,,,,,q,2.374,23,0,23,0,1,,,,,,,,,,,,,,,,,,,,,
,,,,,,,,,,,,,,,,,,,,,,60fda003f3acba0353b4c015,001,2021-07-25_16h32.29.845,arrow_simon_norep,2021.1.2,MacIntel,62.5,,,,,,,,,,,w,2.698,24,0,24,0,1,,,,,,,,,,,,,,,,,,,,,
,,,,,,,,,,,,,,,,,,,,,,60fda003f3acba0353b4c015,001,2021-07-25_16h32.29.845,arrow_simon_norep,2021.1.2,MacIntel,62.5,,,,,,,,,,,q,2.477,25,0,25,0,1,,,,,,,,,,,,,,,,,,,,,
,,,,,,,,,,,,,,,,,,,,,,60fda003f3acba0353b4c015,001,2021-07-25_16h32.29.845,arrow_simon_norep,2021.1.2,MacIntel,62.5,,,,,,,,,,,w,2.374,26,0,26,0,1,,,,,,,,,,,,,,,,,,,,,
,,,,,,,,,,,,,,,,,,,,,,60fda003f3acba0353b4c015,001,2021-07-25_16h32.29.845,arrow_simon_norep,2021.1.2,MacIntel,62.5,,,,,,,,,,,q,2.476,27,0,27,0,1,,,,,,,,,,,,,,,,,,,,,
,,,,,,,,,,,,,,,,,,,,,,60fda003f3acba0353b4c015,001,2021-07-25_16h32.29.845,arrow_simon_norep,2021.1.2,MacIntel,62.5,,,,,,,,,,,w,2.499,28,0,28,0,1,,,,,,,,,,,,,,,,,,,,,
,,,,,,,,,,,,,,,,,,,,,,60fda003f3acba0353b4c015,001,2021-07-25_16h32.29.845,arrow_simon_norep,2021.1.2,MacIntel,62.5,,,,,,,,,,,q,2.534,29,0,29,0,1,,,,,,,,,,,,,,,,,,,,,
,,,,,,,,,,,,,,,,,,,,,,60fda003f3acba0353b4c015,001,2021-07-25_16h32.29.845,arrow_simon_norep,2021.1.2,MacIntel,62.5,,,,,,,,,,,w,2.538,30,0,30,0,1,,,,,,,,,,,,,,,,,,,,,
,,,,,,,,,,,,,,,,,,,,,,60fda003f3acba0353b4c015,001,2021-07-25_16h32.29.845,arrow_simon_norep,2021.1.2,MacIntel,62.5,,,,,,,,,,,q,2.608,31,0,31,0,1,,,,,,,,,,,,,,,,,,,,,
,,,,,,,,,,,,,,,,,,,,,,60fda003f3acba0353b4c015,001,2021-07-25_16h32.29.845,arrow_simon_norep,2021.1.2,MacIntel,62.5,,,,,,,,,,,w,2.374,32,0,32,0,1,,,,,,,,,,,,,,,,,,,,,
,,,,,,,,,,,,,,,,,,,,,,60fda003f3acba0353b4c015,001,2021-07-25_16h32.29.845,arrow_simon_norep,2021.1.2,MacIntel,62.5,,,,,,,,,,,q,2.399,33,0,33,0,1,,,,,,,,,,,,,,,,,,,,,
,,,,,,,,,,,,,,,,,,,,,,60fda003f3acba0353b4c015,001,2021-07-25_16h32.29.845,arrow_simon_norep,2021.1.2,MacIntel,62.5,,,,,,,,,,,w,2.365,34,0,34,0,1,,,,,,,,,,,,,,,,,,,,,
,,,,,,,,,,,,,,,,,,,,,,60fda003f3acba0353b4c015,001,2021-07-25_16h32.29.845,arrow_simon_norep,2021.1.2,MacIntel,62.5,,,,,,,,,,,q,1.938,35,0,35,0,1,,,,,,,,,,,,,,,,,,,,,
,,,,,,,,,,,,,,,,,,,,,,60fda003f3acba0353b4c015,001,2021-07-25_16h32.29.845,arrow_simon_norep,2021.1.2,MacIntel,62.5,,,,,,,,,,,w,2.48,36,0,36,0,1,,,,,,,,,,,,,,,,,,,,,
,,,,,,,,,,,,,,,,,,,,,,60fda003f3acba0353b4c015,001,2021-07-25_16h32.29.845,arrow_simon_norep,2021.1.2,MacIntel,62.5,,,,,,,,,,,q,2.363,37,0,37,0,1,,,,,,,,,,,,,,,,,,,,,
,,,,,,,,,,,,,,,,,,,,,,60fda003f3acba0353b4c015,001,2021-07-25_16h32.29.845,arrow_simon_norep,2021.1.2,MacIntel,62.5,,,,,,,,,,,w,2.366,38,0,38,0,1,,,,,,,,,,,,,,,,,,,,,
,,,,,,,,,,,,,,,,,,,,,,60fda003f3acba0353b4c015,001,2021-07-25_16h32.29.845,arrow_simon_norep,2021.1.2,MacIntel,62.5,,,,,,,,,,,q,1.884,39,0,39,0,1,,,,,,,,,,,,,,,,,,,,,
,,,,,,,,,,,,,,,,,,,,,,60fda003f3acba0353b4c015,001,2021-07-25_16h32.29.845,arrow_simon_norep,2021.1.2,MacIntel,62.5,,,,,,,,,,,w,2.382,40,0,40,0,1,,,,,,,,,,,,,,,,,,,,,
,,,,,,,,,,,,,,,,,,,,,,60fda003f3acba0353b4c015,001,2021-07-25_16h32.29.845,arrow_simon_norep,2021.1.2,MacIntel,62.5,,,,,,,,,,,q,2.467,41,0,41,0,1,,,,,,,,,,,,,,,,,,,,,
,,,,,,,,,,,,,,,,,,,,,,60fda003f3acba0353b4c015,001,2021-07-25_16h32.29.845,arrow_simon_norep,2021.1.2,MacIntel,62.5,,,,,,,,,,,w,2.703,42,0,42,0,1,,,,,,,,,,,,,,,,,,,,,
,,,,,,,,,,,,,,,,,,,,,,60fda003f3acba0353b4c015,001,2021-07-25_16h32.29.845,arrow_simon_norep,2021.1.2,MacIntel,62.5,,,,,,,,,,,q,2.396,43,0,43,0,1,,,,,,,,,,,,,,,,,,,,,
,,,,,,,,,,,,,,,,,,,,,,60fda003f3acba0353b4c015,001,2021-07-25_16h32.29.845,arrow_simon_norep,2021.1.2,MacIntel,62.5,,,,,,,,,,,w,2.407,44,0,44,0,1,,,,,,,,,,,,,,,,,,,,,
,,,,,,,,,,,,,,,,,,,,,,60fda003f3acba0353b4c015,001,2021-07-25_16h32.29.845,arrow_simon_norep,2021.1.2,MacIntel,62.5,,,,,,,,,,,q,2.418,45,0,45,0,1,,,,,,,,,,,,,,,,,,,,,
,,,,,,,,,,,,,,,,,,,,,,60fda003f3acba0353b4c015,001,2021-07-25_16h32.29.845,arrow_simon_norep,2021.1.2,MacIntel,62.5,,,,,,,,,,,w,2.34,46,0,46,0,1,,,,,,,,,,,,,,,,,,,,,
,,,,,,,,,,,,,,,,,,,,,,60fda003f3acba0353b4c015,001,2021-07-25_16h32.29.845,arrow_simon_norep,2021.1.2,MacIntel,62.5,,,,,,,,,,,q,2.428,47,0,47,0,1,,,,,,,,,,,,,,,,,,,,,
,,,,,,,,,,,,,,,,,,,,,,60fda003f3acba0353b4c015,001,2021-07-25_16h32.29.845,arrow_simon_norep,2021.1.2,MacIntel,62.5,,,,,,,,,,,w,2.364,48,0,48,0,1,,,,,,,,,,,,,,,,,,,,,
,,,,,,,,,,,,,,,,,,,,,,60fda003f3acba0353b4c015,001,2021-07-25_16h32.29.845,arrow_simon_norep,2021.1.2,MacIntel,62.5,,,,,,,,,,,q,2.417,49,0,49,0,1,,,,,,,,,,,,,,,,,,,,,
,,,,,,,,,,,,,,,,,,,,,,60fda003f3acba0353b4c015,001,2021-07-25_16h32.29.845,arrow_simon_norep,2021.1.2,MacIntel,62.5,,,,,,,,,,,w,2.366,50,0,50,0,1,,,,,,,,,,,,,,,,,,,,,
,,,,,,,,,,,,,,,,,,,,,,60fda003f3acba0353b4c015,001,2021-07-25_16h32.29.845,arrow_simon_norep,2021.1.2,MacIntel,62.5,,,,,,,,,,,q,2.715,51,0,51,0,1,,,,,,,,,,,,,,,,,,,,,
,,,,,,,,,,,,,,,,,,,,,,60fda003f3acba0353b4c015,001,2021-07-25_16h32.29.845,arrow_simon_norep,2021.1.2,MacIntel,62.5,,,,,,,,,,,w,2.65,52,0,52,0,1,,,,,,,,,,,,,,,,,,,,,
,,,,,,,,,,,,,,,,,,,,,,60fda003f3acba0353b4c015,001,2021-07-25_16h32.29.845,arrow_simon_norep,2021.1.2,MacIntel,62.5,,,,,,,,,,,q,2.267,53,0,53,0,1,,,,,,,,,,,,,,,,,,,,,
,,,,,,,,,,,,,,,,,,,,,,60fda003f3acba0353b4c015,001,2021-07-25_16h32.29.845,arrow_simon_norep,2021.1.2,MacIntel,62.5,,,,,,,,,,,w,2.305,54,0,54,0,1,,,,,,,,,,,,,,,,,,,,,
,,,,,,,,,,,,,,,,,,,,,,60fda003f3acba0353b4c015,001,2021-07-25_16h32.29.845,arrow_simon_norep,2021.1.2,MacIntel,62.5,,,,,,,,,,,q,2.526,55,0,55,0,1,,,,,,,,,,,,,,,,,,,,,
,,,,,,,,,,,,,,,,,,,,,,60fda003f3acba0353b4c015,001,2021-07-25_16h32.29.845,arrow_simon_norep,2021.1.2,MacIntel,62.5,,,,,,,,,,,w,2.857,56,0,56,0,1,,,,,,,,,,,,,,,,,,,,,
,,,,,,,,,,,,,,,,,,,,,,60fda003f3acba0353b4c015,001,2021-07-25_16h32.29.845,arrow_simon_norep,2021.1.2,MacIntel,62.5,,,,,,,,,,,q,2.375,57,0,57,0,1,,,,,,,,,,,,,,,,,,,,,
,,,,,,,,,,,,,,,,,,,,,,60fda003f3acba0353b4c015,001,2021-07-25_16h32.29.845,arrow_simon_norep,2021.1.2,MacIntel,62.5,,,,,,,,,,,w,2.714,58,0,58,0,1,,,,,,,,,,,,,,,,,,,,,
,,,,,,,,,,,,,,,,,,,,,,60fda003f3acba0353b4c015,001,2021-07-25_16h32.29.845,arrow_simon_norep,2021.1.2,MacIntel,62.5,,,,,,,,,,,q,2.218,59,0,59,0,1,,,,,,,,,,,,,,,,,,,,,
,,,,,,0,1.609676667,#a3d0fb,,right_blue.png,o,,,,,,o,right_blue.png,right_orange.png,p,left,60fda003f3acba0353b4c015,001,2021-07-25_16h32.29.845,arrow_simon_norep,2021.1.2,MacIntel,62.5,,,,,,,,,,,,,,,,,,space,0,32.285,p,0,1.604,1,TRUE,FALSE,0,0,0,0,1,,,,,,,
,,,,,,0,2.09310795,#f3af84,,right_orange.png,p,,,,,,o,right_blue.png,right_orange.png,p,left,60fda003f3acba0353b4c015,001,2021-07-25_16h32.29.845,arrow_simon_norep,2021.1.2,MacIntel,62.5,,,,,,,,,,,,,,,,,,,,,w,0,1.693,2,TRUE,FALSE,0,1,1,0,1,,,,,,,
,,,,,,0,1.962960805,#a3d0fb,,right_blue.png,o,,,,,,o,right_blue.png,right_orange.png,p,right,60fda003f3acba0353b4c015,001,2021-07-25_16h32.29.845,arrow_simon_norep,2021.1.2,MacIntel,62.5,,,,,,,,,,,,,,,,,,,,,p,0,3.628,3,TRUE,FALSE,0,2,2,1,1,,,,,,,
,,,,,,0,2.445335232,#f3af84,,right_orange.png,p,,,,,,o,right_blue.png,right_orange.png,p,left,60fda003f3acba0353b4c015,001,2021-07-25_16h32.29.845,arrow_simon_norep,2021.1.2,MacIntel,62.5,,,,,,,,,,,,,,,,,,,,,w,0,2.092,4,TRUE,FALSE,0,3,3,0,1,,,,,,,
,,,,,,0,1.910582692,#a3d0fb,,right_blue.png,o,,,,,,o,right_blue.png,right_orange.png,p,right,60fda003f3acba0353b4c015,001,2021-07-25_16h32.29.845,arrow_simon_norep,2021.1.2,MacIntel,62.5,,,,,,,,,,,,,,,,,,,,,o,1,1.363,5,FALSE,TRUE,1,0,4,1,1,,,,,,,
,,,,,,0,2.27049201,#f3af84,,right_orange.png,p,,,,,,o,right_blue.png,right_orange.png,p,right,60fda003f3acba0353b4c015,001,2021-07-25_16h32.29.845,arrow_simon_norep,2021.1.2,MacIntel,62.5,,,,,,,,,,,,,,,,,,,,,p,1,1.67,6,TRUE,FALSE,1,1,5,1,1,,,,,,,
,,,,,,0,1.826053718,#a3d0fb,,right_blue.png,o,,,,,,o,right_blue.png,right_orange.png,p,right,60fda003f3acba0353b4c015,001,2021-07-25_16h32.29.845,arrow_simon_norep,2021.1.2,MacIntel,62.5,,,,,,,,,,,,,,,,,,,,,o,1,1.449,7,FALSE,FALSE,1,2,6,1,1,,,,,,,
,,,,,,0,1.741202186,#f3af84,,left_orange.png,q,,,,,,w,left_blue.png,left_orange.png,q,right,60fda003f3acba0353b4c015,001,2021-07-25_16h32.29.845,arrow_simon_norep,2021.1.2,MacIntel,62.5,,,,,,,,,,,,,,,,,,,,,q,1,1.232,8,FALSE,TRUE,1,3,7,3,1,,,,,,,
,,,,,,0,1.6751358,#a3d0fb,,left_blue.png,w,,,,,,w,left_blue.png,left_orange.png,q,left,60fda003f3acba0353b4c015,001,2021-07-25_16h32.29.845,arrow_simon_norep,2021.1.2,MacIntel,62.5,,,,,,,,,,,,,,,,,,,,,w,1,1.135,9,FALSE,TRUE,2,0,8,2,1,,,,,,,
,,,,,,0,2.311430489,#f3af84,,right_orange.png,p,,,,,,o,right_blue.png,right_orange.png,p,right,60fda003f3acba0353b4c015,001,2021-07-25_16h32.29.845,arrow_simon_norep,2021.1.2,MacIntel,62.5,,,,,,,,,,,,,,,,,,,,,p,1,1.966,10,TRUE,FALSE,2,1,9,1,1,,,,,,,
,,,,,,0,2.158300662,#a3d0fb,,right_blue.png,o,,,,,,o,right_blue.png,right_orange.png,p,right,60fda003f3acba0353b4c015,001,2021-07-25_16h32.29.845,arrow_simon_norep,2021.1.2,MacIntel,62.5,,,,,,,,,,,,,,,,,,,,,o,1,1.468,11,FALSE,FALSE,2,2,10,1,1,,,,,,,
,,,,,,0,2.1396995,#f3af84,,left_orange.png,q,,,,,,w,left_blue.png,left_orange.png,q,right,60fda003f3acba0353b4c015,001,2021-07-25_16h32.29.845,arrow_simon_norep,2021.1.2,MacIntel,62.5,,,,,,,,,,,,,,,,,,,,,q,1,1.559,12,FALSE,FALSE,2,3,11,3,1,,,,,,,
,,,,,,0,2.092629968,#a3d0fb,,left_blue.png,w,,,,,,w,left_blue.png,left_orange.png,q,right,60fda003f3acba0353b4c015,001,2021-07-25_16h32.29.845,arrow_simon_norep,2021.1.2,MacIntel,62.5,,,,,,,,,,,,,,,,,,,,,w,1,1.524,13,FALSE,FALSE,3,0,12,3,1,,,,,,,
,,,,,,0,2.165803603,#f3af84,,right_orange.png,p,,,,,,o,right_blue.png,right_orange.png,p,right,60fda003f3acba0353b4c015,001,2021-07-25_16h32.29.845,arrow_simon_norep,2021.1.2,MacIntel,62.5,,,,,,,,,,,,,,,,,,,,,p,1,1.474,14,FALSE,FALSE,3,1,13,1,1,,,,,,,
,,,,,,0,2.367912883,#a3d0fb,,right_blue.png,o,,,,,,o,right_blue.png,right_orange.png,p,right,60fda003f3acba0353b4c015,001,2021-07-25_16h32.29.845,arrow_simon_norep,2021.1.2,MacIntel,62.5,,,,,,,,,,,,,,,,,,,,,o,1,1.634,15,TRUE,FALSE,3,2,14,1,1,,,,,,,
,,,,,,0,2.040761635,#f3af84,,left_orange.png,q,,,,,,w,left_blue.png,left_orange.png,q,right,60fda003f3acba0353b4c015,001,2021-07-25_16h32.29.845,arrow_simon_norep,2021.1.2,MacIntel,62.5,,,,,,,,,,,,,,,,,,,,,q,1,1.367,16,FALSE,TRUE,3,3,15,3,1,,,,,,,
,,,,,,0,1.835682747,#a3d0fb,,left_blue.png,w,,,,,,w,left_blue.png,left_orange.png,q,left,60fda003f3acba0353b4c015,001,2021-07-25_16h32.29.845,arrow_simon_norep,2021.1.2,MacIntel,62.5,,,,,,,,,,,,,,,,,,,,,w,1,1.251,17,FALSE,TRUE,4,0,16,2,1,,,,,,,
,,,,,,0,2.233450532,#f3af84,,left_orange.png,q,,,,,,w,left_blue.png,left_orange.png,q,left,60fda003f3acba0353b4c015,001,2021-07-25_16h32.29.845,arrow_simon_norep,2021.1.2,MacIntel,62.5,,,,,,,,,,,,,,,,,,,,,q,1,1.592,18,FALSE,FALSE,4,1,17,2,1,,,,,,,
,,,,,,0,2.077482474,#a3d0fb,,left_blue.png,w,,,,,,w,left_blue.png,left_orange.png,q,right,60fda003f3acba0353b4c015,001,2021-07-25_16h32.29.845,arrow_simon_norep,2021.1.2,MacIntel,62.5,,,,,,,,,,,,,,,,,,,,,w,1,1.553,19,FALSE,FALSE,4,2,18,3,1,,,,,,,
,,,,,,0,1.576195346,#f3af84,,left_orange.png,q,,,,,,w,left_blue.png,left_orange.png,q,right,60fda003f3acba0353b4c015,001,2021-07-25_16h32.29.845,arrow_simon_norep,2021.1.2,MacIntel,62.5,,,,,,,,,,,,,,,,,,,,,q,1,1.053,20,FALSE,TRUE,4,3,19,3,1,,,,,,,
,,,,,,0,1.88744383,#a3d0fb,,left_blue.png,w,,,,,,w,left_blue.png,left_orange.png,q,left,60fda003f3acba0353b4c015,001,2021-07-25_16h32.29.845,arrow_simon_norep,2021.1.2,MacIntel,62.5,,,,,,,,,,,,,,,,,,,,,w,1,1.261,21,FALSE,TRUE,5,0,20,2,1,,,,,,,
,,,,,,0,2.082415123,#f3af84,,right_orange.png,p,,,,,,o,right_blue.png,right_orange.png,p,right,60fda003f3acba0353b4c015,001,2021-07-25_16h32.29.845,arrow_simon_norep,2021.1.2,MacIntel,62.5,,,,,,,,,,,,,,,,,,,,,p,1,1.558,22,FALSE,FALSE,5,1,21,1,1,,,,,,,
,,,,,,0,2.296965139,#a3d0fb,,right_blue.png,o,,,,,,o,right_blue.png,right_orange.png,p,right,60fda003f3acba0353b4c015,001,2021-07-25_16h32.29.845,arrow_simon_norep,2021.1.2,MacIntel,62.5,,,,,,,,,,,,,,,,,,,,,o,1,1.953,23,TRUE,FALSE,5,2,22,1,1,,,,,,,
,,,,,,0,1.618162827,#f3af84,,left_orange.png,q,,,,,,w,left_blue.png,left_orange.png,q,right,60fda003f3acba0353b4c015,001,2021-07-25_16h32.29.845,arrow_simon_norep,2021.1.2,MacIntel,62.5,,,,,,,,,,,,,,,,,,,,,q,1,0.975,24,FALSE,TRUE,5,3,23,3,1,,,,,,,
,,,,,,0,2.115953734,#a3d0fb,,right_blue.png,o,,,,,,o,right_blue.png,right_orange.png,p,left,60fda003f3acba0353b4c015,001,2021-07-25_16h32.29.845,arrow_simon_norep,2021.1.2,MacIntel,62.5,,,,,,,,,,,,,,,,,,,,,p,0,1.687,25,TRUE,FALSE,6,0,24,0,1,,,,,,,
,,,,,,0,1.792306648,#f3af84,,left_orange.png,q,,,,,,w,left_blue.png,left_orange.png,q,left,60fda003f3acba0353b4c015,001,2021-07-25_16h32.29.845,arrow_simon_norep,2021.1.2,MacIntel,62.5,,,,,,,,,,,,,,,,,,,,,q,1,1.199,26,FALSE,TRUE,6,1,25,2,1,,,,,,,
,,,,,,0,1.562736198,#a3d0fb,,right_blue.png,o,,,,,,o,right_blue.png,right_orange.png,p,left,60fda003f3acba0353b4c015,001,2021-07-25_16h32.29.845,arrow_simon_norep,2021.1.2,MacIntel,62.5,,,,,,,,,,,,,,,,,,,,,w,0,1.17,27,FALSE,TRUE,6,2,26,0,1,,,,,,,
,,,,,,0,2.420571919,#f3af84,,left_orange.png,q,,,,,,w,left_blue.png,left_orange.png,q,right,60fda003f3acba0353b4c015,001,2021-07-25_16h32.29.845,arrow_simon_norep,2021.1.2,MacIntel,62.5,,,,,,,,,,,,,,,,,,,,,q,1,1.869,28,TRUE,FALSE,6,3,27,3,1,,,,,,,
,,,,,,0,2.452716286,#a3d0fb,,right_blue.png,o,,,,,,o,right_blue.png,right_orange.png,p,left,60fda003f3acba0353b4c015,001,2021-07-25_16h32.29.845,arrow_simon_norep,2021.1.2,MacIntel,62.5,,,,,,,,,,,,,,,,,,,,,w,0,1.838,29,TRUE,FALSE,7,0,28,0,1,,,,,,,
,,,,,,0,2.394863354,#f3af84,,left_orange.png,q,,,,,,w,left_blue.png,left_orange.png,q,left,60fda003f3acba0353b4c015,001,2021-07-25_16h32.29.845,arrow_simon_norep,2021.1.2,MacIntel,62.5,,,,,,,,,,,,,,,,,,,,,q,1,1.729,30,TRUE,FALSE,7,1,29,2,1,,,,,,,
,,,,,,0,1.994293956,#a3d0fb,,left_blue.png,w,,,,,,w,left_blue.png,left_orange.png,q,right,60fda003f3acba0353b4c015,001,2021-07-25_16h32.29.845,arrow_simon_norep,2021.1.2,MacIntel,62.5,,,,,,,,,,,,,,,,,,,,,w,1,1.433,31,FALSE,FALSE,7,2,30,3,1,,,,,,,
,,,,,,0,1.670479291,#f3af84,,right_orange.png,p,,,,,,o,right_blue.png,right_orange.png,p,left,60fda003f3acba0353b4c015,001,2021-07-25_16h32.29.845,arrow_simon_norep,2021.1.2,MacIntel,62.5,,,,,,,,,,,,,,,,,,,,,p,1,1.175,32,FALSE,TRUE,7,3,31,0,1,,,,,,,
,,,,,,0,1.881441347,#a3d0fb,,right_blue.png,o,,,,,,o,right_blue.png,right_orange.png,p,right,60fda003f3acba0353b4c015,001,2021-07-25_16h32.29.845,arrow_simon_norep,2021.1.2,MacIntel,62.5,,,,,,,,,,,,,,,,,,,,,o,1,1.312,33,FALSE,TRUE,8,0,32,1,1,,,,,,,
,,,,,,0,1.533850075,#f3af84,,right_orange.png,p,,,,,,o,right_blue.png,right_orange.png,p,left,60fda003f3acba0353b4c015,001,2021-07-25_16h32.29.845,arrow_simon_norep,2021.1.2,MacIntel,62.5,,,,,,,,,,,,,,,,,,,,,p,1,1.233,34,FALSE,TRUE,8,1,33,0,1,,,,,,,
,,,,,,0,2.327826832,#a3d0fb,,right_blue.png,o,,,,,,o,right_blue.png,right_orange.png,p,right,60fda003f3acba0353b4c015,001,2021-07-25_16h32.29.845,arrow_simon_norep,2021.1.2,MacIntel,62.5,,,,,,,,,,,,,,,,,,,,,o,1,1.799,35,TRUE,FALSE,8,2,34,1,1,,,,,,,
,,,,,,0,1.620721031,#f3af84,,right_orange.png,p,,,,,,o,right_blue.png,right_orange.png,p,left,60fda003f3acba0353b4c015,001,2021-07-25_16h32.29.845,arrow_simon_norep,2021.1.2,MacIntel,62.5,,,,,,,,,,,,,,,,,,,,,q,0,1.003,36,FALSE,TRUE,8,3,35,0,1,,,,,,,
,,,,,,0,1.898149538,#a3d0fb,,right_blue.png,o,,,,,,o,right_blue.png,right_orange.png,p,left,60fda003f3acba0353b4c015,001,2021-07-25_16h32.29.845,arrow_simon_norep,2021.1.2,MacIntel,62.5,,,,,,,,,,,,,,,,,,,,,o,1,1.242,37,FALSE,TRUE,9,0,36,0,1,,,,,,,
,,,,,,0,2.281957276,#f3af84,,right_orange.png,p,,,,,,o,right_blue.png,right_orange.png,p,right,60fda003f3acba0353b4c015,001,2021-07-25_16h32.29.845,arrow_simon_norep,2021.1.2,MacIntel,62.5,,,,,,,,,,,,,,,,,,,,,p,1,1.701,38,TRUE,FALSE,9,1,37,1,1,,,,,,,
,,,,,,0,1.855814272,#a3d0fb,,left_blue.png,w,,,,,,w,left_blue.png,left_orange.png,q,right,60fda003f3acba0353b4c015,001,2021-07-25_16h32.29.845,arrow_simon_norep,2021.1.2,MacIntel,62.5,,,,,,,,,,,,,,,,,,,,,o,0,1.246,39,FALSE,TRUE,9,2,38,3,1,,,,,,,
,,,,,,0,1.558420764,#f3af84,,left_orange.png,q,,,,,,w,left_blue.png,left_orange.png,q,left,60fda003f3acba0353b4c015,001,2021-07-25_16h32.29.845,arrow_simon_norep,2021.1.2,MacIntel,62.5,,,,,,,,,,,,,,,,,,,,,q,1,0.966,40,FALSE,TRUE,9,3,39,2,1,,,,,,,
,,,,,,0,1.76151833,#a3d0fb,,left_blue.png,w,,,,,,w,left_blue.png,left_orange.png,q,right,60fda003f3acba0353b4c015,001,2021-07-25_16h32.29.845,arrow_simon_norep,2021.1.2,MacIntel,62.5,,,,,,,,,,,,,,,,,,,,,w,1,1.205,41,FALSE,TRUE,10,0,40,3,1,,,,,,,
,,,,,,0,2.170255568,#f3af84,,left_orange.png,q,,,,,,w,left_blue.png,left_orange.png,q,left,60fda003f3acba0353b4c015,001,2021-07-25_16h32.29.845,arrow_simon_norep,2021.1.2,MacIntel,62.5,,,,,,,,,,,,,,,,,,,,,q,1,1.574,42,FALSE,FALSE,10,1,41,2,1,,,,,,,
,,,,,,0,1.509933016,#a3d0fb,,left_blue.png,w,,,,,,w,left_blue.png,left_orange.png,q,left,60fda003f3acba0353b4c015,001,2021-07-25_16h32.29.845,arrow_simon_norep,2021.1.2,MacIntel,62.5,,,,,,,,,,,,,,,,,,,,,w,1,1.074,43,FALSE,TRUE,10,2,42,2,1,,,,,,,
,,,,,,0,2.12243397,#f3af84,,left_orange.png,q,,,,,,w,left_blue.png,left_orange.png,q,left,60fda003f3acba0353b4c015,001,2021-07-25_16h32.29.845,arrow_simon_norep,2021.1.2,MacIntel,62.5,,,,,,,,,,,,,,,,,,,,,q,1,1.504,44,FALSE,FALSE,10,3,43,2,1,,,,,,,
,,,,,,0,2.179086657,#a3d0fb,,left_blue.png,w,,,,,,w,left_blue.png,left_orange.png,q,left,60fda003f3acba0353b4c015,001,2021-07-25_16h32.29.845,arrow_simon_norep,2021.1.2,MacIntel,62.5,,,,,,,,,,,,,,,,,,,,,w,1,1.724,45,TRUE,FALSE,11,0,44,2,1,,,,,,,
,,,,,,0,2.139472183,#f3af84,,left_orange.png,q,,,,,,w,left_blue.png,left_orange.png,q,right,60fda003f3acba0353b4c015,001,2021-07-25_16h32.29.845,arrow_simon_norep,2021.1.2,MacIntel,62.5,,,,,,,,,,,,,,,,,,,,,q,1,1.591,46,FALSE,FALSE,11,1,45,3,1,,,,,,,
,,,,,,0,1.98031902,#a3d0fb,,right_blue.png,o,,,,,,o,right_blue.png,right_orange.png,p,right,60fda003f3acba0353b4c015,001,2021-07-25_16h32.29.845,arrow_simon_norep,2021.1.2,MacIntel,62.5,,,,,,,,,,,,,,,,,,,,,o,1,1.325,47,FALSE,TRUE,11,2,46,1,1,,,,,,,
,,,,,,0,1.955687571,#f3af84,,left_orange.png,q,,,,,,w,left_blue.png,left_orange.png,q,left,60fda003f3acba0353b4c015,001,2021-07-25_16h32.29.845,arrow_simon_norep,2021.1.2,MacIntel,62.5,,,,,,,,,,,,,,,,,,,,,q,1,1.48,48,FALSE,FALSE,11,3,47,2,1,,,,,,,
,,,,,,0,2.344050204,#a3d0fb,,left_blue.png,w,,,,,,w,left_blue.png,left_orange.png,q,right,60fda003f3acba0353b4c015,001,2021-07-25_16h32.29.845,arrow_simon_norep,2021.1.2,MacIntel,62.5,,,,,,,,,,,,,,,,,,,,,q,0,3.32,49,TRUE,FALSE,12,0,48,3,1,,,,,,,
,,,,,,0,2.421301106,#f3af84,,right_orange.png,p,,,,,,o,right_blue.png,right_orange.png,p,left,60fda003f3acba0353b4c015,001,2021-07-25_16h32.29.845,arrow_simon_norep,2021.1.2,MacIntel,62.5,,,,,,,,,,,,,,,,,,,,,p,1,2.003,50,TRUE,FALSE,12,1,49,0,1,,,,,,,
,,,,,,0,1.702740622,#a3d0fb,,left_blue.png,w,,,,,,w,left_blue.png,left_orange.png,q,right,60fda003f3acba0353b4c015,001,2021-07-25_16h32.29.845,arrow_simon_norep,2021.1.2,MacIntel,62.5,,,,,,,,,,,,,,,,,,,,,q,0,1.284,51,FALSE,TRUE,12,2,50,3,1,,,,,,,
,,,,,,0,2.414861181,#f3af84,,left_orange.png,q,,,,,,w,left_blue.png,left_orange.png,q,left,60fda003f3acba0353b4c015,001,2021-07-25_16h32.29.845,arrow_simon_norep,2021.1.2,MacIntel,62.5,,,,,,,,,,,,,,,,,,,,,q,1,2.042,52,TRUE,FALSE,12,3,51,2,1,,,,,,,
,,,,,,0,1.679220853,#a3d0fb,,right_blue.png,o,,,,,,o,right_blue.png,right_orange.png,p,right,60fda003f3acba0353b4c015,001,2021-07-25_16h32.29.845,arrow_simon_norep,2021.1.2,MacIntel,62.5,,,,,,,,,,,,,,,,,,,,,o,1,1.313,53,FALSE,TRUE,13,0,52,1,1,,,,,,,
,,,,,,0,2.214276653,#f3af84,,right_orange.png,p,,,,,,o,right_blue.png,right_orange.png,p,left,60fda003f3acba0353b4c015,001,2021-07-25_16h32.29.845,arrow_simon_norep,2021.1.2,MacIntel,62.5,,,,,,,,,,,,,,,,,,,,,p,1,1.801,54,TRUE,FALSE,13,1,53,0,1,,,,,,,
,,,,,,0,2.298137464,#a3d0fb,,left_blue.png,w,,,,,,w,left_blue.png,left_orange.png,q,right,60fda003f3acba0353b4c015,001,2021-07-25_16h32.29.845,arrow_simon_norep,2021.1.2,MacIntel,62.5,,,,,,,,,,,,,,,,,,,,,w,1,1.683,55,TRUE,FALSE,13,2,54,3,1,,,,,,,
,,,,,,0,1.825986227,#f3af84,,right_orange.png,p,,,,,,o,right_blue.png,right_orange.png,p,left,60fda003f3acba0353b4c015,001,2021-07-25_16h32.29.845,arrow_simon_norep,2021.1.2,MacIntel,62.5,,,,,,,,,,,,,,,,,,,,,p,1,1.166,56,FALSE,TRUE,13,3,55,0,1,,,,,,,
,,,,,,0,2.426432049,#a3d0fb,,right_blue.png,o,,,,,,o,right_blue.png,right_orange.png,p,left,60fda003f3acba0353b4c015,001,2021-07-25_16h32.29.845,arrow_simon_norep,2021.1.2,MacIntel,62.5,,,,,,,,,,,,,,,,,,,,,o,1,1.825,57,TRUE,FALSE,14,0,56,0,1,,,,,,,
,,,,,,0,1.685766207,#f3af84,,right_orange.png,p,,,,,,o,right_blue.png,right_orange.png,p,left,60fda003f3acba0353b4c015,001,2021-07-25_16h32.29.845,arrow_simon_norep,2021.1.2,MacIntel,62.5,,,,,,,,,,,,,,,,,,,,,p,1,1.099,58,FALSE,TRUE,14,1,57,0,1,,,,,,,
,,,,,,0,1.850735126,#a3d0fb,,left_blue.png,w,,,,,,w,left_blue.png,left_orange.png,q,left,60fda003f3acba0353b4c015,001,2021-07-25_16h32.29.845,arrow_simon_norep,2021.1.2,MacIntel,62.5,,,,,,,,,,,,,,,,,,,,,o,0,1.242,59,FALSE,TRUE,14,2,58,2,1,,,,,,,
,,,,,,0,1.977486023,#f3af84,,left_orange.png,q,,,,,,w,left_blue.png,left_orange.png,q,left,60fda003f3acba0353b4c015,001,2021-07-25_16h32.29.845,arrow_simon_norep,2021.1.2,MacIntel,62.5,,,,,,,,,,,,,,,,,,,,,q,1,1.417,60,FALSE,FALSE,14,3,59,2,1,,,,,,,
,,,,,,,,,,,,,,,,,,,,,,60fda003f3acba0353b4c015,001,2021-07-25_16h32.29.845,arrow_simon_norep,2021.1.2,MacIntel,62.5,,,,,,,,,,,,,,,,,,,,,,,,,,,,,,,,space,4.56,0,0,0,0,1
,,,,,,0,1.803919422,#a3d0fb,,right_blue.png,o,,,,,,o,right_blue.png,right_orange.png,p,right,60fda003f3acba0353b4c015,001,2021-07-25_16h32.29.845,arrow_simon_norep,2021.1.2,MacIntel,62.5,,,,,,,,,,,,,,,,,,,,,o,1,1.585,1,FALSE,FALSE,0,0,0,1,1,,,,,,,
,,,,,,0,2.248357978,#f3af84,,left_orange.png,q,,,,,,w,left_blue.png,left_orange.png,q,left,60fda003f3acba0353b4c015,001,2021-07-25_16h32.29.845,arrow_simon_norep,2021.1.2,MacIntel,62.5,,,,,,,,,,,,,,,,,,,,,q,1,1.535,2,FALSE,FALSE,0,1,1,2,1,,,,,,,
,,,,,,0,1.532371463,#a3d0fb,,left_blue.png,w,,,,,,w,left_blue.png,left_orange.png,q,right,60fda003f3acba0353b4c015,001,2021-07-25_16h32.29.845,arrow_simon_norep,2021.1.2,MacIntel,62.5,,,,,,,,,,,,,,,,,,,,,w,1,0.968,3,FALSE,TRUE,0,2,2,3,1,,,,,,,
,,,,,,0,1.879373565,#f3af84,,left_orange.png,q,,,,,,w,left_blue.png,left_orange.png,q,left,60fda003f3acba0353b4c015,001,2021-07-25_16h32.29.845,arrow_simon_norep,2021.1.2,MacIntel,62.5,,,,,,,,,,,,,,,,,,,,,q,1,1.219,4,FALSE,TRUE,0,3,3,2,1,,,,,,,
,,,,,,0,2.191596658,#a3d0fb,,right_blue.png,o,,,,,,o,right_blue.png,right_orange.png,p,left,60fda003f3acba0353b4c015,001,2021-07-25_16h32.29.845,arrow_simon_norep,2021.1.2,MacIntel,62.5,,,,,,,,,,,,,,,,,,,,,o,1,1.615,5,TRUE,FALSE,1,0,4,0,1,,,,,,,
,,,,,,0,2.397937573,#f3af84,,right_orange.png,p,,,,,,o,right_blue.png,right_orange.png,p,left,60fda003f3acba0353b4c015,001,2021-07-25_16h32.29.845,arrow_simon_norep,2021.1.2,MacIntel,62.5,,,,,,,,,,,,,,,,,,,,,q,0,1.71,6,TRUE,FALSE,1,1,5,0,1,,,,,,,
,,,,,,0,1.849827829,#a3d0fb,,left_blue.png,w,,,,,,w,left_blue.png,left_orange.png,q,left,60fda003f3acba0353b4c015,001,2021-07-25_16h32.29.845,arrow_simon_norep,2021.1.2,MacIntel,62.5,,,,,,,,,,,,,,,,,,,,,w,1,1.241,7,FALSE,TRUE,1,2,6,2,1,,,,,,,
,,,,,,0,2.425021826,#f3af84,,left_orange.png,q,,,,,,w,left_blue.png,left_orange.png,q,right,60fda003f3acba0353b4c015,001,2021-07-25_16h32.29.845,arrow_simon_norep,2021.1.2,MacIntel,62.5,,,,,,,,,,,,,,,,,,,,,q,1,1.854,8,TRUE,FALSE,1,3,7,3,1,,,,,,,
,,,,,,0,1.64996274,#a3d0fb,,right_blue.png,o,,,,,,o,right_blue.png,right_orange.png,p,right,60fda003f3acba0353b4c015,001,2021-07-25_16h32.29.845,arrow_simon_norep,2021.1.2,MacIntel,62.5,,,,,,,,,,,,,,,,,,,,,o,1,1.04,9,FALSE,TRUE,2,0,8,1,1,,,,,,,
,,,,,,0,2.184560218,#f3af84,,right_orange.png,p,,,,,,o,right_blue.png,right_orange.png,p,right,60fda003f3acba0353b4c015,001,2021-07-25_16h32.29.845,arrow_simon_norep,2021.1.2,MacIntel,62.5,,,,,,,,,,,,,,,,,,,,,p,1,1.574,10,FALSE,FALSE,2,1,9,1,1,,,,,,,
,,,,,,0,1.681216879,#a3d0fb,,left_blue.png,w,,,,,,w,left_blue.png,left_orange.png,q,left,60fda003f3acba0353b4c015,001,2021-07-25_16h32.29.845,arrow_simon_norep,2021.1.2,MacIntel,62.5,,,,,,,,,,,,,,,,,,,,,w,1,0.992,11,FALSE,TRUE,2,2,10,2,1,,,,,,,
,,,,,,0,2.176197409,#f3af84,,left_orange.png,q,,,,,,w,left_blue.png,left_orange.png,q,left,60fda003f3acba0353b4c015,001,2021-07-25_16h32.29.845,arrow_simon_norep,2021.1.2,MacIntel,62.5,,,,,,,,,,,,,,,,,,,,,q,1,1.543,12,FALSE,FALSE,2,3,11,2,1,,,,,,,
,,,,,,0,1.977374553,#a3d0fb,,right_blue.png,o,,,,,,o,right_blue.png,right_orange.png,p,right,60fda003f3acba0353b4c015,001,2021-07-25_16h32.29.845,arrow_simon_norep,2021.1.2,MacIntel,62.5,,,,,,,,,,,,,,,,,,,,,o,1,1.274,13,FALSE,TRUE,3,0,12,1,1,,,,,,,
,,,,,,0,2.116826327,#f3af84,,left_orange.png,q,,,,,,w,left_blue.png,left_orange.png,q,left,60fda003f3acba0353b4c015,001,2021-07-25_16h32.29.845,arrow_simon_norep,2021.1.2,MacIntel,62.5,,,,,,,,,,,,,,,,,,,,,q,1,1.363,14,FALSE,TRUE,3,1,13,2,1,,,,,,,
,,,,,,0,2.470738461,#a3d0fb,,right_blue.png,o,,,,,,o,right_blue.png,right_orange.png,p,left,60fda003f3acba0353b4c015,001,2021-07-25_16h32.29.845,arrow_simon_norep,2021.1.2,MacIntel,62.5,,,,,,,,,,,,,,,,,,,,,p,0,1.778,15,TRUE,FALSE,3,2,14,0,1,,,,,,,
,,,,,,0,2.453920688,#f3af84,,left_orange.png,q,,,,,,w,left_blue.png,left_orange.png,q,right,60fda003f3acba0353b4c015,001,2021-07-25_16h32.29.845,arrow_simon_norep,2021.1.2,MacIntel,62.5,,,,,,,,,,,,,,,,,,,,,q,1,1.826,16,TRUE,FALSE,3,3,15,3,1,,,,,,,
,,,,,,0,1.658184751,#a3d0fb,,right_blue.png,o,,,,,,o,right_blue.png,right_orange.png,p,left,60fda003f3acba0353b4c015,001,2021-07-25_16h32.29.845,arrow_simon_norep,2021.1.2,MacIntel,62.5,,,,,,,,,,,,,,,,,,,,,o,1,1.07,17,FALSE,TRUE,4,0,16,0,1,,,,,,,
,,,,,,0,1.751986416,#f3af84,,right_orange.png,p,,,,,,o,right_blue.png,right_orange.png,p,right,60fda003f3acba0353b4c015,001,2021-07-25_16h32.29.845,arrow_simon_norep,2021.1.2,MacIntel,62.5,,,,,,,,,,,,,,,,,,,,,p,1,1.204,18,FALSE,TRUE,4,1,17,1,1,,,,,,,
,,,,,,0,1.655376303,#a3d0fb,,left_blue.png,w,,,,,,w,left_blue.png,left_orange.png,q,right,60fda003f3acba0353b4c015,001,2021-07-25_16h32.29.845,arrow_simon_norep,2021.1.2,MacIntel,62.5,,,,,,,,,,,,,,,,,,,,,w,1,1.052,19,FALSE,TRUE,4,2,18,3,1,,,,,,,
,,,,,,0,1.724072503,#f3af84,,left_orange.png,q,,,,,,w,left_blue.png,left_orange.png,q,left,60fda003f3acba0353b4c015,001,2021-07-25_16h32.29.845,arrow_simon_norep,2021.1.2,MacIntel,62.5,,,,,,,,,,,,,,,,,,,,,w,0,1.202,20,FALSE,TRUE,4,3,19,2,1,,,,,,,
,,,,,,0,2.390996724,#a3d0fb,,left_blue.png,w,,,,,,w,left_blue.png,left_orange.png,q,right,60fda003f3acba0353b4c015,001,2021-07-25_16h32.29.845,arrow_simon_norep,2021.1.2,MacIntel,62.5,,,,,,,,,,,,,,,,,,,,,o,0,1.699,21,TRUE,FALSE,5,0,20,3,1,,,,,,,
,,,,,,0,2.489131412,#f3af84,,left_orange.png,q,,,,,,w,left_blue.png,left_orange.png,q,right,60fda003f3acba0353b4c015,001,2021-07-25_16h32.29.845,arrow_simon_norep,2021.1.2,MacIntel,62.5,,,,,,,,,,,,,,,,,,,,,q,1,1.843,22,TRUE,FALSE,5,1,21,3,1,,,,,,,
,,,,,,0,1.575983423,#a3d0fb,,right_blue.png,o,,,,,,o,right_blue.png,right_orange.png,p,right,60fda003f3acba0353b4c015,001,2021-07-25_16h32.29.845,arrow_simon_norep,2021.1.2,MacIntel,62.5,,,,,,,,,,,,,,,,,,,,,o,1,0.956,23,FALSE,TRUE,5,2,22,1,1,,,,,,,
,,,,,,0,2.405028021,#f3af84,,left_orange.png,q,,,,,,w,left_blue.png,left_orange.png,q,left,60fda003f3acba0353b4c015,001,2021-07-25_16h32.29.845,arrow_simon_norep,2021.1.2,MacIntel,62.5,,,,,,,,,,,,,,,,,,,,,q,1,1.679,24,TRUE,FALSE,5,3,23,2,1,,,,,,,
,,,,,,0,2.408139728,#a3d0fb,,right_blue.png,o,,,,,,o,right_blue.png,right_orange.png,p,right,60fda003f3acba0353b4c015,001,2021-07-25_16h32.29.845,arrow_simon_norep,2021.1.2,MacIntel,62.5,,,,,,,,,,,,,,,,,,,,,o,1,1.704,25,TRUE,FALSE,6,0,24,1,1,,,,,,,
,,,,,,0,2.066637565,#f3af84,,right_orange.png,p,,,,,,o,right_blue.png,right_orange.png,p,right,60fda003f3acba0353b4c015,001,2021-07-25_16h32.29.845,arrow_simon_norep,2021.1.2,MacIntel,62.5,,,,,,,,,,,,,,,,,,,,,p,1,1.441,26,FALSE,FALSE,6,1,25,1,1,,,,,,,
,,,,,,0,2.309953107,#a3d0fb,,left_blue.png,w,,,,,,w,left_blue.png,left_orange.png,q,left,60fda003f3acba0353b4c015,001,2021-07-25_16h32.29.845,arrow_simon_norep,2021.1.2,MacIntel,62.5,,,,,,,,,,,,,,,,,,,,,w,1,1.622,27,TRUE,FALSE,6,2,26,2,1,,,,,,,
,,,,,,0,1.896234902,#f3af84,,right_orange.png,p,,,,,,o,right_blue.png,right_orange.png,p,left,60fda003f3acba0353b4c015,001,2021-07-25_16h32.29.845,arrow_simon_norep,2021.1.2,MacIntel,62.5,,,,,,,,,,,,,,,,,,,,,q,0,1.216,28,FALSE,TRUE,6,3,27,0,1,,,,,,,
,,,,,,0,2.497382431,#a3d0fb,,left_blue.png,w,,,,,,w,left_blue.png,left_orange.png,q,left,60fda003f3acba0353b4c015,001,2021-07-25_16h32.29.845,arrow_simon_norep,2021.1.2,MacIntel,62.5,,,,,,,,,,,,,,,,,,,,,w,1,1.814,29,TRUE,FALSE,7,0,28,2,1,,,,,,,
,,,,,,0,1.901002252,#f3af84,,left_orange.png,q,,,,,,w,left_blue.png,left_orange.png,q,left,60fda003f3acba0353b4c015,001,2021-07-25_16h32.29.845,arrow_simon_norep,2021.1.2,MacIntel,62.5,,,,,,,,,,,,,,,,,,,,,q,1,1.227,30,FALSE,TRUE,7,1,29,2,1,,,,,,,
,,,,,,0,2.066491287,#a3d0fb,,right_blue.png,o,,,,,,o,right_blue.png,right_orange.png,p,right,60fda003f3acba0353b4c015,001,2021-07-25_16h32.29.845,arrow_simon_norep,2021.1.2,MacIntel,62.5,,,,,,,,,,,,,,,,,,,,,o,1,1.424,31,FALSE,FALSE,7,2,30,1,1,,,,,,,
,,,,,,0,1.796359322,#f3af84,,left_orange.png,q,,,,,,w,left_blue.png,left_orange.png,q,right,60fda003f3acba0353b4c015,001,2021-07-25_16h32.29.845,arrow_simon_norep,2021.1.2,MacIntel,62.5,,,,,,,,,,,,,,,,,,,,,q,1,1.121,32,FALSE,TRUE,7,3,31,3,1,,,,,,,
,,,,,,0,2.169129883,#a3d0fb,,left_blue.png,w,,,,,,w,left_blue.png,left_orange.png,q,right,60fda003f3acba0353b4c015,001,2021-07-25_16h32.29.845,arrow_simon_norep,2021.1.2,MacIntel,62.5,,,,,,,,,,,,,,,,,,,,,w,1,1.449,33,FALSE,FALSE,8,0,32,3,1,,,,,,,
,,,,,,0,1.608698715,#f3af84,,left_orange.png,q,,,,,,w,left_blue.png,left_orange.png,q,left,60fda003f3acba0353b4c015,001,2021-07-25_16h32.29.845,arrow_simon_norep,2021.1.2,MacIntel,62.5,,,,,,,,,,,,,,,,,,,,,q,1,1.011,34,FALSE,TRUE,8,1,33,2,1,,,,,,,
,,,,,,0,2.072090112,#a3d0fb,,left_blue.png,w,,,,,,w,left_blue.png,left_orange.png,q,left,60fda003f3acba0353b4c015,001,2021-07-25_16h32.29.845,arrow_simon_norep,2021.1.2,MacIntel,62.5,,,,,,,,,,,,,,,,,,,,,w,1,1.401,35,FALSE,FALSE,8,2,34,2,1,,,,,,,
,,,,,,0,1.796241259,#f3af84,,left_orange.png,q,,,,,,w,left_blue.png,left_orange.png,q,right,60fda003f3acba0353b4c015,001,2021-07-25_16h32.29.845,arrow_simon_norep,2021.1.2,MacIntel,62.5,,,,,,,,,,,,,,,,,,,,,p,0,1.069,36,FALSE,TRUE,8,3,35,3,1,,,,,,,
,,,,,,0,2.256275441,#a3d0fb,,right_blue.png,o,,,,,,o,right_blue.png,right_orange.png,p,right,60fda003f3acba0353b4c015,001,2021-07-25_16h32.29.845,arrow_simon_norep,2021.1.2,MacIntel,62.5,,,,,,,,,,,,,,,,,,,,,o,1,1.626,37,TRUE,FALSE,9,0,36,1,1,,,,,,,
,,,,,,0,2.040031322,#f3af84,,right_orange.png,p,,,,,,o,right_blue.png,right_orange.png,p,left,60fda003f3acba0353b4c015,001,2021-07-25_16h32.29.845,arrow_simon_norep,2021.1.2,MacIntel,62.5,,,,,,,,,,,,,,,,,,,,,q,0,1.315,38,FALSE,TRUE,9,1,37,0,1,,,,,,,
,,,,,,0,1.748507099,#a3d0fb,,right_blue.png,o,,,,,,o,right_blue.png,right_orange.png,p,left,60fda003f3acba0353b4c015,001,2021-07-25_16h32.29.845,arrow_simon_norep,2021.1.2,MacIntel,62.5,,,,,,,,,,,,,,,,,,,,,o,1,1.124,39,FALSE,TRUE,9,2,38,0,1,,,,,,,
,,,,,,0,2.120265616,#f3af84,,left_orange.png,q,,,,,,w,left_blue.png,left_orange.png,q,right,60fda003f3acba0353b4c015,001,2021-07-25_16h32.29.845,arrow_simon_norep,2021.1.2,MacIntel,62.5,,,,,,,,,,,,,,,,,,,,,q,1,1.512,40,FALSE,FALSE,9,3,39,3,1,,,,,,,
,,,,,,0,1.911932229,#a3d0fb,,left_blue.png,w,,,,,,w,left_blue.png,left_orange.png,q,right,60fda003f3acba0353b4c015,001,2021-07-25_16h32.29.845,arrow_simon_norep,2021.1.2,MacIntel,62.5,,,,,,,,,,,,,,,,,,,,,w,1,1.275,41,FALSE,TRUE,10,0,40,3,1,,,,,,,
,,,,,,0,1.799613662,#f3af84,,right_orange.png,p,,,,,,o,right_blue.png,right_orange.png,p,right,60fda003f3acba0353b4c015,001,2021-07-25_16h32.29.845,arrow_simon_norep,2021.1.2,MacIntel,62.5,,,,,,,,,,,,,,,,,,,,,p,1,1.199,42,FALSE,TRUE,10,1,41,1,1,,,,,,,
,,,,,,0,2.322262459,#a3d0fb,,right_blue.png,o,,,,,,o,right_blue.png,right_orange.png,p,right,60fda003f3acba0353b4c015,001,2021-07-25_16h32.29.845,arrow_simon_norep,2021.1.2,MacIntel,62.5,,,,,,,,,,,,,,,,,,,,,o,1,1.646,43,TRUE,FALSE,10,2,42,1,1,,,,,,,
,,,,,,0,2.055953247,#f3af84,,right_orange.png,p,,,,,,o,right_blue.png,right_orange.png,p,right,60fda003f3acba0353b4c015,001,2021-07-25_16h32.29.845,arrow_simon_norep,2021.1.2,MacIntel,62.5,,,,,,,,,,,,,,,,,,,,,p,1,1.455,44,FALSE,FALSE,10,3,43,1,1,,,,,,,
,,,,,,0,1.766876765,#a3d0fb,,right_blue.png,o,,,,,,o,right_blue.png,right_orange.png,p,left,60fda003f3acba0353b4c015,001,2021-07-25_16h32.29.845,arrow_simon_norep,2021.1.2,MacIntel,62.5,,,,,,,,,,,,,,,,,,,,,o,1,1.165,45,FALSE,TRUE,11,0,44,0,1,,,,,,,
,,,,,,0,2.325176924,#f3af84,,right_orange.png,p,,,,,,o,right_blue.png,right_orange.png,p,right,60fda003f3acba0353b4c015,001,2021-07-25_16h32.29.845,arrow_simon_norep,2021.1.2,MacIntel,62.5,,,,,,,,,,,,,,,,,,,,,o,0,1.741,46,TRUE,FALSE,11,1,45,1,1,,,,,,,
,,,,,,0,2.10794159,#a3d0fb,,right_blue.png,o,,,,,,o,right_blue.png,right_orange.png,p,left,60fda003f3acba0353b4c015,001,2021-07-25_16h32.29.845,arrow_simon_norep,2021.1.2,MacIntel,62.5,,,,,,,,,,,,,,,,,,,,,o,1,1.526,47,FALSE,FALSE,11,2,46,0,1,,,,,,,
,,,,,,0,1.689758285,#f3af84,,right_orange.png,p,,,,,,o,right_blue.png,right_orange.png,p,left,60fda003f3acba0353b4c015,001,2021-07-25_16h32.29.845,arrow_simon_norep,2021.1.2,MacIntel,62.5,,,,,,,,,,,,,,,,,,,,,p,1,1.076,48,FALSE,TRUE,11,3,47,0,1,,,,,,,
,,,,,,0,1.814084147,#a3d0fb,,left_blue.png,w,,,,,,w,left_blue.png,left_orange.png,q,right,60fda003f3acba0353b4c015,001,2021-07-25_16h32.29.845,arrow_simon_norep,2021.1.2,MacIntel,62.5,,,,,,,,,,,,,,,,,,,,,o,0,1.155,49,FALSE,TRUE,12,0,48,3,1,,,,,,,
,,,,,,0,1.940616192,#f3af84,,right_orange.png,p,,,,,,o,right_blue.png,right_orange.png,p,left,60fda003f3acba0353b4c015,001,2021-07-25_16h32.29.845,arrow_simon_norep,2021.1.2,MacIntel,62.5,,,,,,,,,,,,,,,,,,,,,p,1,1.318,50,FALSE,TRUE,12,1,49,0,1,,,,,,,
,,,,,,0,1.984613828,#a3d0fb,,right_blue.png,o,,,,,,o,right_blue.png,right_orange.png,p,left,60fda003f3acba0353b4c015,001,2021-07-25_16h32.29.845,arrow_simon_norep,2021.1.2,MacIntel,62.5,,,,,,,,,,,,,,,,,,,,,o,1,1.415,51,FALSE,FALSE,12,2,50,0,1,,,,,,,
,,,,,,0,1.931477865,#f3af84,,left_orange.png,q,,,,,,w,left_blue.png,left_orange.png,q,left,60fda003f3acba0353b4c015,001,2021-07-25_16h32.29.845,arrow_simon_norep,2021.1.2,MacIntel,62.5,,,,,,,,,,,,,,,,,,,,,q,1,1.418,52,FALSE,FALSE,12,3,51,2,1,,,,,,,
,,,,,,0,1.515855491,#a3d0fb,,left_blue.png,w,,,,,,w,left_blue.png,left_orange.png,q,right,60fda003f3acba0353b4c015,001,2021-07-25_16h32.29.845,arrow_simon_norep,2021.1.2,MacIntel,62.5,,,,,,,,,,,,,,,,,,,,,w,1,0.979,53,FALSE,TRUE,13,0,52,3,1,,,,,,,
,,,,,,0,1.524770624,#f3af84,,right_orange.png,p,,,,,,o,right_blue.png,right_orange.png,p,left,60fda003f3acba0353b4c015,001,2021-07-25_16h32.29.845,arrow_simon_norep,2021.1.2,MacIntel,62.5,,,,,,,,,,,,,,,,,,,,,p,1,0.902,54,FALSE,TRUE,13,1,53,0,1,,,,,,,
,,,,,,0,2.193327427,#a3d0fb,,right_blue.png,o,,,,,,o,right_blue.png,right_orange.png,p,left,60fda003f3acba0353b4c015,001,2021-07-25_16h32.29.845,arrow_simon_norep,2021.1.2,MacIntel,62.5,,,,,,,,,,,,,,,,,,,,,o,1,1.766,55,TRUE,FALSE,13,2,54,0,1,,,,,,,
,,,,,,0,1.997303288,#f3af84,,right_orange.png,p,,,,,,o,right_blue.png,right_orange.png,p,right,60fda003f3acba0353b4c015,001,2021-07-25_16h32.29.845,arrow_simon_norep,2021.1.2,MacIntel,62.5,,,,,,,,,,,,,,,,,,,,,p,1,1.354,56,FALSE,TRUE,13,3,55,1,1,,,,,,,
,,,,,,0,2.410249598,#a3d0fb,,left_blue.png,w,,,,,,w,left_blue.png,left_orange.png,q,right,60fda003f3acba0353b4c015,001,2021-07-25_16h32.29.845,arrow_simon_norep,2021.1.2,MacIntel,62.5,,,,,,,,,,,,,,,,,,,,,w,1,1.893,57,TRUE,FALSE,14,0,56,3,1,,,,,,,
,,,,,,0,1.718256755,#f3af84,,left_orange.png,q,,,,,,w,left_blue.png,left_orange.png,q,left,60fda003f3acba0353b4c015,001,2021-07-25_16h32.29.845,arrow_simon_norep,2021.1.2,MacIntel,62.5,,,,,,,,,,,,,,,,,,,,,q,1,2.736,58,TRUE,FALSE,14,1,57,2,1,,,,,,,
,,,,,,0,1.579670276,#a3d0fb,,left_blue.png,w,,,,,,w,left_blue.png,left_orange.png,q,right,60fda003f3acba0353b4c015,001,2021-07-25_16h32.29.845,arrow_simon_norep,2021.1.2,MacIntel,62.5,,,,,,,,,,,,,,,,,,,,,q,0,1.346,59,FALSE,TRUE,14,2,58,3,1,,,,,,,
,,,,,,0,1.855011065,#f3af84,,right_orange.png,p,,,,,,o,right_blue.png,right_orange.png,p,left,60fda003f3acba0353b4c015,001,2021-07-25_16h32.29.845,arrow_simon_norep,2021.1.2,MacIntel,62.5,,,,,,,,,,,,,,,,,,,,,p,1,1.253,60,FALSE,TRUE,14,3,59,0,1,,,,,,,
,,,,,,,,,,,,,,,,,,,,,,60fda003f3acba0353b4c015,001,2021-07-25_16h32.29.845,arrow_simon_norep,2021.1.2,MacIntel,62.5,,,,,,,,,,,,,,,,,,,,,,,,,,,,,,,,space,70.713,1,0,1,0,1
,,,,,,0,2.448210618,#a3d0fb,,right_blue.png,o,,,,,,o,right_blue.png,right_orange.png,p,right,60fda003f3acba0353b4c015,001,2021-07-25_16h32.29.845,arrow_simon_norep,2021.1.2,MacIntel,62.5,,,,,,,,,,,,,,,,,,,,,o,1,1.769,1,TRUE,FALSE,0,0,0,1,1,,,,,,,
,,,,,,0,2.46478762,#f3af84,,right_orange.png,p,,,,,,o,right_blue.png,right_orange.png,p,left,60fda003f3acba0353b4c015,001,2021-07-25_16h32.29.845,arrow_simon_norep,2021.1.2,MacIntel,62.5,,,,,,,,,,,,,,,,,,,,,q,0,1.669,2,TRUE,FALSE,0,1,1,0,1,,,,,,,
,,,,,,0,1.524427161,#a3d0fb,,right_blue.png,o,,,,,,o,right_blue.png,right_orange.png,p,right,60fda003f3acba0353b4c015,001,2021-07-25_16h32.29.845,arrow_simon_norep,2021.1.2,MacIntel,62.5,,,,,,,,,,,,,,,,,,,,,o,1,0.894,3,FALSE,TRUE,0,2,2,1,1,,,,,,,
,,,,,,0,2.213398014,#f3af84,,left_orange.png,q,,,,,,w,left_blue.png,left_orange.png,q,left,60fda003f3acba0353b4c015,001,2021-07-25_16h32.29.845,arrow_simon_norep,2021.1.2,MacIntel,62.5,,,,,,,,,,,,,,,,,,,,,q,1,1.477,4,FALSE,FALSE,0,3,3,2,1,,,,,,,
,,,,,,0,1.702674486,#a3d0fb,,left_blue.png,w,,,,,,w,left_blue.png,left_orange.png,q,left,60fda003f3acba0353b4c015,001,2021-07-25_16h32.29.845,arrow_simon_norep,2021.1.2,MacIntel,62.5,,,,,,,,,,,,,,,,,,,,,w,1,1.058,5,FALSE,TRUE,1,0,4,2,1,,,,,,,
,,,,,,0,1.663140305,#f3af84,,right_orange.png,p,,,,,,o,right_blue.png,right_orange.png,p,left,60fda003f3acba0353b4c015,001,2021-07-25_16h32.29.845,arrow_simon_norep,2021.1.2,MacIntel,62.5,,,,,,,,,,,,,,,,,,,,,p,1,1.049,6,FALSE,TRUE,1,1,5,0,1,,,,,,,
,,,,,,0,1.733819618,#a3d0fb,,left_blue.png,w,,,,,,w,left_blue.png,left_orange.png,q,right,60fda003f3acba0353b4c015,001,2021-07-25_16h32.29.845,arrow_simon_norep,2021.1.2,MacIntel,62.5,,,,,,,,,,,,,,,,,,,,,w,1,1.102,7,FALSE,TRUE,1,2,6,3,1,,,,,,,
,,,,,,0,2.022575586,#f3af84,,left_orange.png,q,,,,,,w,left_blue.png,left_orange.png,q,right,60fda003f3acba0353b4c015,001,2021-07-25_16h32.29.845,arrow_simon_norep,2021.1.2,MacIntel,62.5,,,,,,,,,,,,,,,,,,,,,p,0,1.272,8,FALSE,TRUE,1,3,7,3,1,,,,,,,
,,,,,,0,1.831532005,#a3d0fb,,right_blue.png,o,,,,,,o,right_blue.png,right_orange.png,p,left,60fda003f3acba0353b4c015,001,2021-07-25_16h32.29.845,arrow_simon_norep,2021.1.2,MacIntel,62.5,,,,,,,,,,,,,,,,,,,,,o,1,1.186,9,FALSE,TRUE,2,0,8,0,1,,,,,,,
,,,,,,0,2.305333582,#f3af84,,right_orange.png,p,,,,,,o,right_blue.png,right_orange.png,p,left,60fda003f3acba0353b4c015,001,2021-07-25_16h32.29.845,arrow_simon_norep,2021.1.2,MacIntel,62.5,,,,,,,,,,,,,,,,,,,,,o,0,1.821,10,TRUE,FALSE,2,1,9,0,1,,,,,,,
,,,,,,0,2.157906386,#a3d0fb,,right_blue.png,o,,,,,,o,right_blue.png,right_orange.png,p,right,60fda003f3acba0353b4c015,001,2021-07-25_16h32.29.845,arrow_simon_norep,2021.1.2,MacIntel,62.5,,,,,,,,,,,,,,,,,,,,,o,1,1.534,11,FALSE,FALSE,2,2,10,1,1,,,,,,,
,,,,,,0,2.032794905,#f3af84,,left_orange.png,q,,,,,,w,left_blue.png,left_orange.png,q,right,60fda003f3acba0353b4c015,001,2021-07-25_16h32.29.845,arrow_simon_norep,2021.1.2,MacIntel,62.5,,,,,,,,,,,,,,,,,,,,,q,1,1.417,12,FALSE,FALSE,2,3,11,3,1,,,,,,,
,,,,,,0,1.643223558,#a3d0fb,,left_blue.png,w,,,,,,w,left_blue.png,left_orange.png,q,left,60fda003f3acba0353b4c015,001,2021-07-25_16h32.29.845,arrow_simon_norep,2021.1.2,MacIntel,62.5,,,,,,,,,,,,,,,,,,,,,w,1,1.061,13,FALSE,TRUE,3,0,12,2,1,,,,,,,
,,,,,,0,1.770994711,#f3af84,,right_orange.png,p,,,,,,o,right_blue.png,right_orange.png,p,left,60fda003f3acba0353b4c015,001,2021-07-25_16h32.29.845,arrow_simon_norep,2021.1.2,MacIntel,62.5,,,,,,,,,,,,,,,,,,,,,p,1,1.146,14,FALSE,TRUE,3,1,13,0,1,,,,,,,
,,,,,,0,2.270981769,#a3d0fb,,left_blue.png,w,,,,,,w,left_blue.png,left_orange.png,q,right,60fda003f3acba0353b4c015,001,2021-07-25_16h32.29.845,arrow_simon_norep,2021.1.2,MacIntel,62.5,,,,,,,,,,,,,,,,,,,,,w,1,1.647,15,TRUE,FALSE,3,2,14,3,1,,,,,,,
,,,,,,0,2.197603941,#f3af84,,left_orange.png,q,,,,,,w,left_blue.png,left_orange.png,q,right,60fda003f3acba0353b4c015,001,2021-07-25_16h32.29.845,arrow_simon_norep,2021.1.2,MacIntel,62.5,,,,,,,,,,,,,,,,,,,,,q,1,1.578,16,FALSE,FALSE,3,3,15,3,1,,,,,,,
,,,,,,0,2.026388295,#a3d0fb,,left_blue.png,w,,,,,,w,left_blue.png,left_orange.png,q,right,60fda003f3acba0353b4c015,001,2021-07-25_16h32.29.845,arrow_simon_norep,2021.1.2,MacIntel,62.5,,,,,,,,,,,,,,,,,,,,,w,1,1.435,17,FALSE,FALSE,4,0,16,3,1,,,,,,,
,,,,,,0,2.230176921,#f3af84,,left_orange.png,q,,,,,,w,left_blue.png,left_orange.png,q,left,60fda003f3acba0353b4c015,001,2021-07-25_16h32.29.845,arrow_simon_norep,2021.1.2,MacIntel,62.5,,,,,,,,,,,,,,,,,,,,,q,1,1.577,18,FALSE,FALSE,4,1,17,2,1,,,,,,,
,,,,,,0,2.214792425,#a3d0fb,,right_blue.png,o,,,,,,o,right_blue.png,right_orange.png,p,right,60fda003f3acba0353b4c015,001,2021-07-25_16h32.29.845,arrow_simon_norep,2021.1.2,MacIntel,62.5,,,,,,,,,,,,,,,,,,,,,o,1,1.495,19,FALSE,FALSE,4,2,18,1,1,,,,,,,
,,,,,,0,2.071366672,#f3af84,,left_orange.png,q,,,,,,w,left_blue.png,left_orange.png,q,left,60fda003f3acba0353b4c015,001,2021-07-25_16h32.29.845,arrow_simon_norep,2021.1.2,MacIntel,62.5,,,,,,,,,,,,,,,,,,,,,p,0,1.648,20,TRUE,FALSE,4,3,19,2,1,,,,,,,
,,,,,,0,2.280934865,#a3d0fb,,right_blue.png,o,,,,,,o,right_blue.png,right_orange.png,p,right,60fda003f3acba0353b4c015,001,2021-07-25_16h32.29.845,arrow_simon_norep,2021.1.2,MacIntel,62.5,,,,,,,,,,,,,,,,,,,,,o,1,1.557,21,FALSE,FALSE,5,0,20,1,1,,,,,,,
,,,,,,0,1.828638042,#f3af84,,right_orange.png,p,,,,,,o,right_blue.png,right_orange.png,p,left,60fda003f3acba0353b4c015,001,2021-07-25_16h32.29.845,arrow_simon_norep,2021.1.2,MacIntel,62.5,,,,,,,,,,,,,,,,,,,,,q,0,1.141,22,FALSE,TRUE,5,1,21,0,1,,,,,,,
,,,,,,0,1.673283178,#a3d0fb,,right_blue.png,o,,,,,,o,right_blue.png,right_orange.png,p,left,60fda003f3acba0353b4c015,001,2021-07-25_16h32.29.845,arrow_simon_norep,2021.1.2,MacIntel,62.5,,,,,,,,,,,,,,,,,,,,,o,1,1.06,23,FALSE,TRUE,5,2,22,0,1,,,,,,,
,,,,,,0,2.435596133,#f3af84,,right_orange.png,p,,,,,,o,right_blue.png,right_orange.png,p,right,60fda003f3acba0353b4c015,001,2021-07-25_16h32.29.845,arrow_simon_norep,2021.1.2,MacIntel,62.5,,,,,,,,,,,,,,,,,,,,,p,1,1.835,24,TRUE,FALSE,5,3,23,1,1,,,,,,,
,,,,,,0,1.941895598,#a3d0fb,,right_blue.png,o,,,,,,o,right_blue.png,right_orange.png,p,left,60fda003f3acba0353b4c015,001,2021-07-25_16h32.29.845,arrow_simon_norep,2021.1.2,MacIntel,62.5,,,,,,,,,,,,,,,,,,,,,o,1,1.332,25,FALSE,TRUE,6,0,24,0,1,,,,,,,
,,,,,,0,2.073579762,#f3af84,,right_orange.png,p,,,,,,o,right_blue.png,right_orange.png,p,right,60fda003f3acba0353b4c015,001,2021-07-25_16h32.29.845,arrow_simon_norep,2021.1.2,MacIntel,62.5,,,,,,,,,,,,,,,,,,,,,p,1,1.452,26,FALSE,FALSE,6,1,25,1,1,,,,,,,
,,,,,,0,2.334046769,#a3d0fb,,right_blue.png,o,,,,,,o,right_blue.png,right_orange.png,p,right,60fda003f3acba0353b4c015,001,2021-07-25_16h32.29.845,arrow_simon_norep,2021.1.2,MacIntel,62.5,,,,,,,,,,,,,,,,,,,,,o,1,1.774,27,TRUE,FALSE,6,2,26,1,1,,,,,,,
,,,,,,0,1.909353887,#f3af84,,right_orange.png,p,,,,,,o,right_blue.png,right_orange.png,p,right,60fda003f3acba0353b4c015,001,2021-07-25_16h32.29.845,arrow_simon_norep,2021.1.2,MacIntel,62.5,,,,,,,,,,,,,,,,,,,,,p,1,1.292,28,FALSE,TRUE,6,3,27,1,1,,,,,,,
,,,,,,0,2.200064197,#a3d0fb,,right_blue.png,o,,,,,,o,right_blue.png,right_orange.png,p,right,60fda003f3acba0353b4c015,001,2021-07-25_16h32.29.845,arrow_simon_norep,2021.1.2,MacIntel,62.5,,,,,,,,,,,,,,,,,,,,,o,1,1.543,29,FALSE,FALSE,7,0,28,1,1,,,,,,,
,,,,,,0,2.057073589,#f3af84,,left_orange.png,q,,,,,,w,left_blue.png,left_orange.png,q,right,60fda003f3acba0353b4c015,001,2021-07-25_16h32.29.845,arrow_simon_norep,2021.1.2,MacIntel,62.5,,,,,,,,,,,,,,,,,,,,,q,1,1.462,30,FALSE,FALSE,7,1,29,3,1,,,,,,,
,,,,,,1,1.944649196,#a3d0fb,,left_blue.png,w,,,,,,w,left_blue.png,left_orange.png,q,left,60fda003f3acba0353b4c015,001,2021-07-25_16h32.29.845,arrow_simon_norep,2021.1.2,MacIntel,62.5,,,,,,,,,,,,,,,,,,,,,q,0,1.537,31,FALSE,FALSE,7,2,30,2,1,,,,,,,
,,,,,,1,1.573466284,#f3af84,,left_orange.png,q,,,,,,w,left_blue.png,left_orange.png,q,right,60fda003f3acba0353b4c015,001,2021-07-25_16h32.29.845,arrow_simon_norep,2021.1.2,MacIntel,62.5,,,,,,,,,,,,,,,,,,,,,q,1,1.175,32,FALSE,TRUE,7,3,31,3,1,,,,,,,
,,,,,,1,1.550633759,#a3d0fb,,left_blue.png,w,,,,,,w,left_blue.png,left_orange.png,q,right,60fda003f3acba0353b4c015,001,2021-07-25_16h32.29.845,arrow_simon_norep,2021.1.2,MacIntel,62.5,,,,,,,,,,,,,,,,,,,,,w,1,1.034,33,FALSE,TRUE,8,0,32,3,1,,,,,,,
,,,,,,1,1.52197036,#f3af84,,right_orange.png,p,,,,,,o,right_blue.png,right_orange.png,p,left,60fda003f3acba0353b4c015,001,2021-07-25_16h32.29.845,arrow_simon_norep,2021.1.2,MacIntel,62.5,,,,,,,,,,,,,,,,,,,,,p,1,0.95,34,FALSE,TRUE,8,1,33,0,1,,,,,,,
,,,,,,1,1.649021133,#a3d0fb,,right_blue.png,o,,,,,,o,right_blue.png,right_orange.png,p,left,60fda003f3acba0353b4c015,001,2021-07-25_16h32.29.845,arrow_simon_norep,2021.1.2,MacIntel,62.5,,,,,,,,,,,,,,,,,,,,,o,1,1.052,35,FALSE,TRUE,8,2,34,0,1,,,,,,,
,,,,,,1,1.505453346,#f3af84,,left_orange.png,q,,,,,,w,left_blue.png,left_orange.png,q,left,60fda003f3acba0353b4c015,001,2021-07-25_16h32.29.845,arrow_simon_norep,2021.1.2,MacIntel,62.5,,,,,,,,,,,,,,,,,,,,,q,1,1.033,36,FALSE,TRUE,8,3,35,2,1,,,,,,,
,,,,,,1,1.813407471,#a3d0fb,,left_blue.png,w,,,,,,w,left_blue.png,left_orange.png,q,right,60fda003f3acba0353b4c015,001,2021-07-25_16h32.29.845,arrow_simon_norep,2021.1.2,MacIntel,62.5,,,,,,,,,,,,,,,,,,,,,w,1,1.199,37,FALSE,TRUE,9,0,36,3,1,,,,,,,
,,,,,,0,2.223613901,#f3af84,,right_orange.png,p,,,,,,o,right_blue.png,right_orange.png,p,right,60fda003f3acba0353b4c015,001,2021-07-25_16h32.29.845,arrow_simon_norep,2021.1.2,MacIntel,62.5,,,,,,,,,,,,,,,,,,,,,p,1,1.568,38,FALSE,FALSE,9,1,37,1,1,,,,,,,
,,,,,,0,2.140339616,#a3d0fb,,left_blue.png,w,,,,,,w,left_blue.png,left_orange.png,q,right,60fda003f3acba0353b4c015,001,2021-07-25_16h32.29.845,arrow_simon_norep,2021.1.2,MacIntel,62.5,,,,,,,,,,,,,,,,,,,,,w,1,1.543,39,FALSE,FALSE,9,2,38,3,1,,,,,,,
,,,,,,0,2.414042322,#f3af84,,left_orange.png,q,,,,,,w,left_blue.png,left_orange.png,q,left,60fda003f3acba0353b4c015,001,2021-07-25_16h32.29.845,arrow_simon_norep,2021.1.2,MacIntel,62.5,,,,,,,,,,,,,,,,,,,,,q,1,1.891,40,TRUE,FALSE,9,3,39,2,1,,,,,,,
,,,,,,0,1.828406694,#a3d0fb,,left_blue.png,w,,,,,,w,left_blue.png,left_orange.png,q,right,60fda003f3acba0353b4c015,001,2021-07-25_16h32.29.845,arrow_simon_norep,2021.1.2,MacIntel,62.5,,,,,,,,,,,,,,,,,,,,,w,1,1.231,41,FALSE,TRUE,10,0,40,3,1,,,,,,,
,,,,,,0,1.518735667,#f3af84,,right_orange.png,p,,,,,,o,right_blue.png,right_orange.png,p,left,60fda003f3acba0353b4c015,001,2021-07-25_16h32.29.845,arrow_simon_norep,2021.1.2,MacIntel,62.5,,,,,,,,,,,,,,,,,,,,,p,1,1.037,42,FALSE,TRUE,10,1,41,0,1,,,,,,,
,,,,,,0,1.987335629,#a3d0fb,,right_blue.png,o,,,,,,o,right_blue.png,right_orange.png,p,right,60fda003f3acba0353b4c015,001,2021-07-25_16h32.29.845,arrow_simon_norep,2021.1.2,MacIntel,62.5,,,,,,,,,,,,,,,,,,,,,o,1,1.438,43,FALSE,FALSE,10,2,42,1,1,,,,,,,
,,,,,,0,1.719566923,#f3af84,,left_orange.png,q,,,,,,w,left_blue.png,left_orange.png,q,left,60fda003f3acba0353b4c015,001,2021-07-25_16h32.29.845,arrow_simon_norep,2021.1.2,MacIntel,62.5,,,,,,,,,,,,,,,,,,,,,q,1,1.053,44,FALSE,TRUE,10,3,43,2,1,,,,,,,
,,,,,,0,2.090631012,#a3d0fb,,right_blue.png,o,,,,,,o,right_blue.png,right_orange.png,p,left,60fda003f3acba0353b4c015,001,2021-07-25_16h32.29.845,arrow_simon_norep,2021.1.2,MacIntel,62.5,,,,,,,,,,,,,,,,,,,,,o,1,1.559,45,FALSE,FALSE,11,0,44,0,1,,,,,,,
,,,,,,0,2.210008467,#f3af84,,right_orange.png,p,,,,,,o,right_blue.png,right_orange.png,p,left,60fda003f3acba0353b4c015,001,2021-07-25_16h32.29.845,arrow_simon_norep,2021.1.2,MacIntel,62.5,,,,,,,,,,,,,,,,,,,,,p,1,1.637,46,TRUE,FALSE,11,1,45,0,1,,,,,,,
,,,,,,1,2.017961503,#a3d0fb,,right_blue.png,o,,,,,,o,right_blue.png,right_orange.png,p,left,60fda003f3acba0353b4c015,001,2021-07-25_16h32.29.845,arrow_simon_norep,2021.1.2,MacIntel,62.5,,,,,,,,,,,,,,,,,,,,,w,0,1.586,47,FALSE,FALSE,11,2,46,0,1,,,,,,,
,,,,,,1,2.173390671,#f3af84,,left_orange.png,q,,,,,,w,left_blue.png,left_orange.png,q,left,60fda003f3acba0353b4c015,001,2021-07-25_16h32.29.845,arrow_simon_norep,2021.1.2,MacIntel,62.5,,,,,,,,,,,,,,,,,,,,,w,0,1.525,48,FALSE,FALSE,11,3,47,2,1,,,,,,,
,,,,,,1,1.757689836,#a3d0fb,,right_blue.png,o,,,,,,o,right_blue.png,right_orange.png,p,right,60fda003f3acba0353b4c015,001,2021-07-25_16h32.29.845,arrow_simon_norep,2021.1.2,MacIntel,62.5,,,,,,,,,,,,,,,,,,,,,o,1,1.102,49,FALSE,TRUE,12,0,48,1,1,,,,,,,
,,,,,,0,2.215981352,#f3af84,,left_orange.png,q,,,,,,w,left_blue.png,left_orange.png,q,left,60fda003f3acba0353b4c015,001,2021-07-25_16h32.29.845,arrow_simon_norep,2021.1.2,MacIntel,62.5,,,,,,,,,,,,,,,,,,,,,q,1,1.568,50,FALSE,FALSE,12,1,49,2,1,,,,,,,
,,,,,,0,1.980238353,#a3d0fb,,left_blue.png,w,,,,,,w,left_blue.png,left_orange.png,q,left,60fda003f3acba0353b4c015,001,2021-07-25_16h32.29.845,arrow_simon_norep,2021.1.2,MacIntel,62.5,,,,,,,,,,,,,,,,,,,,,w,1,1.352,51,FALSE,TRUE,12,2,50,2,1,,,,,,,
,,,,,,0,1.721895322,#f3af84,,left_orange.png,q,,,,,,w,left_blue.png,left_orange.png,q,right,60fda003f3acba0353b4c015,001,2021-07-25_16h32.29.845,arrow_simon_norep,2021.1.2,MacIntel,62.5,,,,,,,,,,,,,,,,,,,,,q,1,1.179,52,FALSE,TRUE,12,3,51,3,1,,,,,,,
,,,,,,0,2.424901311,#a3d0fb,,right_blue.png,o,,,,,,o,right_blue.png,right_orange.png,p,left,60fda003f3acba0353b4c015,001,2021-07-25_16h32.29.845,arrow_simon_norep,2021.1.2,MacIntel,62.5,,,,,,,,,,,,,,,,,,,,,o,1,1.875,53,TRUE,FALSE,13,0,52,0,1,,,,,,,
,,,,,,0,2.342358867,#f3af84,,left_orange.png,q,,,,,,w,left_blue.png,left_orange.png,q,left,60fda003f3acba0353b4c015,001,2021-07-25_16h32.29.845,arrow_simon_norep,2021.1.2,MacIntel,62.5,,,,,,,,,,,,,,,,,,,,,q,1,1.693,54,TRUE,FALSE,13,1,53,2,1,,,,,,,
,,,,,,0,2.452791119,#a3d0fb,,left_blue.png,w,,,,,,w,left_blue.png,left_orange.png,q,left,60fda003f3acba0353b4c015,001,2021-07-25_16h32.29.845,arrow_simon_norep,2021.1.2,MacIntel,62.5,,,,,,,,,,,,,,,,,,,,,w,1,1.887,55,TRUE,FALSE,13,2,54,2,1,,,,,,,
,,,,,,0,1.626415646,#f3af84,,right_orange.png,p,,,,,,o,right_blue.png,right_orange.png,p,right,60fda003f3acba0353b4c015,001,2021-07-25_16h32.29.845,arrow_simon_norep,2021.1.2,MacIntel,62.5,,,,,,,,,,,,,,,,,,,,,p,1,0.956,56,FALSE,TRUE,13,3,55,1,1,,,,,,,
,,,,,,0,2.407925058,#a3d0fb,,left_blue.png,w,,,,,,w,left_blue.png,left_orange.png,q,right,60fda003f3acba0353b4c015,001,2021-07-25_16h32.29.845,arrow_simon_norep,2021.1.2,MacIntel,62.5,,,,,,,,,,,,,,,,,,,,,w,1,1.734,57,TRUE,FALSE,14,0,56,3,1,,,,,,,
,,,,,,0,1.903905661,#f3af84,,left_orange.png,q,,,,,,w,left_blue.png,left_orange.png,q,right,60fda003f3acba0353b4c015,001,2021-07-25_16h32.29.845,arrow_simon_norep,2021.1.2,MacIntel,62.5,,,,,,,,,,,,,,,,,,,,,q,1,1.757,58,TRUE,FALSE,14,1,57,3,1,,,,,,,
,,,,,,0,2.296311504,#a3d0fb,,right_blue.png,o,,,,,,o,right_blue.png,right_orange.png,p,right,60fda003f3acba0353b4c015,001,2021-07-25_16h32.29.845,arrow_simon_norep,2021.1.2,MacIntel,62.5,,,,,,,,,,,,,,,,,,,,,o,1,1.692,59,TRUE,FALSE,14,2,58,1,1,,,,,,,
,,,,,,0,1.519478312,#f3af84,,left_orange.png,q,,,,,,w,left_blue.png,left_orange.png,q,left,60fda003f3acba0353b4c015,001,2021-07-25_16h32.29.845,arrow_simon_norep,2021.1.2,MacIntel,62.5,,,,,,,,,,,,,,,,,,,,,q,1,1.692,60,TRUE,FALSE,14,3,59,2,1,,,,,,,
,,,,,,,,,,,,,,,,,,,,,,60fda003f3acba0353b4c015,001,2021-07-25_16h32.29.845,arrow_simon_norep,2021.1.2,MacIntel,62.5,,,,,,,,,,,,,,,,,,,,,,,,,,,,,,,,space,91.787,2,0,2,0,1
,,,,,,0,1.603719245,#a3d0fb,,left_blue.png,w,,,,,,w,left_blue.png,left_orange.png,q,left,60fda003f3acba0353b4c015,001,2021-07-25_16h32.29.845,arrow_simon_norep,2021.1.2,MacIntel,62.5,,,,,,,,,,,,,,,,,,,,,w,1,2.709,1,TRUE,FALSE,0,0,0,2,1,,,,,,,
,,,,,,0,2.107605037,#f3af84,,left_orange.png,q,,,,,,w,left_blue.png,left_orange.png,q,right,60fda003f3acba0353b4c015,001,2021-07-25_16h32.29.845,arrow_simon_norep,2021.1.2,MacIntel,62.5,,,,,,,,,,,,,,,,,,,,,q,1,2.022,2,TRUE,FALSE,0,1,1,3,1,,,,,,,
,,,,,,0,2.355638978,#a3d0fb,,left_blue.png,w,,,,,,w,left_blue.png,left_orange.png,q,left,60fda003f3acba0353b4c015,001,2021-07-25_16h32.29.845,arrow_simon_norep,2021.1.2,MacIntel,62.5,,,,,,,,,,,,,,,,,,,,,w,1,1.691,3,TRUE,FALSE,0,2,2,2,1,,,,,,,
,,,,,,0,2.299893735,#f3af84,,right_orange.png,p,,,,,,o,right_blue.png,right_orange.png,p,left,60fda003f3acba0353b4c015,001,2021-07-25_16h32.29.845,arrow_simon_norep,2021.1.2,MacIntel,62.5,,,,,,,,,,,,,,,,,,,,,q,0,1.649,4,TRUE,FALSE,0,3,3,0,1,,,,,,,
,,,,,,0,2.187475774,#a3d0fb,,right_blue.png,o,,,,,,o,right_blue.png,right_orange.png,p,left,60fda003f3acba0353b4c015,001,2021-07-25_16h32.29.845,arrow_simon_norep,2021.1.2,MacIntel,62.5,,,,,,,,,,,,,,,,,,,,,o,1,1.596,5,FALSE,FALSE,1,0,4,0,1,,,,,,,
,,,,,,0,1.512943823,#f3af84,,right_orange.png,p,,,,,,o,right_blue.png,right_orange.png,p,left,60fda003f3acba0353b4c015,001,2021-07-25_16h32.29.845,arrow_simon_norep,2021.1.2,MacIntel,62.5,,,,,,,,,,,,,,,,,,,,,p,1,0.906,6,FALSE,TRUE,1,1,5,0,1,,,,,,,
,,,,,,0,1.746735526,#a3d0fb,,right_blue.png,o,,,,,,o,right_blue.png,right_orange.png,p,left,60fda003f3acba0353b4c015,001,2021-07-25_16h32.29.845,arrow_simon_norep,2021.1.2,MacIntel,62.5,,,,,,,,,,,,,,,,,,,,,o,1,1.05,7,FALSE,TRUE,1,2,6,0,1,,,,,,,
,,,,,,0,1.575132525,#f3af84,,left_orange.png,q,,,,,,w,left_blue.png,left_orange.png,q,right,60fda003f3acba0353b4c015,001,2021-07-25_16h32.29.845,arrow_simon_norep,2021.1.2,MacIntel,62.5,,,,,,,,,,,,,,,,,,,,,q,1,1.052,8,FALSE,TRUE,1,3,7,3,1,,,,,,,
,,,,,,0,2.214598234,#a3d0fb,,right_blue.png,o,,,,,,o,right_blue.png,right_orange.png,p,right,60fda003f3acba0353b4c015,001,2021-07-25_16h32.29.845,arrow_simon_norep,2021.1.2,MacIntel,62.5,,,,,,,,,,,,,,,,,,,,,o,1,1.527,9,FALSE,FALSE,2,0,8,1,1,,,,,,,
,,,,,,0,2.192359657,#f3af84,,right_orange.png,p,,,,,,o,right_blue.png,right_orange.png,p,right,60fda003f3acba0353b4c015,001,2021-07-25_16h32.29.845,arrow_simon_norep,2021.1.2,MacIntel,62.5,,,,,,,,,,,,,,,,,,,,,p,1,1.537,10,FALSE,FALSE,2,1,9,1,1,,,,,,,
,,,,,,0,2.18102374,#a3d0fb,,left_blue.png,w,,,,,,w,left_blue.png,left_orange.png,q,right,60fda003f3acba0353b4c015,001,2021-07-25_16h32.29.845,arrow_simon_norep,2021.1.2,MacIntel,62.5,,,,,,,,,,,,,,,,,,,,,w,1,1.601,11,TRUE,FALSE,2,2,10,3,1,,,,,,,
,,,,,,0,1.503019974,#f3af84,,right_orange.png,p,,,,,,o,right_blue.png,right_orange.png,p,right,60fda003f3acba0353b4c015,001,2021-07-25_16h32.29.845,arrow_simon_norep,2021.1.2,MacIntel,62.5,,,,,,,,,,,,,,,,,,,,,p,1,0.852,12,FALSE,TRUE,2,3,11,1,1,,,,,,,
,,,,,,0,2.09583019,#a3d0fb,,left_blue.png,w,,,,,,w,left_blue.png,left_orange.png,q,left,60fda003f3acba0353b4c015,001,2021-07-25_16h32.29.845,arrow_simon_norep,2021.1.2,MacIntel,62.5,,,,,,,,,,,,,,,,,,,,,w,1,1.41,13,FALSE,FALSE,3,0,12,2,1,,,,,,,
,,,,,,0,1.62624988,#f3af84,,right_orange.png,p,,,,,,o,right_blue.png,right_orange.png,p,right,60fda003f3acba0353b4c015,001,2021-07-25_16h32.29.845,arrow_simon_norep,2021.1.2,MacIntel,62.5,,,,,,,,,,,,,,,,,,,,,p,1,0.921,14,FALSE,TRUE,3,1,13,1,1,,,,,,,
,,,,,,0,2.497839507,#a3d0fb,,left_blue.png,w,,,,,,w,left_blue.png,left_orange.png,q,left,60fda003f3acba0353b4c015,001,2021-07-25_16h32.29.845,arrow_simon_norep,2021.1.2,MacIntel,62.5,,,,,,,,,,,,,,,,,,,,,w,1,1.824,15,TRUE,FALSE,3,2,14,2,1,,,,,,,
,,,,,,0,1.717959047,#f3af84,,right_orange.png,p,,,,,,o,right_blue.png,right_orange.png,p,left,60fda003f3acba0353b4c015,001,2021-07-25_16h32.29.845,arrow_simon_norep,2021.1.2,MacIntel,62.5,,,,,,,,,,,,,,,,,,,,,p,1,1.345,16,FALSE,TRUE,3,3,15,0,1,,,,,,,
,,,,,,0,1.897242288,#a3d0fb,,left_blue.png,w,,,,,,w,left_blue.png,left_orange.png,q,right,60fda003f3acba0353b4c015,001,2021-07-25_16h32.29.845,arrow_simon_norep,2021.1.2,MacIntel,62.5,,,,,,,,,,,,,,,,,,,,,w,1,1.225,17,FALSE,TRUE,4,0,16,3,1,,,,,,,
,,,,,,0,2.171450678,#f3af84,,left_orange.png,q,,,,,,w,left_blue.png,left_orange.png,q,right,60fda003f3acba0353b4c015,001,2021-07-25_16h32.29.845,arrow_simon_norep,2021.1.2,MacIntel,62.5,,,,,,,,,,,,,,,,,,,,,q,1,1.61,18,TRUE,FALSE,4,1,17,3,1,,,,,,,
,,,,,,0,2.342554574,#a3d0fb,,right_blue.png,o,,,,,,o,right_blue.png,right_orange.png,p,left,60fda003f3acba0353b4c015,001,2021-07-25_16h32.29.845,arrow_simon_norep,2021.1.2,MacIntel,62.5,,,,,,,,,,,,,,,,,,,,,o,1,1.762,19,TRUE,FALSE,4,2,18,0,1,,,,,,,
,,,,,,0,1.692866096,#f3af84,,right_orange.png,p,,,,,,o,right_blue.png,right_orange.png,p,left,60fda003f3acba0353b4c015,001,2021-07-25_16h32.29.845,arrow_simon_norep,2021.1.2,MacIntel,62.5,,,,,,,,,,,,,,,,,,,,,p,1,1.196,20,FALSE,TRUE,4,3,19,0,1,,,,,,,
,,,,,,0,2.298667624,#a3d0fb,,left_blue.png,w,,,,,,w,left_blue.png,left_orange.png,q,right,60fda003f3acba0353b4c015,001,2021-07-25_16h32.29.845,arrow_simon_norep,2021.1.2,MacIntel,62.5,,,,,,,,,,,,,,,,,,,,,w,1,1.775,21,TRUE,FALSE,5,0,20,3,1,,,,,,,
,,,,,,0,2.36649612,#f3af84,,left_orange.png,q,,,,,,w,left_blue.png,left_orange.png,q,left,60fda003f3acba0353b4c015,001,2021-07-25_16h32.29.845,arrow_simon_norep,2021.1.2,MacIntel,62.5,,,,,,,,,,,,,,,,,,,,,q,1,1.88,22,TRUE,FALSE,5,1,21,2,1,,,,,,,
,,,,,,0,2.066864,#a3d0fb,,left_blue.png,w,,,,,,w,left_blue.png,left_orange.png,q,left,60fda003f3acba0353b4c015,001,2021-07-25_16h32.29.845,arrow_simon_norep,2021.1.2,MacIntel,62.5,,,,,,,,,,,,,,,,,,,,,w,1,1.429,23,FALSE,FALSE,5,2,22,2,1,,,,,,,
,,,,,,0,1.691355163,#f3af84,,right_orange.png,p,,,,,,o,right_blue.png,right_orange.png,p,right,60fda003f3acba0353b4c015,001,2021-07-25_16h32.29.845,arrow_simon_norep,2021.1.2,MacIntel,62.5,,,,,,,,,,,,,,,,,,,,,p,1,1.052,24,FALSE,TRUE,5,3,23,1,1,,,,,,,
,,,,,,0,2.293640595,#a3d0fb,,right_blue.png,o,,,,,,o,right_blue.png,right_orange.png,p,right,60fda003f3acba0353b4c015,001,2021-07-25_16h32.29.845,arrow_simon_norep,2021.1.2,MacIntel,62.5,,,,,,,,,,,,,,,,,,,,,o,1,1.691,25,TRUE,FALSE,6,0,24,1,1,,,,,,,
,,,,,,0,1.846059967,#f3af84,,right_orange.png,p,,,,,,o,right_blue.png,right_orange.png,p,left,60fda003f3acba0353b4c015,001,2021-07-25_16h32.29.845,arrow_simon_norep,2021.1.2,MacIntel,62.5,,,,,,,,,,,,,,,,,,,,,p,1,1.3,26,FALSE,TRUE,6,1,25,0,1,,,,,,,
,,,,,,0,1.595872203,#a3d0fb,,left_blue.png,w,,,,,,w,left_blue.png,left_orange.png,q,right,60fda003f3acba0353b4c015,001,2021-07-25_16h32.29.845,arrow_simon_norep,2021.1.2,MacIntel,62.5,,,,,,,,,,,,,,,,,,,,,w,1,1,27,FALSE,TRUE,6,2,26,3,1,,,,,,,
,,,,,,0,1.704040855,#f3af84,,right_orange.png,p,,,,,,o,right_blue.png,right_orange.png,p,left,60fda003f3acba0353b4c015,001,2021-07-25_16h32.29.845,arrow_simon_norep,2021.1.2,MacIntel,62.5,,,,,,,,,,,,,,,,,,,,,p,1,1.071,28,FALSE,TRUE,6,3,27,0,1,,,,,,,
,,,,,,0,1.879237291,#a3d0fb,,left_blue.png,w,,,,,,w,left_blue.png,left_orange.png,q,right,60fda003f3acba0353b4c015,001,2021-07-25_16h32.29.845,arrow_simon_norep,2021.1.2,MacIntel,62.5,,,,,,,,,,,,,,,,,,,,,w,1,1.269,29,FALSE,TRUE,7,0,28,3,1,,,,,,,
,,,,,,0,1.780857545,#f3af84,,left_orange.png,q,,,,,,w,left_blue.png,left_orange.png,q,left,60fda003f3acba0353b4c015,001,2021-07-25_16h32.29.845,arrow_simon_norep,2021.1.2,MacIntel,62.5,,,,,,,,,,,,,,,,,,,,,q,1,1.167,30,FALSE,TRUE,7,1,29,2,1,,,,,,,
,,,,,,0,2.4442493,#a3d0fb,,left_blue.png,w,,,,,,w,left_blue.png,left_orange.png,q,right,60fda003f3acba0353b4c015,001,2021-07-25_16h32.29.845,arrow_simon_norep,2021.1.2,MacIntel,62.5,,,,,,,,,,,,,,,,,,,,,w,1,1.908,31,TRUE,FALSE,7,2,30,3,1,,,,,,,
,,,,,,0,1.759256389,#f3af84,,right_orange.png,p,,,,,,o,right_blue.png,right_orange.png,p,right,60fda003f3acba0353b4c015,001,2021-07-25_16h32.29.845,arrow_simon_norep,2021.1.2,MacIntel,62.5,,,,,,,,,,,,,,,,,,,,,p,1,1.176,32,FALSE,TRUE,7,3,31,1,1,,,,,,,
,,,,,,0,1.971584877,#a3d0fb,,left_blue.png,w,,,,,,w,left_blue.png,left_orange.png,q,right,60fda003f3acba0353b4c015,001,2021-07-25_16h32.29.845,arrow_simon_norep,2021.1.2,MacIntel,62.5,,,,,,,,,,,,,,,,,,,,,w,1,1.333,33,FALSE,TRUE,8,0,32,3,1,,,,,,,
,,,,,,0,1.575099244,#f3af84,,left_orange.png,q,,,,,,w,left_blue.png,left_orange.png,q,left,60fda003f3acba0353b4c015,001,2021-07-25_16h32.29.845,arrow_simon_norep,2021.1.2,MacIntel,62.5,,,,,,,,,,,,,,,,,,,,,q,1,0.944,34,FALSE,TRUE,8,1,33,2,1,,,,,,,
,,,,,,0,2.394360076,#a3d0fb,,right_blue.png,o,,,,,,o,right_blue.png,right_orange.png,p,left,60fda003f3acba0353b4c015,001,2021-07-25_16h32.29.845,arrow_simon_norep,2021.1.2,MacIntel,62.5,,,,,,,,,,,,,,,,,,,,,o,1,1.826,35,TRUE,FALSE,8,2,34,0,1,,,,,,,
,,,,,,0,2.312511896,#f3af84,,left_orange.png,q,,,,,,w,left_blue.png,left_orange.png,q,left,60fda003f3acba0353b4c015,001,2021-07-25_16h32.29.845,arrow_simon_norep,2021.1.2,MacIntel,62.5,,,,,,,,,,,,,,,,,,,,,q,1,1.641,36,TRUE,FALSE,8,3,35,2,1,,,,,,,
,,,,,,0,2.411315075,#a3d0fb,,left_blue.png,w,,,,,,w,left_blue.png,left_orange.png,q,right,60fda003f3acba0353b4c015,001,2021-07-25_16h32.29.845,arrow_simon_norep,2021.1.2,MacIntel,62.5,,,,,,,,,,,,,,,,,,,,,w,1,1.892,37,TRUE,FALSE,9,0,36,3,1,,,,,,,
,,,,,,0,1.688053606,#f3af84,,left_orange.png,q,,,,,,w,left_blue.png,left_orange.png,q,left,60fda003f3acba0353b4c015,001,2021-07-25_16h32.29.845,arrow_simon_norep,2021.1.2,MacIntel,62.5,,,,,,,,,,,,,,,,,,,,,q,1,1.193,38,FALSE,TRUE,9,1,37,2,1,,,,,,,
,,,,,,0,2.266714397,#a3d0fb,,right_blue.png,o,,,,,,o,right_blue.png,right_orange.png,p,left,60fda003f3acba0353b4c015,001,2021-07-25_16h32.29.845,arrow_simon_norep,2021.1.2,MacIntel,62.5,,,,,,,,,,,,,,,,,,,,,o,1,1.718,39,TRUE,FALSE,9,2,38,0,1,,,,,,,
,,,,,,0,1.93467894,#f3af84,,right_orange.png,p,,,,,,o,right_blue.png,right_orange.png,p,right,60fda003f3acba0353b4c015,001,2021-07-25_16h32.29.845,arrow_simon_norep,2021.1.2,MacIntel,62.5,,,,,,,,,,,,,,,,,,,,,p,1,1.492,40,FALSE,FALSE,9,3,39,1,1,,,,,,,
,,,,,,0,1.777110738,#a3d0fb,,left_blue.png,w,,,,,,w,left_blue.png,left_orange.png,q,right,60fda003f3acba0353b4c015,001,2021-07-25_16h32.29.845,arrow_simon_norep,2021.1.2,MacIntel,62.5,,,,,,,,,,,,,,,,,,,,,w,1,1.116,41,FALSE,TRUE,10,0,40,3,1,,,,,,,
,,,,,,0,2.045324957,#f3af84,,left_orange.png,q,,,,,,w,left_blue.png,left_orange.png,q,left,60fda003f3acba0353b4c015,001,2021-07-25_16h32.29.845,arrow_simon_norep,2021.1.2,MacIntel,62.5,,,,,,,,,,,,,,,,,,,,,q,1,1.344,42,FALSE,TRUE,10,1,41,2,1,,,,,,,
,,,,,,0,2.36349665,#a3d0fb,,right_blue.png,o,,,,,,o,right_blue.png,right_orange.png,p,right,60fda003f3acba0353b4c015,001,2021-07-25_16h32.29.845,arrow_simon_norep,2021.1.2,MacIntel,62.5,,,,,,,,,,,,,,,,,,,,,o,1,1.668,43,TRUE,FALSE,10,2,42,1,1,,,,,,,
,,,,,,0,1.866630539,#f3af84,,right_orange.png,p,,,,,,o,right_blue.png,right_orange.png,p,right,60fda003f3acba0353b4c015,001,2021-07-25_16h32.29.845,arrow_simon_norep,2021.1.2,MacIntel,62.5,,,,,,,,,,,,,,,,,,,,,p,1,1.319,44,FALSE,TRUE,10,3,43,1,1,,,,,,,
,,,,,,0,1.814887885,#a3d0fb,,left_blue.png,w,,,,,,w,left_blue.png,left_orange.png,q,right,60fda003f3acba0353b4c015,001,2021-07-25_16h32.29.845,arrow_simon_norep,2021.1.2,MacIntel,62.5,,,,,,,,,,,,,,,,,,,,,w,1,1.208,45,FALSE,TRUE,11,0,44,3,1,,,,,,,
,,,,,,0,1.936764595,#f3af84,,right_orange.png,p,,,,,,o,right_blue.png,right_orange.png,p,right,60fda003f3acba0353b4c015,001,2021-07-25_16h32.29.845,arrow_simon_norep,2021.1.2,MacIntel,62.5,,,,,,,,,,,,,,,,,,,,,p,1,1.343,46,FALSE,TRUE,11,1,45,1,1,,,,,,,
,,,,,,0,1.958452605,#a3d0fb,,left_blue.png,w,,,,,,w,left_blue.png,left_orange.png,q,right,60fda003f3acba0353b4c015,001,2021-07-25_16h32.29.845,arrow_simon_norep,2021.1.2,MacIntel,62.5,,,,,,,,,,,,,,,,,,,,,w,1,1.293,47,FALSE,TRUE,11,2,46,3,1,,,,,,,
,,,,,,0,1.90282899,#f3af84,,right_orange.png,p,,,,,,o,right_blue.png,right_orange.png,p,left,60fda003f3acba0353b4c015,001,2021-07-25_16h32.29.845,arrow_simon_norep,2021.1.2,MacIntel,62.5,,,,,,,,,,,,,,,,,,,,,p,1,1.342,48,FALSE,TRUE,11,3,47,0,1,,,,,,,
,,,,,,0,2.267333847,#a3d0fb,,right_blue.png,o,,,,,,o,right_blue.png,right_orange.png,p,right,60fda003f3acba0353b4c015,001,2021-07-25_16h32.29.845,arrow_simon_norep,2021.1.2,MacIntel,62.5,,,,,,,,,,,,,,,,,,,,,o,1,1.977,49,TRUE,FALSE,12,0,48,1,1,,,,,,,
,,,,,,0,1.66558928,#f3af84,,right_orange.png,p,,,,,,o,right_blue.png,right_orange.png,p,left,60fda003f3acba0353b4c015,001,2021-07-25_16h32.29.845,arrow_simon_norep,2021.1.2,MacIntel,62.5,,,,,,,,,,,,,,,,,,,,,p,1,1.066,50,FALSE,TRUE,12,1,49,0,1,,,,,,,
,,,,,,0,2.267142205,#a3d0fb,,right_blue.png,o,,,,,,o,right_blue.png,right_orange.png,p,left,60fda003f3acba0353b4c015,001,2021-07-25_16h32.29.845,arrow_simon_norep,2021.1.2,MacIntel,62.5,,,,,,,,,,,,,,,,,,,,,o,1,1.708,51,TRUE,FALSE,12,2,50,0,1,,,,,,,
,,,,,,0,2.405054806,#f3af84,,left_orange.png,q,,,,,,w,left_blue.png,left_orange.png,q,left,60fda003f3acba0353b4c015,001,2021-07-25_16h32.29.845,arrow_simon_norep,2021.1.2,MacIntel,62.5,,,,,,,,,,,,,,,,,,,,,q,1,1.7,52,TRUE,FALSE,12,3,51,2,1,,,,,,,
,,,,,,0,1.751639605,#a3d0fb,,left_blue.png,w,,,,,,w,left_blue.png,left_orange.png,q,left,60fda003f3acba0353b4c015,001,2021-07-25_16h32.29.845,arrow_simon_norep,2021.1.2,MacIntel,62.5,,,,,,,,,,,,,,,,,,,,,w,1,1.16,53,FALSE,TRUE,13,0,52,2,1,,,,,,,
,,,,,,0,2.198485066,#f3af84,,right_orange.png,p,,,,,,o,right_blue.png,right_orange.png,p,right,60fda003f3acba0353b4c015,001,2021-07-25_16h32.29.845,arrow_simon_norep,2021.1.2,MacIntel,62.5,,,,,,,,,,,,,,,,,,,,,p,1,1.536,54,FALSE,FALSE,13,1,53,1,1,,,,,,,
,,,,,,0,2.412221927,#a3d0fb,,right_blue.png,o,,,,,,o,right_blue.png,right_orange.png,p,left,60fda003f3acba0353b4c015,001,2021-07-25_16h32.29.845,arrow_simon_norep,2021.1.2,MacIntel,62.5,,,,,,,,,,,,,,,,,,,,,o,1,1.82,55,TRUE,FALSE,13,2,54,0,1,,,,,,,
,,,,,,0,2.303416276,#f3af84,,left_orange.png,q,,,,,,w,left_blue.png,left_orange.png,q,left,60fda003f3acba0353b4c015,001,2021-07-25_16h32.29.845,arrow_simon_norep,2021.1.2,MacIntel,62.5,,,,,,,,,,,,,,,,,,,,,q,1,1.576,56,FALSE,FALSE,13,3,55,2,1,,,,,,,
,,,,,,0,2.172722388,#a3d0fb,,right_blue.png,o,,,,,,o,right_blue.png,right_orange.png,p,right,60fda003f3acba0353b4c015,001,2021-07-25_16h32.29.845,arrow_simon_norep,2021.1.2,MacIntel,62.5,,,,,,,,,,,,,,,,,,,,,o,1,1.522,57,FALSE,FALSE,14,0,56,1,1,,,,,,,
,,,,,,0,1.842248513,#f3af84,,left_orange.png,q,,,,,,w,left_blue.png,left_orange.png,q,left,60fda003f3acba0353b4c015,001,2021-07-25_16h32.29.845,arrow_simon_norep,2021.1.2,MacIntel,62.5,,,,,,,,,,,,,,,,,,,,,q,1,1.185,58,FALSE,TRUE,14,1,57,2,1,,,,,,,
,,,,,,0,1.762218257,#a3d0fb,,left_blue.png,w,,,,,,w,left_blue.png,left_orange.png,q,right,60fda003f3acba0353b4c015,001,2021-07-25_16h32.29.845,arrow_simon_norep,2021.1.2,MacIntel,62.5,,,,,,,,,,,,,,,,,,,,,w,1,1.168,59,FALSE,TRUE,14,2,58,3,1,,,,,,,
