instruct_resp_simon.keys,instruct_resp_simon.corr,instruct_resp_simon.rt,trial_resp_simon.keys,trial_resp_simon.corr,trial_resp_simon.rt,kerr,target_onset,target_color,target_pos,target_file,target_resp,trials_train_simon.thisRepN,trials_train_simon.thisTrialN,trials_train_simon.thisN,trials_train_simon.thisIndex,trials_train_simon.ran,odd_target_resp,odd_target_file,even_target_file,even_target_resp,target_side,participant,session,date,expName,psychopyVersion,OS,frameRate,train_block_note_resp.keys,train_block_note_resp.rt,blocks_train.thisRepN,blocks_train.thisTrialN,blocks_train.thisN,blocks_train.thisIndex,blocks_train.ran,instruct_resp_timing.keys,instruct_resp_timing.corr,instruct_resp_timing.rt,trial_resp_timing.keys,trial_resp_timing.rt,trials_train_timing.thisRepN,trials_train_timing.thisTrialN,trials_train_timing.thisN,trials_train_timing.thisIndex,trials_train_timing.ran,instruct_resp.keys,instruct_resp.corr,instruct_resp.rt,trial_resp.keys,trial_resp.corr,trial_resp.rt,trial_num,too_slow,too_soon,trials.thisRepN,trials.thisTrialN,trials.thisN,trials.thisIndex,trials.ran,block_note_resp.keys,block_note_resp.rt,blocks.thisRepN,blocks.thisTrialN,blocks.thisN,blocks.thisIndex,blocks.ran
space,0,68.383,w,0,3.4347,1,0.390963093,#a3d0fb,,right_blue.png,o,0,0,0,0,1,o,right_blue.png,right_orange.png,p,left,60fdbe8a13c3166287bfd402,001,2021-08-01_13h23.59.265,arrow_simon_norep,2021.1.2,Win32,60.32454606,,,,,,,,,,,,,,,,,,,,,,,,,,,,,,,,,,,,,,
,,,o,0,2.1626,1,0.333952826,#f3af84,,right_orange.png,p,0,1,1,1,1,o,right_blue.png,right_orange.png,p,right,60fdbe8a13c3166287bfd402,001,2021-08-01_13h23.59.265,arrow_simon_norep,2021.1.2,Win32,60.32454606,,,,,,,,,,,,,,,,,,,,,,,,,,,,,,,,,,,,,,
,,,w,1,2.1579,0,0.766238096,#a3d0fb,,left_blue.png,w,0,2,2,2,1,w,left_blue.png,left_orange.png,q,left,60fdbe8a13c3166287bfd402,001,2021-08-01_13h23.59.265,arrow_simon_norep,2021.1.2,Win32,60.32454606,,,,,,,,,,,,,,,,,,,,,,,,,,,,,,,,,,,,,,
,,,p,1,1.4529,0,0.701413983,#f3af84,,right_orange.png,p,0,3,3,1,1,o,right_blue.png,right_orange.png,p,right,60fdbe8a13c3166287bfd402,001,2021-08-01_13h23.59.265,arrow_simon_norep,2021.1.2,Win32,60.32454606,,,,,,,,,,,,,,,,,,,,,,,,,,,,,,,,,,,,,,
,,,o,1,2.5955,0,0.882496055,#a3d0fb,,right_blue.png,o,1,0,4,0,1,o,right_blue.png,right_orange.png,p,left,60fdbe8a13c3166287bfd402,001,2021-08-01_13h23.59.265,arrow_simon_norep,2021.1.2,Win32,60.32454606,,,,,,,,,,,,,,,,,,,,,,,,,,,,,,,,,,,,,,
,,,q,1,2.076,0,0.03066679,#f3af84,,left_orange.png,q,1,1,5,3,1,w,left_blue.png,left_orange.png,q,right,60fdbe8a13c3166287bfd402,001,2021-08-01_13h23.59.265,arrow_simon_norep,2021.1.2,Win32,60.32454606,,,,,,,,,,,,,,,,,,,,,,,,,,,,,,,,,,,,,,
,,,w,1,1.4189,0,0.174478535,#a3d0fb,,left_blue.png,w,1,2,6,2,1,w,left_blue.png,left_orange.png,q,left,60fdbe8a13c3166287bfd402,001,2021-08-01_13h23.59.265,arrow_simon_norep,2021.1.2,Win32,60.32454606,,,,,,,,,,,,,,,,,,,,,,,,,,,,,,,,,,,,,,
,,,p,1,2.4224,0,0.54857522,#f3af84,,right_orange.png,p,1,3,7,0,1,o,right_blue.png,right_orange.png,p,left,60fdbe8a13c3166287bfd402,001,2021-08-01_13h23.59.265,arrow_simon_norep,2021.1.2,Win32,60.32454606,,,,,,,,,,,,,,,,,,,,,,,,,,,,,,,,,,,,,,
,,,q,0,1.5362,1,0.669147071,#a3d0fb,,left_blue.png,w,2,0,8,2,1,w,left_blue.png,left_orange.png,q,left,60fdbe8a13c3166287bfd402,001,2021-08-01_13h23.59.265,arrow_simon_norep,2021.1.2,Win32,60.32454606,,,,,,,,,,,,,,,,,,,,,,,,,,,,,,,,,,,,,,
,,,q,1,1.2058,0,0.349777814,#f3af84,,left_orange.png,q,2,1,9,2,1,w,left_blue.png,left_orange.png,q,left,60fdbe8a13c3166287bfd402,001,2021-08-01_13h23.59.265,arrow_simon_norep,2021.1.2,Win32,60.32454606,,,,,,,,,,,,,,,,,,,,,,,,,,,,,,,,,,,,,,
,,,w,1,0.8184,0,0.106116635,#a3d0fb,,left_blue.png,w,2,2,10,2,1,w,left_blue.png,left_orange.png,q,left,60fdbe8a13c3166287bfd402,001,2021-08-01_13h23.59.265,arrow_simon_norep,2021.1.2,Win32,60.32454606,,,,,,,,,,,,,,,,,,,,,,,,,,,,,,,,,,,,,,
,,,p,1,1.7245,0,0.966202807,#f3af84,,right_orange.png,p,2,3,11,1,1,o,right_blue.png,right_orange.png,p,right,60fdbe8a13c3166287bfd402,001,2021-08-01_13h23.59.265,arrow_simon_norep,2021.1.2,Win32,60.32454606,,,,,,,,,,,,,,,,,,,,,,,,,,,,,,,,,,,,,,
,,,w,1,1.5378,0,0.115703657,#a3d0fb,,left_blue.png,w,3,0,12,3,1,w,left_blue.png,left_orange.png,q,right,60fdbe8a13c3166287bfd402,001,2021-08-01_13h23.59.265,arrow_simon_norep,2021.1.2,Win32,60.32454606,,,,,,,,,,,,,,,,,,,,,,,,,,,,,,,,,,,,,,
,,,q,1,2.571,0,0.770665101,#f3af84,,left_orange.png,q,3,1,13,3,1,w,left_blue.png,left_orange.png,q,right,60fdbe8a13c3166287bfd402,001,2021-08-01_13h23.59.265,arrow_simon_norep,2021.1.2,Win32,60.32454606,,,,,,,,,,,,,,,,,,,,,,,,,,,,,,,,,,,,,,
,,,o,1,1.5881,0,0.052220295,#a3d0fb,,right_blue.png,o,3,2,14,1,1,o,right_blue.png,right_orange.png,p,right,60fdbe8a13c3166287bfd402,001,2021-08-01_13h23.59.265,arrow_simon_norep,2021.1.2,Win32,60.32454606,,,,,,,,,,,,,,,,,,,,,,,,,,,,,,,,,,,,,,
,,,p,1,1.9532,0,0.494297871,#f3af84,,right_orange.png,p,3,3,15,0,1,o,right_blue.png,right_orange.png,p,left,60fdbe8a13c3166287bfd402,001,2021-08-01_13h23.59.265,arrow_simon_norep,2021.1.2,Win32,60.32454606,,,,,,,,,,,,,,,,,,,,,,,,,,,,,,,,,,,,,,
,,,w,1,0.9642,0,0.103233951,#a3d0fb,,left_blue.png,w,4,0,16,2,1,w,left_blue.png,left_orange.png,q,left,60fdbe8a13c3166287bfd402,001,2021-08-01_13h23.59.265,arrow_simon_norep,2021.1.2,Win32,60.32454606,,,,,,,,,,,,,,,,,,,,,,,,,,,,,,,,,,,,,,
,,,q,1,1.2972,0,0.385061662,#f3af84,,left_orange.png,q,4,1,17,3,1,w,left_blue.png,left_orange.png,q,right,60fdbe8a13c3166287bfd402,001,2021-08-01_13h23.59.265,arrow_simon_norep,2021.1.2,Win32,60.32454606,,,,,,,,,,,,,,,,,,,,,,,,,,,,,,,,,,,,,,
,,,o,0,1.2257,1,0.605609327,#a3d0fb,,left_blue.png,w,4,2,18,3,1,w,left_blue.png,left_orange.png,q,right,60fdbe8a13c3166287bfd402,001,2021-08-01_13h23.59.265,arrow_simon_norep,2021.1.2,Win32,60.32454606,,,,,,,,,,,,,,,,,,,,,,,,,,,,,,,,,,,,,,
,,,p,1,1.3526,0,0.275049666,#f3af84,,right_orange.png,p,4,3,19,1,1,o,right_blue.png,right_orange.png,p,right,60fdbe8a13c3166287bfd402,001,2021-08-01_13h23.59.265,arrow_simon_norep,2021.1.2,Win32,60.32454606,,,,,,,,,,,,,,,,,,,,,,,,,,,,,,,,,,,,,,
,,,o,1,0.8567,0,0.0070282,#a3d0fb,,right_blue.png,o,5,0,20,1,1,o,right_blue.png,right_orange.png,p,right,60fdbe8a13c3166287bfd402,001,2021-08-01_13h23.59.265,arrow_simon_norep,2021.1.2,Win32,60.32454606,,,,,,,,,,,,,,,,,,,,,,,,,,,,,,,,,,,,,,
,,,q,1,2.1221,0,0.726838273,#f3af84,,left_orange.png,q,5,1,21,2,1,w,left_blue.png,left_orange.png,q,left,60fdbe8a13c3166287bfd402,001,2021-08-01_13h23.59.265,arrow_simon_norep,2021.1.2,Win32,60.32454606,,,,,,,,,,,,,,,,,,,,,,,,,,,,,,,,,,,,,,
,,,w,1,1.223,0,0.049776088,#a3d0fb,,left_blue.png,w,5,2,22,3,1,w,left_blue.png,left_orange.png,q,right,60fdbe8a13c3166287bfd402,001,2021-08-01_13h23.59.265,arrow_simon_norep,2021.1.2,Win32,60.32454606,,,,,,,,,,,,,,,,,,,,,,,,,,,,,,,,,,,,,,
,,,q,1,1.9217,0,0.948721813,#f3af84,,left_orange.png,q,5,3,23,3,1,w,left_blue.png,left_orange.png,q,right,60fdbe8a13c3166287bfd402,001,2021-08-01_13h23.59.265,arrow_simon_norep,2021.1.2,Win32,60.32454606,,,,,,,,,,,,,,,,,,,,,,,,,,,,,,,,,,,,,,
,,,o,1,1.1526,0,0.137404638,#a3d0fb,,right_blue.png,o,6,0,24,0,1,o,right_blue.png,right_orange.png,p,left,60fdbe8a13c3166287bfd402,001,2021-08-01_13h23.59.265,arrow_simon_norep,2021.1.2,Win32,60.32454606,,,,,,,,,,,,,,,,,,,,,,,,,,,,,,,,,,,,,,
,,,q,1,1.3029,0,0.512305672,#f3af84,,left_orange.png,q,6,1,25,3,1,w,left_blue.png,left_orange.png,q,right,60fdbe8a13c3166287bfd402,001,2021-08-01_13h23.59.265,arrow_simon_norep,2021.1.2,Win32,60.32454606,,,,,,,,,,,,,,,,,,,,,,,,,,,,,,,,,,,,,,
,,,w,1,0.9351,0,0.269647031,#a3d0fb,,left_blue.png,w,6,2,26,3,1,w,left_blue.png,left_orange.png,q,right,60fdbe8a13c3166287bfd402,001,2021-08-01_13h23.59.265,arrow_simon_norep,2021.1.2,Win32,60.32454606,,,,,,,,,,,,,,,,,,,,,,,,,,,,,,,,,,,,,,
,,,q,1,1.5374,0,0.857703851,#f3af84,,left_orange.png,q,6,3,27,3,1,w,left_blue.png,left_orange.png,q,right,60fdbe8a13c3166287bfd402,001,2021-08-01_13h23.59.265,arrow_simon_norep,2021.1.2,Win32,60.32454606,,,,,,,,,,,,,,,,,,,,,,,,,,,,,,,,,,,,,,
,,,w,1,1.3858,0,0.789671811,#a3d0fb,,left_blue.png,w,7,0,28,3,1,w,left_blue.png,left_orange.png,q,right,60fdbe8a13c3166287bfd402,001,2021-08-01_13h23.59.265,arrow_simon_norep,2021.1.2,Win32,60.32454606,,,,,,,,,,,,,,,,,,,,,,,,,,,,,,,,,,,,,,
,,,p,1,1.6927,0,0.741769655,#f3af84,,right_orange.png,p,7,1,29,0,1,o,right_blue.png,right_orange.png,p,left,60fdbe8a13c3166287bfd402,001,2021-08-01_13h23.59.265,arrow_simon_norep,2021.1.2,Win32,60.32454606,,,,,,,,,,,,,,,,,,,,,,,,,,,,,,,,,,,,,,
,,,o,1,1.0919,0,0.218732398,#a3d0fb,,right_blue.png,o,7,2,30,1,1,o,right_blue.png,right_orange.png,p,right,60fdbe8a13c3166287bfd402,001,2021-08-01_13h23.59.265,arrow_simon_norep,2021.1.2,Win32,60.32454606,,,,,,,,,,,,,,,,,,,,,,,,,,,,,,,,,,,,,,
,,,q,1,1.2688,0,0.484488665,#f3af84,,left_orange.png,q,7,3,31,3,1,w,left_blue.png,left_orange.png,q,right,60fdbe8a13c3166287bfd402,001,2021-08-01_13h23.59.265,arrow_simon_norep,2021.1.2,Win32,60.32454606,,,,,,,,,,,,,,,,,,,,,,,,,,,,,,,,,,,,,,
,,,o,1,0.8461,0,0.168402205,#a3d0fb,,right_blue.png,o,8,0,32,0,1,o,right_blue.png,right_orange.png,p,left,60fdbe8a13c3166287bfd402,001,2021-08-01_13h23.59.265,arrow_simon_norep,2021.1.2,Win32,60.32454606,,,,,,,,,,,,,,,,,,,,,,,,,,,,,,,,,,,,,,
,,,q,1,1.5205,0,0.687108865,#f3af84,,left_orange.png,q,8,1,33,3,1,w,left_blue.png,left_orange.png,q,right,60fdbe8a13c3166287bfd402,001,2021-08-01_13h23.59.265,arrow_simon_norep,2021.1.2,Win32,60.32454606,,,,,,,,,,,,,,,,,,,,,,,,,,,,,,,,,,,,,,
,,,o,1,1.4028,0,0.704494728,#a3d0fb,,right_blue.png,o,8,2,34,1,1,o,right_blue.png,right_orange.png,p,right,60fdbe8a13c3166287bfd402,001,2021-08-01_13h23.59.265,arrow_simon_norep,2021.1.2,Win32,60.32454606,,,,,,,,,,,,,,,,,,,,,,,,,,,,,,,,,,,,,,
,,,p,1,1.3195,0,0.773752186,#f3af84,,right_orange.png,p,8,3,35,0,1,o,right_blue.png,right_orange.png,p,left,60fdbe8a13c3166287bfd402,001,2021-08-01_13h23.59.265,arrow_simon_norep,2021.1.2,Win32,60.32454606,,,,,,,,,,,,,,,,,,,,,,,,,,,,,,,,,,,,,,
,,,w,1,1.0085,0,0.216925118,#a3d0fb,,left_blue.png,w,9,0,36,2,1,w,left_blue.png,left_orange.png,q,left,60fdbe8a13c3166287bfd402,001,2021-08-01_13h23.59.265,arrow_simon_norep,2021.1.2,Win32,60.32454606,,,,,,,,,,,,,,,,,,,,,,,,,,,,,,,,,,,,,,
,,,q,1,0.788,0,0.283000728,#f3af84,,left_orange.png,q,9,1,37,2,1,w,left_blue.png,left_orange.png,q,left,60fdbe8a13c3166287bfd402,001,2021-08-01_13h23.59.265,arrow_simon_norep,2021.1.2,Win32,60.32454606,,,,,,,,,,,,,,,,,,,,,,,,,,,,,,,,,,,,,,
,,,p,0,1.2243,1,0.732595828,#a3d0fb,,right_blue.png,o,9,2,38,1,1,o,right_blue.png,right_orange.png,p,right,60fdbe8a13c3166287bfd402,001,2021-08-01_13h23.59.265,arrow_simon_norep,2021.1.2,Win32,60.32454606,,,,,,,,,,,,,,,,,,,,,,,,,,,,,,,,,,,,,,
,,,o,0,1.5631,1,0.958132418,#f3af84,,right_orange.png,p,9,3,39,1,1,o,right_blue.png,right_orange.png,p,right,60fdbe8a13c3166287bfd402,001,2021-08-01_13h23.59.265,arrow_simon_norep,2021.1.2,Win32,60.32454606,,,,,,,,,,,,,,,,,,,,,,,,,,,,,,,,,,,,,,
,,,w,1,1.3113,0,0.564884043,#a3d0fb,,left_blue.png,w,10,0,40,2,1,w,left_blue.png,left_orange.png,q,left,60fdbe8a13c3166287bfd402,001,2021-08-01_13h23.59.265,arrow_simon_norep,2021.1.2,Win32,60.32454606,,,,,,,,,,,,,,,,,,,,,,,,,,,,,,,,,,,,,,
,,,p,1,1.1529,0,0.649019255,#f3af84,,right_orange.png,p,10,1,41,1,1,o,right_blue.png,right_orange.png,p,right,60fdbe8a13c3166287bfd402,001,2021-08-01_13h23.59.265,arrow_simon_norep,2021.1.2,Win32,60.32454606,,,,,,,,,,,,,,,,,,,,,,,,,,,,,,,,,,,,,,
,,,o,1,1.5687,0,0.989577996,#a3d0fb,,right_blue.png,o,10,2,42,1,1,o,right_blue.png,right_orange.png,p,right,60fdbe8a13c3166287bfd402,001,2021-08-01_13h23.59.265,arrow_simon_norep,2021.1.2,Win32,60.32454606,,,,,,,,,,,,,,,,,,,,,,,,,,,,,,,,,,,,,,
,,,p,1,1.3205,0,0.496175255,#f3af84,,right_orange.png,p,10,3,43,0,1,o,right_blue.png,right_orange.png,p,left,60fdbe8a13c3166287bfd402,001,2021-08-01_13h23.59.265,arrow_simon_norep,2021.1.2,Win32,60.32454606,,,,,,,,,,,,,,,,,,,,,,,,,,,,,,,,,,,,,,
,,,w,1,1.7523,0,0.806604948,#a3d0fb,,left_blue.png,w,11,0,44,2,1,w,left_blue.png,left_orange.png,q,left,60fdbe8a13c3166287bfd402,001,2021-08-01_13h23.59.265,arrow_simon_norep,2021.1.2,Win32,60.32454606,,,,,,,,,,,,,,,,,,,,,,,,,,,,,,,,,,,,,,
,,,p,1,1.1083,0,0.549394764,#f3af84,,right_orange.png,p,11,1,45,0,1,o,right_blue.png,right_orange.png,p,left,60fdbe8a13c3166287bfd402,001,2021-08-01_13h23.59.265,arrow_simon_norep,2021.1.2,Win32,60.32454606,,,,,,,,,,,,,,,,,,,,,,,,,,,,,,,,,,,,,,
,,,q,0,0.6926,1,0.098866283,#a3d0fb,,left_blue.png,w,11,2,46,2,1,w,left_blue.png,left_orange.png,q,left,60fdbe8a13c3166287bfd402,001,2021-08-01_13h23.59.265,arrow_simon_norep,2021.1.2,Win32,60.32454606,,,,,,,,,,,,,,,,,,,,,,,,,,,,,,,,,,,,,,
,,,q,1,0.5529,0,0.086212843,#f3af84,,left_orange.png,q,11,3,47,2,1,w,left_blue.png,left_orange.png,q,left,60fdbe8a13c3166287bfd402,001,2021-08-01_13h23.59.265,arrow_simon_norep,2021.1.2,Win32,60.32454606,,,,,,,,,,,,,,,,,,,,,,,,,,,,,,,,,,,,,,
,,,o,1,1.1885,0,0.243471288,#a3d0fb,,right_blue.png,o,12,0,48,0,1,o,right_blue.png,right_orange.png,p,left,60fdbe8a13c3166287bfd402,001,2021-08-01_13h23.59.265,arrow_simon_norep,2021.1.2,Win32,60.32454606,,,,,,,,,,,,,,,,,,,,,,,,,,,,,,,,,,,,,,
,,,p,1,0.806,0,0.049686429,#f3af84,,right_orange.png,p,12,1,49,1,1,o,right_blue.png,right_orange.png,p,right,60fdbe8a13c3166287bfd402,001,2021-08-01_13h23.59.265,arrow_simon_norep,2021.1.2,Win32,60.32454606,,,,,,,,,,,,,,,,,,,,,,,,,,,,,,,,,,,,,,
,,,o,1,0.8193,0,0.120912031,#a3d0fb,,right_blue.png,o,12,2,50,0,1,o,right_blue.png,right_orange.png,p,left,60fdbe8a13c3166287bfd402,001,2021-08-01_13h23.59.265,arrow_simon_norep,2021.1.2,Win32,60.32454606,,,,,,,,,,,,,,,,,,,,,,,,,,,,,,,,,,,,,,
,,,q,1,1.3524,0,0.538504326,#f3af84,,left_orange.png,q,12,3,51,2,1,w,left_blue.png,left_orange.png,q,left,60fdbe8a13c3166287bfd402,001,2021-08-01_13h23.59.265,arrow_simon_norep,2021.1.2,Win32,60.32454606,,,,,,,,,,,,,,,,,,,,,,,,,,,,,,,,,,,,,,
,,,o,1,0.8364,0,0.134473454,#a3d0fb,,right_blue.png,o,13,0,52,0,1,o,right_blue.png,right_orange.png,p,left,60fdbe8a13c3166287bfd402,001,2021-08-01_13h23.59.265,arrow_simon_norep,2021.1.2,Win32,60.32454606,,,,,,,,,,,,,,,,,,,,,,,,,,,,,,,,,,,,,,
,,,p,1,1.4786,0,0.830908673,#f3af84,,right_orange.png,p,13,1,53,1,1,o,right_blue.png,right_orange.png,p,right,60fdbe8a13c3166287bfd402,001,2021-08-01_13h23.59.265,arrow_simon_norep,2021.1.2,Win32,60.32454606,,,,,,,,,,,,,,,,,,,,,,,,,,,,,,,,,,,,,,
,,,w,1,1.2858,0,0.548447538,#a3d0fb,,left_blue.png,w,13,2,54,3,1,w,left_blue.png,left_orange.png,q,right,60fdbe8a13c3166287bfd402,001,2021-08-01_13h23.59.265,arrow_simon_norep,2021.1.2,Win32,60.32454606,,,,,,,,,,,,,,,,,,,,,,,,,,,,,,,,,,,,,,
,,,p,1,1.7707,0,0.704180844,#f3af84,,right_orange.png,p,13,3,55,0,1,o,right_blue.png,right_orange.png,p,left,60fdbe8a13c3166287bfd402,001,2021-08-01_13h23.59.265,arrow_simon_norep,2021.1.2,Win32,60.32454606,,,,,,,,,,,,,,,,,,,,,,,,,,,,,,,,,,,,,,
,,,o,1,1.0524,0,0.302097329,#a3d0fb,,right_blue.png,o,14,0,56,1,1,o,right_blue.png,right_orange.png,p,right,60fdbe8a13c3166287bfd402,001,2021-08-01_13h23.59.265,arrow_simon_norep,2021.1.2,Win32,60.32454606,,,,,,,,,,,,,,,,,,,,,,,,,,,,,,,,,,,,,,
,,,w,0,1.5799,1,0.85080276,#f3af84,,left_orange.png,q,14,1,57,3,1,w,left_blue.png,left_orange.png,q,right,60fdbe8a13c3166287bfd402,001,2021-08-01_13h23.59.265,arrow_simon_norep,2021.1.2,Win32,60.32454606,,,,,,,,,,,,,,,,,,,,,,,,,,,,,,,,,,,,,,
,,,o,1,1.464,0,0.761870616,#a3d0fb,,right_blue.png,o,14,2,58,0,1,o,right_blue.png,right_orange.png,p,left,60fdbe8a13c3166287bfd402,001,2021-08-01_13h23.59.265,arrow_simon_norep,2021.1.2,Win32,60.32454606,,,,,,,,,,,,,,,,,,,,,,,,,,,,,,,,,,,,,,
,,,q,1,0.9857,0,0.420463088,#f3af84,,left_orange.png,q,14,3,59,2,1,w,left_blue.png,left_orange.png,q,left,60fdbe8a13c3166287bfd402,001,2021-08-01_13h23.59.265,arrow_simon_norep,2021.1.2,Win32,60.32454606,,,,,,,,,,,,,,,,,,,,,,,,,,,,,,,,,,,,,,
,,,,,,,,,,,,,,,,,,,,,,60fdbe8a13c3166287bfd402,001,2021-08-01_13h23.59.265,arrow_simon_norep,2021.1.2,Win32,60.32454606,space,192.9404,0,0,0,0,1,,,,,,,,,,,,,,,,,,,,,,,,,,,,,,,
,,,o,1,6.1271,0,0.718398873,#a3d0fb,,right_blue.png,o,0,0,0,0,1,o,right_blue.png,right_orange.png,p,left,60fdbe8a13c3166287bfd402,001,2021-08-01_13h23.59.265,arrow_simon_norep,2021.1.2,Win32,60.32454606,,,,,,,,,,,,,,,,,,,,,,,,,,,,,,,,,,,,,,
,,,p,1,1.0534,0,0.418825296,#f3af84,,right_orange.png,p,0,1,1,1,1,o,right_blue.png,right_orange.png,p,right,60fdbe8a13c3166287bfd402,001,2021-08-01_13h23.59.265,arrow_simon_norep,2021.1.2,Win32,60.32454606,,,,,,,,,,,,,,,,,,,,,,,,,,,,,,,,,,,,,,
,,,o,1,1.2468,0,0.631780357,#a3d0fb,,right_blue.png,o,0,2,2,0,1,o,right_blue.png,right_orange.png,p,left,60fdbe8a13c3166287bfd402,001,2021-08-01_13h23.59.265,arrow_simon_norep,2021.1.2,Win32,60.32454606,,,,,,,,,,,,,,,,,,,,,,,,,,,,,,,,,,,,,,
,,,q,1,0.7686,0,0.136605078,#f3af84,,left_orange.png,q,0,3,3,2,1,w,left_blue.png,left_orange.png,q,left,60fdbe8a13c3166287bfd402,001,2021-08-01_13h23.59.265,arrow_simon_norep,2021.1.2,Win32,60.32454606,,,,,,,,,,,,,,,,,,,,,,,,,,,,,,,,,,,,,,
,,,w,1,1.1527,0,0.621995469,#a3d0fb,,left_blue.png,w,1,0,4,3,1,w,left_blue.png,left_orange.png,q,right,60fdbe8a13c3166287bfd402,001,2021-08-01_13h23.59.265,arrow_simon_norep,2021.1.2,Win32,60.32454606,,,,,,,,,,,,,,,,,,,,,,,,,,,,,,,,,,,,,,
,,,p,1,1.2116,0,0.680772699,#f3af84,,right_orange.png,p,1,1,5,1,1,o,right_blue.png,right_orange.png,p,right,60fdbe8a13c3166287bfd402,001,2021-08-01_13h23.59.265,arrow_simon_norep,2021.1.2,Win32,60.32454606,,,,,,,,,,,,,,,,,,,,,,,,,,,,,,,,,,,,,,
,,,o,1,1.3744,0,0.422586089,#a3d0fb,,right_blue.png,o,1,2,6,0,1,o,right_blue.png,right_orange.png,p,left,60fdbe8a13c3166287bfd402,001,2021-08-01_13h23.59.265,arrow_simon_norep,2021.1.2,Win32,60.32454606,,,,,,,,,,,,,,,,,,,,,,,,,,,,,,,,,,,,,,
,,,q,1,1.3079,0,0.434240813,#f3af84,,left_orange.png,q,1,3,7,3,1,w,left_blue.png,left_orange.png,q,right,60fdbe8a13c3166287bfd402,001,2021-08-01_13h23.59.265,arrow_simon_norep,2021.1.2,Win32,60.32454606,,,,,,,,,,,,,,,,,,,,,,,,,,,,,,,,,,,,,,
,,,w,1,1.3301,0,0.671308094,#a3d0fb,,left_blue.png,w,2,0,8,2,1,w,left_blue.png,left_orange.png,q,left,60fdbe8a13c3166287bfd402,001,2021-08-01_13h23.59.265,arrow_simon_norep,2021.1.2,Win32,60.32454606,,,,,,,,,,,,,,,,,,,,,,,,,,,,,,,,,,,,,,
,,,p,1,1.3706,0,0.614555622,#f3af84,,right_orange.png,p,2,1,9,0,1,o,right_blue.png,right_orange.png,p,left,60fdbe8a13c3166287bfd402,001,2021-08-01_13h23.59.265,arrow_simon_norep,2021.1.2,Win32,60.32454606,,,,,,,,,,,,,,,,,,,,,,,,,,,,,,,,,,,,,,
,,,o,1,0.6854,0,0.07782328,#a3d0fb,,right_blue.png,o,2,2,10,1,1,o,right_blue.png,right_orange.png,p,right,60fdbe8a13c3166287bfd402,001,2021-08-01_13h23.59.265,arrow_simon_norep,2021.1.2,Win32,60.32454606,,,,,,,,,,,,,,,,,,,,,,,,,,,,,,,,,,,,,,
,,,p,1,0.7188,0,0.114103561,#f3af84,,right_orange.png,p,2,3,11,0,1,o,right_blue.png,right_orange.png,p,left,60fdbe8a13c3166287bfd402,001,2021-08-01_13h23.59.265,arrow_simon_norep,2021.1.2,Win32,60.32454606,,,,,,,,,,,,,,,,,,,,,,,,,,,,,,,,,,,,,,
,,,w,0,0.8598,1,0.451333797,#a3d0fb,,right_blue.png,o,3,0,12,0,1,o,right_blue.png,right_orange.png,p,left,60fdbe8a13c3166287bfd402,001,2021-08-01_13h23.59.265,arrow_simon_norep,2021.1.2,Win32,60.32454606,,,,,,,,,,,,,,,,,,,,,,,,,,,,,,,,,,,,,,
,,,p,1,1.4938,0,0.925200407,#f3af84,,right_orange.png,p,3,1,13,1,1,o,right_blue.png,right_orange.png,p,right,60fdbe8a13c3166287bfd402,001,2021-08-01_13h23.59.265,arrow_simon_norep,2021.1.2,Win32,60.32454606,,,,,,,,,,,,,,,,,,,,,,,,,,,,,,,,,,,,,,
,,,w,1,1.1696,0,0.679181633,#a3d0fb,,left_blue.png,w,3,2,14,3,1,w,left_blue.png,left_orange.png,q,right,60fdbe8a13c3166287bfd402,001,2021-08-01_13h23.59.265,arrow_simon_norep,2021.1.2,Win32,60.32454606,,,,,,,,,,,,,,,,,,,,,,,,,,,,,,,,,,,,,,
,,,q,1,0.938,0,0.280367247,#f3af84,,left_orange.png,q,3,3,15,2,1,w,left_blue.png,left_orange.png,q,left,60fdbe8a13c3166287bfd402,001,2021-08-01_13h23.59.265,arrow_simon_norep,2021.1.2,Win32,60.32454606,,,,,,,,,,,,,,,,,,,,,,,,,,,,,,,,,,,,,,
,,,w,1,1.7368,0,0.8816014,#a3d0fb,,left_blue.png,w,4,0,16,3,1,w,left_blue.png,left_orange.png,q,right,60fdbe8a13c3166287bfd402,001,2021-08-01_13h23.59.265,arrow_simon_norep,2021.1.2,Win32,60.32454606,,,,,,,,,,,,,,,,,,,,,,,,,,,,,,,,,,,,,,
,,,q,1,1.3105,0,0.670669736,#f3af84,,left_orange.png,q,4,1,17,3,1,w,left_blue.png,left_orange.png,q,right,60fdbe8a13c3166287bfd402,001,2021-08-01_13h23.59.265,arrow_simon_norep,2021.1.2,Win32,60.32454606,,,,,,,,,,,,,,,,,,,,,,,,,,,,,,,,,,,,,,
,,,w,1,1.4449,0,0.785793144,#a3d0fb,,left_blue.png,w,4,2,18,3,1,w,left_blue.png,left_orange.png,q,right,60fdbe8a13c3166287bfd402,001,2021-08-01_13h23.59.265,arrow_simon_norep,2021.1.2,Win32,60.32454606,,,,,,,,,,,,,,,,,,,,,,,,,,,,,,,,,,,,,,
,,,q,1,0.8519,0,0.295355342,#f3af84,,left_orange.png,q,4,3,19,3,1,w,left_blue.png,left_orange.png,q,right,60fdbe8a13c3166287bfd402,001,2021-08-01_13h23.59.265,arrow_simon_norep,2021.1.2,Win32,60.32454606,,,,,,,,,,,,,,,,,,,,,,,,,,,,,,,,,,,,,,
,,,o,1,0.7513,0,0.019379773,#a3d0fb,,right_blue.png,o,5,0,20,0,1,o,right_blue.png,right_orange.png,p,left,60fdbe8a13c3166287bfd402,001,2021-08-01_13h23.59.265,arrow_simon_norep,2021.1.2,Win32,60.32454606,,,,,,,,,,,,,,,,,,,,,,,,,,,,,,,,,,,,,,
,,,p,1,0.9856,0,0.133285082,#f3af84,,right_orange.png,p,5,1,21,1,1,o,right_blue.png,right_orange.png,p,right,60fdbe8a13c3166287bfd402,001,2021-08-01_13h23.59.265,arrow_simon_norep,2021.1.2,Win32,60.32454606,,,,,,,,,,,,,,,,,,,,,,,,,,,,,,,,,,,,,,
,,,o,1,0.6922,0,0.068085271,#a3d0fb,,right_blue.png,o,5,2,22,1,1,o,right_blue.png,right_orange.png,p,right,60fdbe8a13c3166287bfd402,001,2021-08-01_13h23.59.265,arrow_simon_norep,2021.1.2,Win32,60.32454606,,,,,,,,,,,,,,,,,,,,,,,,,,,,,,,,,,,,,,
,,,q,1,0.9187,0,0.501188221,#f3af84,,left_orange.png,q,5,3,23,3,1,w,left_blue.png,left_orange.png,q,right,60fdbe8a13c3166287bfd402,001,2021-08-01_13h23.59.265,arrow_simon_norep,2021.1.2,Win32,60.32454606,,,,,,,,,,,,,,,,,,,,,,,,,,,,,,,,,,,,,,
,,,o,1,1.5697,0,0.993846658,#a3d0fb,,right_blue.png,o,6,0,24,1,1,o,right_blue.png,right_orange.png,p,right,60fdbe8a13c3166287bfd402,001,2021-08-01_13h23.59.265,arrow_simon_norep,2021.1.2,Win32,60.32454606,,,,,,,,,,,,,,,,,,,,,,,,,,,,,,,,,,,,,,
,,,q,1,0.9923,0,0.556383223,#f3af84,,left_orange.png,q,6,1,25,3,1,w,left_blue.png,left_orange.png,q,right,60fdbe8a13c3166287bfd402,001,2021-08-01_13h23.59.265,arrow_simon_norep,2021.1.2,Win32,60.32454606,,,,,,,,,,,,,,,,,,,,,,,,,,,,,,,,,,,,,,
,,,o,1,0.5512,0,0.109413215,#a3d0fb,,right_blue.png,o,6,2,26,1,1,o,right_blue.png,right_orange.png,p,right,60fdbe8a13c3166287bfd402,001,2021-08-01_13h23.59.265,arrow_simon_norep,2021.1.2,Win32,60.32454606,,,,,,,,,,,,,,,,,,,,,,,,,,,,,,,,,,,,,,
,,,q,1,1.122,0,0.698722133,#f3af84,,left_orange.png,q,6,3,27,2,1,w,left_blue.png,left_orange.png,q,left,60fdbe8a13c3166287bfd402,001,2021-08-01_13h23.59.265,arrow_simon_norep,2021.1.2,Win32,60.32454606,,,,,,,,,,,,,,,,,,,,,,,,,,,,,,,,,,,,,,
,,,q,0,0.5932,1,0.093344147,#a3d0fb,,left_blue.png,w,7,0,28,2,1,w,left_blue.png,left_orange.png,q,left,60fdbe8a13c3166287bfd402,001,2021-08-01_13h23.59.265,arrow_simon_norep,2021.1.2,Win32,60.32454606,,,,,,,,,,,,,,,,,,,,,,,,,,,,,,,,,,,,,,
,,,p,1,0.7582,0,0.083718964,#f3af84,,right_orange.png,p,7,1,29,1,1,o,right_blue.png,right_orange.png,p,right,60fdbe8a13c3166287bfd402,001,2021-08-01_13h23.59.265,arrow_simon_norep,2021.1.2,Win32,60.32454606,,,,,,,,,,,,,,,,,,,,,,,,,,,,,,,,,,,,,,
,,,w,1,0.7718,0,0.064751954,#a3d0fb,,left_blue.png,w,7,2,30,2,1,w,left_blue.png,left_orange.png,q,left,60fdbe8a13c3166287bfd402,001,2021-08-01_13h23.59.265,arrow_simon_norep,2021.1.2,Win32,60.32454606,,,,,,,,,,,,,,,,,,,,,,,,,,,,,,,,,,,,,,
,,,p,1,0.9928,0,0.471535825,#f3af84,,right_orange.png,p,7,3,31,0,1,o,right_blue.png,right_orange.png,p,left,60fdbe8a13c3166287bfd402,001,2021-08-01_13h23.59.265,arrow_simon_norep,2021.1.2,Win32,60.32454606,,,,,,,,,,,,,,,,,,,,,,,,,,,,,,,,,,,,,,
,,,w,1,1.5198,0,0.920701689,#a3d0fb,,left_blue.png,w,8,0,32,3,1,w,left_blue.png,left_orange.png,q,right,60fdbe8a13c3166287bfd402,001,2021-08-01_13h23.59.265,arrow_simon_norep,2021.1.2,Win32,60.32454606,,,,,,,,,,,,,,,,,,,,,,,,,,,,,,,,,,,,,,
,,,p,1,1.553,0,0.9762526,#f3af84,,right_orange.png,p,8,1,33,0,1,o,right_blue.png,right_orange.png,p,left,60fdbe8a13c3166287bfd402,001,2021-08-01_13h23.59.265,arrow_simon_norep,2021.1.2,Win32,60.32454606,,,,,,,,,,,,,,,,,,,,,,,,,,,,,,,,,,,,,,
,,,w,1,0.7523,0,0.091158548,#a3d0fb,,left_blue.png,w,8,2,34,2,1,w,left_blue.png,left_orange.png,q,left,60fdbe8a13c3166287bfd402,001,2021-08-01_13h23.59.265,arrow_simon_norep,2021.1.2,Win32,60.32454606,,,,,,,,,,,,,,,,,,,,,,,,,,,,,,,,,,,,,,
,,,p,1,1.0861,0,0.490002829,#f3af84,,right_orange.png,p,8,3,35,0,1,o,right_blue.png,right_orange.png,p,left,60fdbe8a13c3166287bfd402,001,2021-08-01_13h23.59.265,arrow_simon_norep,2021.1.2,Win32,60.32454606,,,,,,,,,,,,,,,,,,,,,,,,,,,,,,,,,,,,,,
,,,o,1,0.7576,0,0.273747941,#a3d0fb,,right_blue.png,o,9,0,36,1,1,o,right_blue.png,right_orange.png,p,right,60fdbe8a13c3166287bfd402,001,2021-08-01_13h23.59.265,arrow_simon_norep,2021.1.2,Win32,60.32454606,,,,,,,,,,,,,,,,,,,,,,,,,,,,,,,,,,,,,,
,,,q,1,0.9196,0,0.533207237,#f3af84,,left_orange.png,q,9,1,37,2,1,w,left_blue.png,left_orange.png,q,left,60fdbe8a13c3166287bfd402,001,2021-08-01_13h23.59.265,arrow_simon_norep,2021.1.2,Win32,60.32454606,,,,,,,,,,,,,,,,,,,,,,,,,,,,,,,,,,,,,,
,,,o,1,0.936,0,0.410048611,#a3d0fb,,right_blue.png,o,9,2,38,0,1,o,right_blue.png,right_orange.png,p,left,60fdbe8a13c3166287bfd402,001,2021-08-01_13h23.59.265,arrow_simon_norep,2021.1.2,Win32,60.32454606,,,,,,,,,,,,,,,,,,,,,,,,,,,,,,,,,,,,,,
,,,q,1,0.9226,0,0.236135082,#f3af84,,left_orange.png,q,9,3,39,2,1,w,left_blue.png,left_orange.png,q,left,60fdbe8a13c3166287bfd402,001,2021-08-01_13h23.59.265,arrow_simon_norep,2021.1.2,Win32,60.32454606,,,,,,,,,,,,,,,,,,,,,,,,,,,,,,,,,,,,,,
,,,w,1,1.1939,0,0.608770193,#a3d0fb,,left_blue.png,w,10,0,40,3,1,w,left_blue.png,left_orange.png,q,right,60fdbe8a13c3166287bfd402,001,2021-08-01_13h23.59.265,arrow_simon_norep,2021.1.2,Win32,60.32454606,,,,,,,,,,,,,,,,,,,,,,,,,,,,,,,,,,,,,,
,,,q,1,0.6515,0,0.068266526,#f3af84,,left_orange.png,q,10,1,41,3,1,w,left_blue.png,left_orange.png,q,right,60fdbe8a13c3166287bfd402,001,2021-08-01_13h23.59.265,arrow_simon_norep,2021.1.2,Win32,60.32454606,,,,,,,,,,,,,,,,,,,,,,,,,,,,,,,,,,,,,,
,,,o,1,0.65,0,0.00513285,#a3d0fb,,right_blue.png,o,10,2,42,0,1,o,right_blue.png,right_orange.png,p,left,60fdbe8a13c3166287bfd402,001,2021-08-01_13h23.59.265,arrow_simon_norep,2021.1.2,Win32,60.32454606,,,,,,,,,,,,,,,,,,,,,,,,,,,,,,,,,,,,,,
,,,p,1,1.319,0,0.775190738,#f3af84,,right_orange.png,p,10,3,43,1,1,o,right_blue.png,right_orange.png,p,right,60fdbe8a13c3166287bfd402,001,2021-08-01_13h23.59.265,arrow_simon_norep,2021.1.2,Win32,60.32454606,,,,,,,,,,,,,,,,,,,,,,,,,,,,,,,,,,,,,,
,,,w,1,1.5292,0,0.549890332,#a3d0fb,,left_blue.png,w,11,0,44,2,1,w,left_blue.png,left_orange.png,q,left,60fdbe8a13c3166287bfd402,001,2021-08-01_13h23.59.265,arrow_simon_norep,2021.1.2,Win32,60.32454606,,,,,,,,,,,,,,,,,,,,,,,,,,,,,,,,,,,,,,
,,,q,1,0.5845,0,0.037381458,#f3af84,,left_orange.png,q,11,1,45,2,1,w,left_blue.png,left_orange.png,q,left,60fdbe8a13c3166287bfd402,001,2021-08-01_13h23.59.265,arrow_simon_norep,2021.1.2,Win32,60.32454606,,,,,,,,,,,,,,,,,,,,,,,,,,,,,,,,,,,,,,
,,,p,0,1.3854,1,0.966795499,#a3d0fb,,right_blue.png,o,11,2,46,1,1,o,right_blue.png,right_orange.png,p,right,60fdbe8a13c3166287bfd402,001,2021-08-01_13h23.59.265,arrow_simon_norep,2021.1.2,Win32,60.32454606,,,,,,,,,,,,,,,,,,,,,,,,,,,,,,,,,,,,,,
,,,p,1,1.1013,0,0.616084219,#f3af84,,right_orange.png,p,11,3,47,0,1,o,right_blue.png,right_orange.png,p,left,60fdbe8a13c3166287bfd402,001,2021-08-01_13h23.59.265,arrow_simon_norep,2021.1.2,Win32,60.32454606,,,,,,,,,,,,,,,,,,,,,,,,,,,,,,,,,,,,,,
,,,o,1,0.5617,0,0.097449025,#a3d0fb,,right_blue.png,o,12,0,48,0,1,o,right_blue.png,right_orange.png,p,left,60fdbe8a13c3166287bfd402,001,2021-08-01_13h23.59.265,arrow_simon_norep,2021.1.2,Win32,60.32454606,,,,,,,,,,,,,,,,,,,,,,,,,,,,,,,,,,,,,,
,,,w,0,1.4347,1,0.909477815,#f3af84,,left_orange.png,q,12,1,49,3,1,w,left_blue.png,left_orange.png,q,right,60fdbe8a13c3166287bfd402,001,2021-08-01_13h23.59.265,arrow_simon_norep,2021.1.2,Win32,60.32454606,,,,,,,,,,,,,,,,,,,,,,,,,,,,,,,,,,,,,,
,,,w,1,1.2869,0,0.647314676,#a3d0fb,,left_blue.png,w,12,2,50,2,1,w,left_blue.png,left_orange.png,q,left,60fdbe8a13c3166287bfd402,001,2021-08-01_13h23.59.265,arrow_simon_norep,2021.1.2,Win32,60.32454606,,,,,,,,,,,,,,,,,,,,,,,,,,,,,,,,,,,,,,
,,,p,1,1.0357,0,0.551557433,#f3af84,,right_orange.png,p,12,3,51,0,1,o,right_blue.png,right_orange.png,p,left,60fdbe8a13c3166287bfd402,001,2021-08-01_13h23.59.265,arrow_simon_norep,2021.1.2,Win32,60.32454606,,,,,,,,,,,,,,,,,,,,,,,,,,,,,,,,,,,,,,
,,,w,1,0.918,0,0.318837331,#a3d0fb,,left_blue.png,w,13,0,52,2,1,w,left_blue.png,left_orange.png,q,left,60fdbe8a13c3166287bfd402,001,2021-08-01_13h23.59.265,arrow_simon_norep,2021.1.2,Win32,60.32454606,,,,,,,,,,,,,,,,,,,,,,,,,,,,,,,,,,,,,,
,,,q,1,0.9951,0,0.198317078,#f3af84,,left_orange.png,q,13,1,53,2,1,w,left_blue.png,left_orange.png,q,left,60fdbe8a13c3166287bfd402,001,2021-08-01_13h23.59.265,arrow_simon_norep,2021.1.2,Win32,60.32454606,,,,,,,,,,,,,,,,,,,,,,,,,,,,,,,,,,,,,,
,,,w,1,1.2628,0,0.730028008,#a3d0fb,,left_blue.png,w,13,2,54,3,1,w,left_blue.png,left_orange.png,q,right,60fdbe8a13c3166287bfd402,001,2021-08-01_13h23.59.265,arrow_simon_norep,2021.1.2,Win32,60.32454606,,,,,,,,,,,,,,,,,,,,,,,,,,,,,,,,,,,,,,
,,,p,1,0.6082,0,0.102323602,#f3af84,,right_orange.png,p,13,3,55,1,1,o,right_blue.png,right_orange.png,p,right,60fdbe8a13c3166287bfd402,001,2021-08-01_13h23.59.265,arrow_simon_norep,2021.1.2,Win32,60.32454606,,,,,,,,,,,,,,,,,,,,,,,,,,,,,,,,,,,,,,
,,,o,1,1.2862,0,0.567049075,#a3d0fb,,right_blue.png,o,14,0,56,1,1,o,right_blue.png,right_orange.png,p,right,60fdbe8a13c3166287bfd402,001,2021-08-01_13h23.59.265,arrow_simon_norep,2021.1.2,Win32,60.32454606,,,,,,,,,,,,,,,,,,,,,,,,,,,,,,,,,,,,,,
,,,p,1,1.2597,0,0.759418093,#f3af84,,right_orange.png,p,14,1,57,1,1,o,right_blue.png,right_orange.png,p,right,60fdbe8a13c3166287bfd402,001,2021-08-01_13h23.59.265,arrow_simon_norep,2021.1.2,Win32,60.32454606,,,,,,,,,,,,,,,,,,,,,,,,,,,,,,,,,,,,,,
,,,w,1,0.6779,0,0.144884025,#a3d0fb,,left_blue.png,w,14,2,58,3,1,w,left_blue.png,left_orange.png,q,right,60fdbe8a13c3166287bfd402,001,2021-08-01_13h23.59.265,arrow_simon_norep,2021.1.2,Win32,60.32454606,,,,,,,,,,,,,,,,,,,,,,,,,,,,,,,,,,,,,,
,,,q,1,1.4779,0,0.834422908,#f3af84,,left_orange.png,q,14,3,59,2,1,w,left_blue.png,left_orange.png,q,left,60fdbe8a13c3166287bfd402,001,2021-08-01_13h23.59.265,arrow_simon_norep,2021.1.2,Win32,60.32454606,,,,,,,,,,,,,,,,,,,,,,,,,,,,,,,,,,,,,,
,,,,,,,,,,,,,,,,,,,,,,60fdbe8a13c3166287bfd402,001,2021-08-01_13h23.59.265,arrow_simon_norep,2021.1.2,Win32,60.32454606,space,5.8426,1,0,1,0,1,,,,,,,,,,,,,,,,,,,,,,,,,,,,,,,
,,,,,,,,,,,,,,,,,,,,,,60fdbe8a13c3166287bfd402,001,2021-08-01_13h23.59.265,arrow_simon_norep,2021.1.2,Win32,60.32454606,,,,,,,,space,0,46.1298,w,2.792,0,0,0,0,1,,,,,,,,,,,,,,,,,,,,,
,,,,,,,,,,,,,,,,,,,,,,60fdbe8a13c3166287bfd402,001,2021-08-01_13h23.59.265,arrow_simon_norep,2021.1.2,Win32,60.32454606,,,,,,,,,,,p,2.2092,1,0,1,0,1,,,,,,,,,,,,,,,,,,,,,
,,,,,,,,,,,,,,,,,,,,,,60fdbe8a13c3166287bfd402,001,2021-08-01_13h23.59.265,arrow_simon_norep,2021.1.2,Win32,60.32454606,,,,,,,,,,,o,2.5701,2,0,2,0,1,,,,,,,,,,,,,,,,,,,,,
,,,,,,,,,,,,,,,,,,,,,,60fdbe8a13c3166287bfd402,001,2021-08-01_13h23.59.265,arrow_simon_norep,2021.1.2,Win32,60.32454606,,,,,,,,,,,w,2.4058,3,0,3,0,1,,,,,,,,,,,,,,,,,,,,,
,,,,,,,,,,,,,,,,,,,,,,60fdbe8a13c3166287bfd402,001,2021-08-01_13h23.59.265,arrow_simon_norep,2021.1.2,Win32,60.32454606,,,,,,,,,,,p,2.4416,4,0,4,0,1,,,,,,,,,,,,,,,,,,,,,
,,,,,,,,,,,,,,,,,,,,,,60fdbe8a13c3166287bfd402,001,2021-08-01_13h23.59.265,arrow_simon_norep,2021.1.2,Win32,60.32454606,,,,,,,,,,,q,2.4407,5,0,5,0,1,,,,,,,,,,,,,,,,,,,,,
,,,,,,,,,,,,,,,,,,,,,,60fdbe8a13c3166287bfd402,001,2021-08-01_13h23.59.265,arrow_simon_norep,2021.1.2,Win32,60.32454606,,,,,,,,,,,o,2.4711,6,0,6,0,1,,,,,,,,,,,,,,,,,,,,,
,,,,,,,,,,,,,,,,,,,,,,60fdbe8a13c3166287bfd402,001,2021-08-01_13h23.59.265,arrow_simon_norep,2021.1.2,Win32,60.32454606,,,,,,,,,,,w,2.4467,7,0,7,0,1,,,,,,,,,,,,,,,,,,,,,
,,,,,,,,,,,,,,,,,,,,,,60fdbe8a13c3166287bfd402,001,2021-08-01_13h23.59.265,arrow_simon_norep,2021.1.2,Win32,60.32454606,,,,,,,,,,,p,2.5877,8,0,8,0,1,,,,,,,,,,,,,,,,,,,,,
,,,,,,,,,,,,,,,,,,,,,,60fdbe8a13c3166287bfd402,001,2021-08-01_13h23.59.265,arrow_simon_norep,2021.1.2,Win32,60.32454606,,,,,,,,,,,q,2.4656,9,0,9,0,1,,,,,,,,,,,,,,,,,,,,,
,,,,,,,,,,,,,,,,,,,,,,60fdbe8a13c3166287bfd402,001,2021-08-01_13h23.59.265,arrow_simon_norep,2021.1.2,Win32,60.32454606,,,,,,,,,,,o,2.5392,10,0,10,0,1,,,,,,,,,,,,,,,,,,,,,
,,,,,,,,,,,,,,,,,,,,,,60fdbe8a13c3166287bfd402,001,2021-08-01_13h23.59.265,arrow_simon_norep,2021.1.2,Win32,60.32454606,,,,,,,,,,,w,2.5883,11,0,11,0,1,,,,,,,,,,,,,,,,,,,,,
,,,,,,,,,,,,,,,,,,,,,,60fdbe8a13c3166287bfd402,001,2021-08-01_13h23.59.265,arrow_simon_norep,2021.1.2,Win32,60.32454606,,,,,,,,,,,p,2.445,12,0,12,0,1,,,,,,,,,,,,,,,,,,,,,
,,,,,,,,,,,,,,,,,,,,,,60fdbe8a13c3166287bfd402,001,2021-08-01_13h23.59.265,arrow_simon_norep,2021.1.2,Win32,60.32454606,,,,,,,,,,,q,2.5374,13,0,13,0,1,,,,,,,,,,,,,,,,,,,,,
,,,,,,,,,,,,,,,,,,,,,,60fdbe8a13c3166287bfd402,001,2021-08-01_13h23.59.265,arrow_simon_norep,2021.1.2,Win32,60.32454606,,,,,,,,,,,o,2.5546,14,0,14,0,1,,,,,,,,,,,,,,,,,,,,,
,,,,,,,,,,,,,,,,,,,,,,60fdbe8a13c3166287bfd402,001,2021-08-01_13h23.59.265,arrow_simon_norep,2021.1.2,Win32,60.32454606,,,,,,,,,,,w,2.6614,15,0,15,0,1,,,,,,,,,,,,,,,,,,,,,
,,,,,,,,,,,,,,,,,,,,,,60fdbe8a13c3166287bfd402,001,2021-08-01_13h23.59.265,arrow_simon_norep,2021.1.2,Win32,60.32454606,,,,,,,,,,,o,2.58,16,0,16,0,1,,,,,,,,,,,,,,,,,,,,,
,,,,,,,,,,,,,,,,,,,,,,60fdbe8a13c3166287bfd402,001,2021-08-01_13h23.59.265,arrow_simon_norep,2021.1.2,Win32,60.32454606,,,,,,,,,,,q,2.4222,17,0,17,0,1,,,,,,,,,,,,,,,,,,,,,
,,,,,,,,,,,,,,,,,,,,,,60fdbe8a13c3166287bfd402,001,2021-08-01_13h23.59.265,arrow_simon_norep,2021.1.2,Win32,60.32454606,,,,,,,,,,,w,2.6391,18,0,18,0,1,,,,,,,,,,,,,,,,,,,,,
,,,,,,,,,,,,,,,,,,,,,,60fdbe8a13c3166287bfd402,001,2021-08-01_13h23.59.265,arrow_simon_norep,2021.1.2,Win32,60.32454606,,,,,,,,,,,o,2.6033,19,0,19,0,1,,,,,,,,,,,,,,,,,,,,,
,,,,,,,,,,,,,,,,,,,,,,60fdbe8a13c3166287bfd402,001,2021-08-01_13h23.59.265,arrow_simon_norep,2021.1.2,Win32,60.32454606,,,,,,,,,,,w,2.5539,20,0,20,0,1,,,,,,,,,,,,,,,,,,,,,
,,,,,,,,,,,,,,,,,,,,,,60fdbe8a13c3166287bfd402,001,2021-08-01_13h23.59.265,arrow_simon_norep,2021.1.2,Win32,60.32454606,,,,,,,,,,,p,2.4124,21,0,21,0,1,,,,,,,,,,,,,,,,,,,,,
,,,,,,,,,,,,,,,,,,,,,,60fdbe8a13c3166287bfd402,001,2021-08-01_13h23.59.265,arrow_simon_norep,2021.1.2,Win32,60.32454606,,,,,,,,,,,q,2.5378,22,0,22,0,1,,,,,,,,,,,,,,,,,,,,,
,,,,,,,,,,,,,,,,,,,,,,60fdbe8a13c3166287bfd402,001,2021-08-01_13h23.59.265,arrow_simon_norep,2021.1.2,Win32,60.32454606,,,,,,,,,,,w,2.5551,23,0,23,0,1,,,,,,,,,,,,,,,,,,,,,
,,,,,,,,,,,,,,,,,,,,,,60fdbe8a13c3166287bfd402,001,2021-08-01_13h23.59.265,arrow_simon_norep,2021.1.2,Win32,60.32454606,,,,,,,,,,,o,2.5208,24,0,24,0,1,,,,,,,,,,,,,,,,,,,,,
,,,,,,,,,,,,,,,,,,,,,,60fdbe8a13c3166287bfd402,001,2021-08-01_13h23.59.265,arrow_simon_norep,2021.1.2,Win32,60.32454606,,,,,,,,,,,p,2.594,25,0,25,0,1,,,,,,,,,,,,,,,,,,,,,
,,,,,,,,,,,,,,,,,,,,,,60fdbe8a13c3166287bfd402,001,2021-08-01_13h23.59.265,arrow_simon_norep,2021.1.2,Win32,60.32454606,,,,,,,,,,,o,2.5734,26,0,26,0,1,,,,,,,,,,,,,,,,,,,,,
,,,,,,,,,,,,,,,,,,,,,,60fdbe8a13c3166287bfd402,001,2021-08-01_13h23.59.265,arrow_simon_norep,2021.1.2,Win32,60.32454606,,,,,,,,,,,w,2.4382,27,0,27,0,1,,,,,,,,,,,,,,,,,,,,,
,,,,,,,,,,,,,,,,,,,,,,60fdbe8a13c3166287bfd402,001,2021-08-01_13h23.59.265,arrow_simon_norep,2021.1.2,Win32,60.32454606,,,,,,,,,,,q,2.5868,28,0,28,0,1,,,,,,,,,,,,,,,,,,,,,
,,,,,,,,,,,,,,,,,,,,,,60fdbe8a13c3166287bfd402,001,2021-08-01_13h23.59.265,arrow_simon_norep,2021.1.2,Win32,60.32454606,,,,,,,,,,,p,2.5933,29,0,29,0,1,,,,,,,,,,,,,,,,,,,,,
,,,,,,,,,,,,,,,,,,,,,,60fdbe8a13c3166287bfd402,001,2021-08-01_13h23.59.265,arrow_simon_norep,2021.1.2,Win32,60.32454606,,,,,,,,,,,w,2.443,30,0,30,0,1,,,,,,,,,,,,,,,,,,,,,
,,,,,,,,,,,,,,,,,,,,,,60fdbe8a13c3166287bfd402,001,2021-08-01_13h23.59.265,arrow_simon_norep,2021.1.2,Win32,60.32454606,,,,,,,,,,,p,2.4534,31,0,31,0,1,,,,,,,,,,,,,,,,,,,,,
,,,,,,,,,,,,,,,,,,,,,,60fdbe8a13c3166287bfd402,001,2021-08-01_13h23.59.265,arrow_simon_norep,2021.1.2,Win32,60.32454606,,,,,,,,,,,o,2.5065,32,0,32,0,1,,,,,,,,,,,,,,,,,,,,,
,,,,,,,,,,,,,,,,,,,,,,60fdbe8a13c3166287bfd402,001,2021-08-01_13h23.59.265,arrow_simon_norep,2021.1.2,Win32,60.32454606,,,,,,,,,,,q,2.5863,33,0,33,0,1,,,,,,,,,,,,,,,,,,,,,
,,,,,,,,,,,,,,,,,,,,,,60fdbe8a13c3166287bfd402,001,2021-08-01_13h23.59.265,arrow_simon_norep,2021.1.2,Win32,60.32454606,,,,,,,,,,,o,2.4579,34,0,34,0,1,,,,,,,,,,,,,,,,,,,,,
,,,,,,,,,,,,,,,,,,,,,,60fdbe8a13c3166287bfd402,001,2021-08-01_13h23.59.265,arrow_simon_norep,2021.1.2,Win32,60.32454606,,,,,,,,,,,w,2.4046,35,0,35,0,1,,,,,,,,,,,,,,,,,,,,,
,,,,,,,,,,,,,,,,,,,,,,60fdbe8a13c3166287bfd402,001,2021-08-01_13h23.59.265,arrow_simon_norep,2021.1.2,Win32,60.32454606,,,,,,,,,,,o,2.5708,36,0,36,0,1,,,,,,,,,,,,,,,,,,,,,
,,,,,,,,,,,,,,,,,,,,,,60fdbe8a13c3166287bfd402,001,2021-08-01_13h23.59.265,arrow_simon_norep,2021.1.2,Win32,60.32454606,,,,,,,,,,,q,2.4406,37,0,37,0,1,,,,,,,,,,,,,,,,,,,,,
,,,,,,,,,,,,,,,,,,,,,,60fdbe8a13c3166287bfd402,001,2021-08-01_13h23.59.265,arrow_simon_norep,2021.1.2,Win32,60.32454606,,,,,,,,,,,o,2.4379,38,0,38,0,1,,,,,,,,,,,,,,,,,,,,,
,,,,,,,,,,,,,,,,,,,,,,60fdbe8a13c3166287bfd402,001,2021-08-01_13h23.59.265,arrow_simon_norep,2021.1.2,Win32,60.32454606,,,,,,,,,,,p,2.6708,39,0,39,0,1,,,,,,,,,,,,,,,,,,,,,
,,,,,,,,,,,,,,,,,,,,,,60fdbe8a13c3166287bfd402,001,2021-08-01_13h23.59.265,arrow_simon_norep,2021.1.2,Win32,60.32454606,,,,,,,,,,,w,2.6605,40,0,40,0,1,,,,,,,,,,,,,,,,,,,,,
,,,,,,,,,,,,,,,,,,,,,,60fdbe8a13c3166287bfd402,001,2021-08-01_13h23.59.265,arrow_simon_norep,2021.1.2,Win32,60.32454606,,,,,,,,,,,q,2.5947,41,0,41,0,1,,,,,,,,,,,,,,,,,,,,,
,,,,,,,,,,,,,,,,,,,,,,60fdbe8a13c3166287bfd402,001,2021-08-01_13h23.59.265,arrow_simon_norep,2021.1.2,Win32,60.32454606,,,,,,,,,,,o,2.5212,42,0,42,0,1,,,,,,,,,,,,,,,,,,,,,
,,,,,,,,,,,,,,,,,,,,,,60fdbe8a13c3166287bfd402,001,2021-08-01_13h23.59.265,arrow_simon_norep,2021.1.2,Win32,60.32454606,,,,,,,,,,,p,2.6096,43,0,43,0,1,,,,,,,,,,,,,,,,,,,,,
,,,,,,,,,,,,,,,,,,,,,,60fdbe8a13c3166287bfd402,001,2021-08-01_13h23.59.265,arrow_simon_norep,2021.1.2,Win32,60.32454606,,,,,,,,,,,w,2.6209,44,0,44,0,1,,,,,,,,,,,,,,,,,,,,,
,,,,,,,,,,,,,,,,,,,,,,60fdbe8a13c3166287bfd402,001,2021-08-01_13h23.59.265,arrow_simon_norep,2021.1.2,Win32,60.32454606,,,,,,,,,,,p,2.488,45,0,45,0,1,,,,,,,,,,,,,,,,,,,,,
,,,,,,,,,,,,,,,,,,,,,,60fdbe8a13c3166287bfd402,001,2021-08-01_13h23.59.265,arrow_simon_norep,2021.1.2,Win32,60.32454606,,,,,,,,,,,q,2.604,46,0,46,0,1,,,,,,,,,,,,,,,,,,,,,
,,,,,,,,,,,,,,,,,,,,,,60fdbe8a13c3166287bfd402,001,2021-08-01_13h23.59.265,arrow_simon_norep,2021.1.2,Win32,60.32454606,,,,,,,,,,,o,2.5883,47,0,47,0,1,,,,,,,,,,,,,,,,,,,,,
,,,,,,,,,,,,,,,,,,,,,,60fdbe8a13c3166287bfd402,001,2021-08-01_13h23.59.265,arrow_simon_norep,2021.1.2,Win32,60.32454606,,,,,,,,,,,w,2.4713,48,0,48,0,1,,,,,,,,,,,,,,,,,,,,,
,,,,,,,,,,,,,,,,,,,,,,60fdbe8a13c3166287bfd402,001,2021-08-01_13h23.59.265,arrow_simon_norep,2021.1.2,Win32,60.32454606,,,,,,,,,,,p,2.4747,49,0,49,0,1,,,,,,,,,,,,,,,,,,,,,
,,,,,,,,,,,,,,,,,,,,,,60fdbe8a13c3166287bfd402,001,2021-08-01_13h23.59.265,arrow_simon_norep,2021.1.2,Win32,60.32454606,,,,,,,,,,,w,2.4818,50,0,50,0,1,,,,,,,,,,,,,,,,,,,,,
,,,,,,,,,,,,,,,,,,,,,,60fdbe8a13c3166287bfd402,001,2021-08-01_13h23.59.265,arrow_simon_norep,2021.1.2,Win32,60.32454606,,,,,,,,,,,q,2.4077,51,0,51,0,1,,,,,,,,,,,,,,,,,,,,,
,,,,,,,,,,,,,,,,,,,,,,60fdbe8a13c3166287bfd402,001,2021-08-01_13h23.59.265,arrow_simon_norep,2021.1.2,Win32,60.32454606,,,,,,,,,,,o,2.5771,52,0,52,0,1,,,,,,,,,,,,,,,,,,,,,
,,,,,,,,,,,,,,,,,,,,,,60fdbe8a13c3166287bfd402,001,2021-08-01_13h23.59.265,arrow_simon_norep,2021.1.2,Win32,60.32454606,,,,,,,,,,,p,2.5477,53,0,53,0,1,,,,,,,,,,,,,,,,,,,,,
,,,,,,,,,,,,,,,,,,,,,,60fdbe8a13c3166287bfd402,001,2021-08-01_13h23.59.265,arrow_simon_norep,2021.1.2,Win32,60.32454606,,,,,,,,,,,w,2.4235,54,0,54,0,1,,,,,,,,,,,,,,,,,,,,,
,,,,,,,,,,,,,,,,,,,,,,60fdbe8a13c3166287bfd402,001,2021-08-01_13h23.59.265,arrow_simon_norep,2021.1.2,Win32,60.32454606,,,,,,,,,,,q,2.5218,55,0,55,0,1,,,,,,,,,,,,,,,,,,,,,
,,,,,,,,,,,,,,,,,,,,,,60fdbe8a13c3166287bfd402,001,2021-08-01_13h23.59.265,arrow_simon_norep,2021.1.2,Win32,60.32454606,,,,,,,,,,,o,2.5379,56,0,56,0,1,,,,,,,,,,,,,,,,,,,,,
,,,,,,,,,,,,,,,,,,,,,,60fdbe8a13c3166287bfd402,001,2021-08-01_13h23.59.265,arrow_simon_norep,2021.1.2,Win32,60.32454606,,,,,,,,,,,w,2.2091,57,0,57,0,1,,,,,,,,,,,,,,,,,,,,,
,,,,,,,,,,,,,,,,,,,,,,60fdbe8a13c3166287bfd402,001,2021-08-01_13h23.59.265,arrow_simon_norep,2021.1.2,Win32,60.32454606,,,,,,,,,,,o,2.5226,58,0,58,0,1,,,,,,,,,,,,,,,,,,,,,
,,,,,,,,,,,,,,,,,,,,,,60fdbe8a13c3166287bfd402,001,2021-08-01_13h23.59.265,arrow_simon_norep,2021.1.2,Win32,60.32454606,,,,,,,,,,,p,2.6214,59,0,59,0,1,,,,,,,,,,,,,,,,,,,,,
,,,,,,0,1.646856829,#a3d0fb,,left_blue.png,w,,,,,,w,left_blue.png,left_orange.png,q,left,60fdbe8a13c3166287bfd402,001,2021-08-01_13h23.59.265,arrow_simon_norep,2021.1.2,Win32,60.32454606,,,,,,,,,,,,,,,,,,space,0,255.4228,w,1,1.3468,1,FALSE,TRUE,0,0,0,2,1,,,,,,,
,,,,,,0,1.520524009,#f3af84,,left_orange.png,q,,,,,,w,left_blue.png,left_orange.png,q,left,60fdbe8a13c3166287bfd402,001,2021-08-01_13h23.59.265,arrow_simon_norep,2021.1.2,Win32,60.32454606,,,,,,,,,,,,,,,,,,,,,q,1,1.9604,2,TRUE,FALSE,0,1,1,2,1,,,,,,,
,,,,,,0,2.081066674,#a3d0fb,,left_blue.png,w,,,,,,w,left_blue.png,left_orange.png,q,left,60fdbe8a13c3166287bfd402,001,2021-08-01_13h23.59.265,arrow_simon_norep,2021.1.2,Win32,60.32454606,,,,,,,,,,,,,,,,,,,,,w,1,1.5545,3,FALSE,FALSE,0,2,2,2,1,,,,,,,
,,,,,,0,1.918471249,#f3af84,,left_orange.png,q,,,,,,w,left_blue.png,left_orange.png,q,right,60fdbe8a13c3166287bfd402,001,2021-08-01_13h23.59.265,arrow_simon_norep,2021.1.2,Win32,60.32454606,,,,,,,,,,,,,,,,,,,,,o,0,1.3128,4,FALSE,TRUE,0,3,3,3,1,,,,,,,
,,,,,,0,2.16252761,#a3d0fb,,right_blue.png,o,,,,,,o,right_blue.png,right_orange.png,p,left,60fdbe8a13c3166287bfd402,001,2021-08-01_13h23.59.265,arrow_simon_norep,2021.1.2,Win32,60.32454606,,,,,,,,,,,,,,,,,,,,,o,1,2.2545,5,TRUE,FALSE,1,0,4,0,1,,,,,,,
,,,,,,0,1.613288679,#f3af84,,left_orange.png,q,,,,,,w,left_blue.png,left_orange.png,q,right,60fdbe8a13c3166287bfd402,001,2021-08-01_13h23.59.265,arrow_simon_norep,2021.1.2,Win32,60.32454606,,,,,,,,,,,,,,,,,,,,,q,1,0.9707,6,FALSE,TRUE,1,1,5,3,1,,,,,,,
,,,,,,0,1.811760795,#a3d0fb,,left_blue.png,w,,,,,,w,left_blue.png,left_orange.png,q,left,60fdbe8a13c3166287bfd402,001,2021-08-01_13h23.59.265,arrow_simon_norep,2021.1.2,Win32,60.32454606,,,,,,,,,,,,,,,,,,,,,w,1,2.0885,7,TRUE,FALSE,1,2,6,2,1,,,,,,,
,,,,,,0,1.744985238,#f3af84,,right_orange.png,p,,,,,,o,right_blue.png,right_orange.png,p,right,60fdbe8a13c3166287bfd402,001,2021-08-01_13h23.59.265,arrow_simon_norep,2021.1.2,Win32,60.32454606,,,,,,,,,,,,,,,,,,,,,p,1,1.6122,8,TRUE,FALSE,1,3,7,1,1,,,,,,,
,,,,,,0,1.896532375,#a3d0fb,,right_blue.png,o,,,,,,o,right_blue.png,right_orange.png,p,right,60fdbe8a13c3166287bfd402,001,2021-08-01_13h23.59.265,arrow_simon_norep,2021.1.2,Win32,60.32454606,,,,,,,,,,,,,,,,,,,,,o,1,1.7577,9,TRUE,FALSE,2,0,8,1,1,,,,,,,
,,,,,,0,2.179482784,#f3af84,,right_orange.png,p,,,,,,o,right_blue.png,right_orange.png,p,left,60fdbe8a13c3166287bfd402,001,2021-08-01_13h23.59.265,arrow_simon_norep,2021.1.2,Win32,60.32454606,,,,,,,,,,,,,,,,,,,,,p,1,1.8405,10,TRUE,FALSE,2,1,9,0,1,,,,,,,
,,,,,,0,2.164393412,#a3d0fb,,left_blue.png,w,,,,,,w,left_blue.png,left_orange.png,q,right,60fdbe8a13c3166287bfd402,001,2021-08-01_13h23.59.265,arrow_simon_norep,2021.1.2,Win32,60.32454606,,,,,,,,,,,,,,,,,,,,,w,1,1.4881,11,FALSE,FALSE,2,2,10,3,1,,,,,,,
,,,,,,0,1.744031556,#f3af84,,right_orange.png,p,,,,,,o,right_blue.png,right_orange.png,p,right,60fdbe8a13c3166287bfd402,001,2021-08-01_13h23.59.265,arrow_simon_norep,2021.1.2,Win32,60.32454606,,,,,,,,,,,,,,,,,,,,,p,1,1.5204,12,FALSE,FALSE,2,3,11,1,1,,,,,,,
,,,,,,0,1.569822779,#a3d0fb,,left_blue.png,w,,,,,,w,left_blue.png,left_orange.png,q,right,60fdbe8a13c3166287bfd402,001,2021-08-01_13h23.59.265,arrow_simon_norep,2021.1.2,Win32,60.32454606,,,,,,,,,,,,,,,,,,,,,w,1,1.7062,13,TRUE,FALSE,3,0,12,3,1,,,,,,,
,,,,,,0,2.428176698,#f3af84,,left_orange.png,q,,,,,,w,left_blue.png,left_orange.png,q,right,60fdbe8a13c3166287bfd402,001,2021-08-01_13h23.59.265,arrow_simon_norep,2021.1.2,Win32,60.32454606,,,,,,,,,,,,,,,,,,,,,q,1,1.7198,14,TRUE,FALSE,3,1,13,3,1,,,,,,,
,,,,,,0,2.019741612,#a3d0fb,,left_blue.png,w,,,,,,w,left_blue.png,left_orange.png,q,left,60fdbe8a13c3166287bfd402,001,2021-08-01_13h23.59.265,arrow_simon_norep,2021.1.2,Win32,60.32454606,,,,,,,,,,,,,,,,,,,,,w,1,1.3712,15,FALSE,TRUE,3,2,14,2,1,,,,,,,
,,,,,,0,2.406854667,#f3af84,,left_orange.png,q,,,,,,w,left_blue.png,left_orange.png,q,left,60fdbe8a13c3166287bfd402,001,2021-08-01_13h23.59.265,arrow_simon_norep,2021.1.2,Win32,60.32454606,,,,,,,,,,,,,,,,,,,,,q,1,1.7536,16,TRUE,FALSE,3,3,15,2,1,,,,,,,
,,,,,,0,2.180139945,#a3d0fb,,left_blue.png,w,,,,,,w,left_blue.png,left_orange.png,q,left,60fdbe8a13c3166287bfd402,001,2021-08-01_13h23.59.265,arrow_simon_norep,2021.1.2,Win32,60.32454606,,,,,,,,,,,,,,,,,,,,,w,1,1.8261,17,TRUE,FALSE,4,0,16,2,1,,,,,,,
,,,,,,0,1.827260008,#f3af84,,left_orange.png,q,,,,,,w,left_blue.png,left_orange.png,q,right,60fdbe8a13c3166287bfd402,001,2021-08-01_13h23.59.265,arrow_simon_norep,2021.1.2,Win32,60.32454606,,,,,,,,,,,,,,,,,,,,,q,1,1.7218,18,TRUE,FALSE,4,1,17,3,1,,,,,,,
,,,,,,0,2.309559653,#a3d0fb,,right_blue.png,o,,,,,,o,right_blue.png,right_orange.png,p,right,60fdbe8a13c3166287bfd402,001,2021-08-01_13h23.59.265,arrow_simon_norep,2021.1.2,Win32,60.32454606,,,,,,,,,,,,,,,,,,,,,o,1,1.5581,19,FALSE,FALSE,4,2,18,1,1,,,,,,,
,,,,,,0,1.888685584,#f3af84,,left_orange.png,q,,,,,,w,left_blue.png,left_orange.png,q,left,60fdbe8a13c3166287bfd402,001,2021-08-01_13h23.59.265,arrow_simon_norep,2021.1.2,Win32,60.32454606,,,,,,,,,,,,,,,,,,,,,q,1,1.5221,20,FALSE,FALSE,4,3,19,2,1,,,,,,,
,,,,,,0,1.830468385,#a3d0fb,,right_blue.png,o,,,,,,o,right_blue.png,right_orange.png,p,left,60fdbe8a13c3166287bfd402,001,2021-08-01_13h23.59.265,arrow_simon_norep,2021.1.2,Win32,60.32454606,,,,,,,,,,,,,,,,,,,,,o,1,1.8544,21,TRUE,FALSE,5,0,20,0,1,,,,,,,
,,,,,,0,1.92665626,#f3af84,,left_orange.png,q,,,,,,w,left_blue.png,left_orange.png,q,left,60fdbe8a13c3166287bfd402,001,2021-08-01_13h23.59.265,arrow_simon_norep,2021.1.2,Win32,60.32454606,,,,,,,,,,,,,,,,,,,,,q,1,1.4918,22,FALSE,FALSE,5,1,21,2,1,,,,,,,
,,,,,,0,2.458880418,#a3d0fb,,right_blue.png,o,,,,,,o,right_blue.png,right_orange.png,p,left,60fdbe8a13c3166287bfd402,001,2021-08-01_13h23.59.265,arrow_simon_norep,2021.1.2,Win32,60.32454606,,,,,,,,,,,,,,,,,,,,,o,1,1.6091,23,TRUE,FALSE,5,2,22,0,1,,,,,,,
,,,,,,0,1.994832419,#f3af84,,left_orange.png,q,,,,,,w,left_blue.png,left_orange.png,q,right,60fdbe8a13c3166287bfd402,001,2021-08-01_13h23.59.265,arrow_simon_norep,2021.1.2,Win32,60.32454606,,,,,,,,,,,,,,,,,,,,,q,1,1.5079,24,FALSE,FALSE,5,3,23,3,1,,,,,,,
,,,,,,0,1.517681319,#a3d0fb,,left_blue.png,w,,,,,,w,left_blue.png,left_orange.png,q,left,60fdbe8a13c3166287bfd402,001,2021-08-01_13h23.59.265,arrow_simon_norep,2021.1.2,Win32,60.32454606,,,,,,,,,,,,,,,,,,,,,w,1,1.5296,25,FALSE,FALSE,6,0,24,2,1,,,,,,,
,,,,,,0,2.286130168,#f3af84,,left_orange.png,q,,,,,,w,left_blue.png,left_orange.png,q,left,60fdbe8a13c3166287bfd402,001,2021-08-01_13h23.59.265,arrow_simon_norep,2021.1.2,Win32,60.32454606,,,,,,,,,,,,,,,,,,,,,q,1,1.8714,26,TRUE,FALSE,6,1,25,2,1,,,,,,,
,,,,,,0,1.938381569,#a3d0fb,,right_blue.png,o,,,,,,o,right_blue.png,right_orange.png,p,right,60fdbe8a13c3166287bfd402,001,2021-08-01_13h23.59.265,arrow_simon_norep,2021.1.2,Win32,60.32454606,,,,,,,,,,,,,,,,,,,,,o,1,1.7047,27,TRUE,FALSE,6,2,26,1,1,,,,,,,
,,,,,,0,1.714360855,#f3af84,,right_orange.png,p,,,,,,o,right_blue.png,right_orange.png,p,right,60fdbe8a13c3166287bfd402,001,2021-08-01_13h23.59.265,arrow_simon_norep,2021.1.2,Win32,60.32454606,,,,,,,,,,,,,,,,,,,,,p,1,1.4655,28,FALSE,FALSE,6,3,27,1,1,,,,,,,
,,,,,,0,1.856744271,#a3d0fb,,left_blue.png,w,,,,,,w,left_blue.png,left_orange.png,q,left,60fdbe8a13c3166287bfd402,001,2021-08-01_13h23.59.265,arrow_simon_norep,2021.1.2,Win32,60.32454606,,,,,,,,,,,,,,,,,,,,,w,1,1.5202,29,FALSE,FALSE,7,0,28,2,1,,,,,,,
,,,,,,0,2.061657998,#f3af84,,right_orange.png,p,,,,,,o,right_blue.png,right_orange.png,p,left,60fdbe8a13c3166287bfd402,001,2021-08-01_13h23.59.265,arrow_simon_norep,2021.1.2,Win32,60.32454606,,,,,,,,,,,,,,,,,,,,,p,1,1.612,30,TRUE,FALSE,7,1,29,0,1,,,,,,,
,,,,,,0,1.856603779,#a3d0fb,,right_blue.png,o,,,,,,o,right_blue.png,right_orange.png,p,left,60fdbe8a13c3166287bfd402,001,2021-08-01_13h23.59.265,arrow_simon_norep,2021.1.2,Win32,60.32454606,,,,,,,,,,,,,,,,,,,,,o,1,1.6156,31,TRUE,FALSE,7,2,30,0,1,,,,,,,
,,,,,,0,2.012792719,#f3af84,,right_orange.png,p,,,,,,o,right_blue.png,right_orange.png,p,right,60fdbe8a13c3166287bfd402,001,2021-08-01_13h23.59.265,arrow_simon_norep,2021.1.2,Win32,60.32454606,,,,,,,,,,,,,,,,,,,,,p,1,1.5116,32,FALSE,FALSE,7,3,31,1,1,,,,,,,
,,,,,,0,1.748875782,#a3d0fb,,right_blue.png,o,,,,,,o,right_blue.png,right_orange.png,p,right,60fdbe8a13c3166287bfd402,001,2021-08-01_13h23.59.265,arrow_simon_norep,2021.1.2,Win32,60.32454606,,,,,,,,,,,,,,,,,,,,,o,1,1.5204,33,FALSE,FALSE,8,0,32,1,1,,,,,,,
,,,,,,0,1.864153326,#f3af84,,left_orange.png,q,,,,,,w,left_blue.png,left_orange.png,q,right,60fdbe8a13c3166287bfd402,001,2021-08-01_13h23.59.265,arrow_simon_norep,2021.1.2,Win32,60.32454606,,,,,,,,,,,,,,,,,,,,,q,1,1.5204,34,FALSE,FALSE,8,1,33,3,1,,,,,,,
,,,,,,0,1.912322668,#a3d0fb,,left_blue.png,w,,,,,,w,left_blue.png,left_orange.png,q,left,60fdbe8a13c3166287bfd402,001,2021-08-01_13h23.59.265,arrow_simon_norep,2021.1.2,Win32,60.32454606,,,,,,,,,,,,,,,,,,,,,w,1,1.5749,35,FALSE,FALSE,8,2,34,2,1,,,,,,,
,,,,,,0,1.9054721,#f3af84,,right_orange.png,p,,,,,,o,right_blue.png,right_orange.png,p,right,60fdbe8a13c3166287bfd402,001,2021-08-01_13h23.59.265,arrow_simon_norep,2021.1.2,Win32,60.32454606,,,,,,,,,,,,,,,,,,,,,p,1,1.5446,36,FALSE,FALSE,8,3,35,1,1,,,,,,,
,,,,,,1,2.286207219,#a3d0fb,,left_blue.png,w,,,,,,w,left_blue.png,left_orange.png,q,right,60fdbe8a13c3166287bfd402,001,2021-08-01_13h23.59.265,arrow_simon_norep,2021.1.2,Win32,60.32454606,,,,,,,,,,,,,,,,,,,,,o,0,1.5038,37,FALSE,FALSE,9,0,36,3,1,,,,,,,
,,,,,,1,1.961316624,#f3af84,,right_orange.png,p,,,,,,o,right_blue.png,right_orange.png,p,right,60fdbe8a13c3166287bfd402,001,2021-08-01_13h23.59.265,arrow_simon_norep,2021.1.2,Win32,60.32454606,,,,,,,,,,,,,,,,,,,,,p,1,1.6201,38,TRUE,FALSE,9,1,37,1,1,,,,,,,
,,,,,,1,1.702103484,#a3d0fb,,right_blue.png,o,,,,,,o,right_blue.png,right_orange.png,p,left,60fdbe8a13c3166287bfd402,001,2021-08-01_13h23.59.265,arrow_simon_norep,2021.1.2,Win32,60.32454606,,,,,,,,,,,,,,,,,,,,,o,1,1.7307,39,TRUE,FALSE,9,2,38,0,1,,,,,,,
,,,,,,0,2.115575593,#f3af84,,left_orange.png,q,,,,,,w,left_blue.png,left_orange.png,q,right,60fdbe8a13c3166287bfd402,001,2021-08-01_13h23.59.265,arrow_simon_norep,2021.1.2,Win32,60.32454606,,,,,,,,,,,,,,,,,,,,,q,1,1.558,40,FALSE,FALSE,9,3,39,3,1,,,,,,,
,,,,,,0,1.579317772,#a3d0fb,,right_blue.png,o,,,,,,o,right_blue.png,right_orange.png,p,right,60fdbe8a13c3166287bfd402,001,2021-08-01_13h23.59.265,arrow_simon_norep,2021.1.2,Win32,60.32454606,,,,,,,,,,,,,,,,,,,,,o,1,1.2709,41,FALSE,TRUE,10,0,40,1,1,,,,,,,
,,,,,,0,2.123930954,#f3af84,,right_orange.png,p,,,,,,o,right_blue.png,right_orange.png,p,left,60fdbe8a13c3166287bfd402,001,2021-08-01_13h23.59.265,arrow_simon_norep,2021.1.2,Win32,60.32454606,,,,,,,,,,,,,,,,,,,,,p,1,1.746,42,TRUE,FALSE,10,1,41,0,1,,,,,,,
,,,,,,0,1.871346102,#a3d0fb,,left_blue.png,w,,,,,,w,left_blue.png,left_orange.png,q,right,60fdbe8a13c3166287bfd402,001,2021-08-01_13h23.59.265,arrow_simon_norep,2021.1.2,Win32,60.32454606,,,,,,,,,,,,,,,,,,,,,w,1,1.86,43,TRUE,FALSE,10,2,42,3,1,,,,,,,
,,,,,,0,1.813918782,#f3af84,,left_orange.png,q,,,,,,w,left_blue.png,left_orange.png,q,right,60fdbe8a13c3166287bfd402,001,2021-08-01_13h23.59.265,arrow_simon_norep,2021.1.2,Win32,60.32454606,,,,,,,,,,,,,,,,,,,,,q,1,1.626,44,TRUE,FALSE,10,3,43,3,1,,,,,,,
,,,,,,0,2.319311806,#a3d0fb,,right_blue.png,o,,,,,,o,right_blue.png,right_orange.png,p,left,60fdbe8a13c3166287bfd402,001,2021-08-01_13h23.59.265,arrow_simon_norep,2021.1.2,Win32,60.32454606,,,,,,,,,,,,,,,,,,,,,o,1,1.655,45,TRUE,FALSE,11,0,44,0,1,,,,,,,
,,,,,,0,1.531862025,#f3af84,,right_orange.png,p,,,,,,o,right_blue.png,right_orange.png,p,left,60fdbe8a13c3166287bfd402,001,2021-08-01_13h23.59.265,arrow_simon_norep,2021.1.2,Win32,60.32454606,,,,,,,,,,,,,,,,,,,,,p,1,1.5042,46,FALSE,FALSE,11,1,45,0,1,,,,,,,
,,,,,,0,2.457765477,#a3d0fb,,right_blue.png,o,,,,,,o,right_blue.png,right_orange.png,p,left,60fdbe8a13c3166287bfd402,001,2021-08-01_13h23.59.265,arrow_simon_norep,2021.1.2,Win32,60.32454606,,,,,,,,,,,,,,,,,,,,,o,1,1.9197,47,TRUE,FALSE,11,2,46,0,1,,,,,,,
,,,,,,0,2.219136085,#f3af84,,right_orange.png,p,,,,,,o,right_blue.png,right_orange.png,p,right,60fdbe8a13c3166287bfd402,001,2021-08-01_13h23.59.265,arrow_simon_norep,2021.1.2,Win32,60.32454606,,,,,,,,,,,,,,,,,,,,,p,1,1.861,48,TRUE,FALSE,11,3,47,1,1,,,,,,,
,,,,,,0,1.922828767,#a3d0fb,,left_blue.png,w,,,,,,w,left_blue.png,left_orange.png,q,right,60fdbe8a13c3166287bfd402,001,2021-08-01_13h23.59.265,arrow_simon_norep,2021.1.2,Win32,60.32454606,,,,,,,,,,,,,,,,,,,,,w,1,1.4609,49,FALSE,FALSE,12,0,48,3,1,,,,,,,
,,,,,,0,1.914760355,#f3af84,,right_orange.png,p,,,,,,o,right_blue.png,right_orange.png,p,right,60fdbe8a13c3166287bfd402,001,2021-08-01_13h23.59.265,arrow_simon_norep,2021.1.2,Win32,60.32454606,,,,,,,,,,,,,,,,,,,,,p,1,1.4914,50,FALSE,FALSE,12,1,49,1,1,,,,,,,
,,,,,,0,1.958106793,#a3d0fb,,left_blue.png,w,,,,,,w,left_blue.png,left_orange.png,q,right,60fdbe8a13c3166287bfd402,001,2021-08-01_13h23.59.265,arrow_simon_norep,2021.1.2,Win32,60.32454606,,,,,,,,,,,,,,,,,,,,,w,1,1.6365,51,TRUE,FALSE,12,2,50,3,1,,,,,,,
,,,,,,0,1.890954105,#f3af84,,right_orange.png,p,,,,,,o,right_blue.png,right_orange.png,p,left,60fdbe8a13c3166287bfd402,001,2021-08-01_13h23.59.265,arrow_simon_norep,2021.1.2,Win32,60.32454606,,,,,,,,,,,,,,,,,,,,,p,1,1.5542,52,FALSE,FALSE,12,3,51,0,1,,,,,,,
,,,,,,0,1.779714326,#a3d0fb,,right_blue.png,o,,,,,,o,right_blue.png,right_orange.png,p,right,60fdbe8a13c3166287bfd402,001,2021-08-01_13h23.59.265,arrow_simon_norep,2021.1.2,Win32,60.32454606,,,,,,,,,,,,,,,,,,,,,o,1,1.3805,53,FALSE,TRUE,13,0,52,1,1,,,,,,,
,,,,,,0,2.364289051,#f3af84,,left_orange.png,q,,,,,,w,left_blue.png,left_orange.png,q,right,60fdbe8a13c3166287bfd402,001,2021-08-01_13h23.59.265,arrow_simon_norep,2021.1.2,Win32,60.32454606,,,,,,,,,,,,,,,,,,,,,p,0,1.639,54,TRUE,FALSE,13,1,53,3,1,,,,,,,
,,,,,,0,2.457427053,#a3d0fb,,left_blue.png,w,,,,,,w,left_blue.png,left_orange.png,q,left,60fdbe8a13c3166287bfd402,001,2021-08-01_13h23.59.265,arrow_simon_norep,2021.1.2,Win32,60.32454606,,,,,,,,,,,,,,,,,,,,,w,1,1.8229,55,TRUE,FALSE,13,2,54,2,1,,,,,,,
,,,,,,0,2.096838348,#f3af84,,right_orange.png,p,,,,,,o,right_blue.png,right_orange.png,p,left,60fdbe8a13c3166287bfd402,001,2021-08-01_13h23.59.265,arrow_simon_norep,2021.1.2,Win32,60.32454606,,,,,,,,,,,,,,,,,,,,,p,1,1.5578,56,FALSE,FALSE,13,3,55,0,1,,,,,,,
,,,,,,0,2.308501325,#a3d0fb,,right_blue.png,o,,,,,,o,right_blue.png,right_orange.png,p,left,60fdbe8a13c3166287bfd402,001,2021-08-01_13h23.59.265,arrow_simon_norep,2021.1.2,Win32,60.32454606,,,,,,,,,,,,,,,,,,,,,o,1,1.6369,57,TRUE,FALSE,14,0,56,0,1,,,,,,,
,,,,,,0,1.824080209,#f3af84,,right_orange.png,p,,,,,,o,right_blue.png,right_orange.png,p,left,60fdbe8a13c3166287bfd402,001,2021-08-01_13h23.59.265,arrow_simon_norep,2021.1.2,Win32,60.32454606,,,,,,,,,,,,,,,,,,,,,p,1,1.3226,58,FALSE,TRUE,14,1,57,0,1,,,,,,,
,,,,,,0,1.504190302,#a3d0fb,,left_blue.png,w,,,,,,w,left_blue.png,left_orange.png,q,left,60fdbe8a13c3166287bfd402,001,2021-08-01_13h23.59.265,arrow_simon_norep,2021.1.2,Win32,60.32454606,,,,,,,,,,,,,,,,,,,,,w,1,1.5877,59,FALSE,FALSE,14,2,58,2,1,,,,,,,
,,,,,,0,2.180550906,#f3af84,,right_orange.png,p,,,,,,o,right_blue.png,right_orange.png,p,right,60fdbe8a13c3166287bfd402,001,2021-08-01_13h23.59.265,arrow_simon_norep,2021.1.2,Win32,60.32454606,,,,,,,,,,,,,,,,,,,,,p,1,1.6651,60,TRUE,FALSE,14,3,59,1,1,,,,,,,
,,,,,,,,,,,,,,,,,,,,,,60fdbe8a13c3166287bfd402,001,2021-08-01_13h23.59.265,arrow_simon_norep,2021.1.2,Win32,60.32454606,,,,,,,,,,,,,,,,,,,,,,,,,,,,,,,,space,13.7373,0,0,0,0,1
,,,,,,1,2.207469213,#a3d0fb,,left_blue.png,w,,,,,,w,left_blue.png,left_orange.png,q,left,60fdbe8a13c3166287bfd402,001,2021-08-01_13h23.59.265,arrow_simon_norep,2021.1.2,Win32,60.32454606,,,,,,,,,,,,,,,,,,,,,q,0,1.4759,1,FALSE,FALSE,0,0,0,2,1,,,,,,,
,,,,,,1,1.743855638,#f3af84,,left_orange.png,q,,,,,,w,left_blue.png,left_orange.png,q,left,60fdbe8a13c3166287bfd402,001,2021-08-01_13h23.59.265,arrow_simon_norep,2021.1.2,Win32,60.32454606,,,,,,,,,,,,,,,,,,,,,q,1,1.2042,2,FALSE,TRUE,0,1,1,2,1,,,,,,,
,,,,,,1,2.018902077,#a3d0fb,,left_blue.png,w,,,,,,w,left_blue.png,left_orange.png,q,right,60fdbe8a13c3166287bfd402,001,2021-08-01_13h23.59.265,arrow_simon_norep,2021.1.2,Win32,60.32454606,,,,,,,,,,,,,,,,,,,,,o,0,1.3373,3,FALSE,TRUE,0,2,2,3,1,,,,,,,
,,,,,,1,2.392150747,#f3af84,,left_orange.png,q,,,,,,w,left_blue.png,left_orange.png,q,right,60fdbe8a13c3166287bfd402,001,2021-08-01_13h23.59.265,arrow_simon_norep,2021.1.2,Win32,60.32454606,,,,,,,,,,,,,,,,,,,,,p,0,1.6869,4,TRUE,FALSE,0,3,3,3,1,,,,,,,
,,,,,,1,2.11880721,#a3d0fb,,left_blue.png,w,,,,,,w,left_blue.png,left_orange.png,q,left,60fdbe8a13c3166287bfd402,001,2021-08-01_13h23.59.265,arrow_simon_norep,2021.1.2,Win32,60.32454606,,,,,,,,,,,,,,,,,,,,,w,1,1.6366,5,TRUE,FALSE,1,0,4,2,1,,,,,,,
,,,,,,0,1.982576549,#f3af84,,left_orange.png,q,,,,,,w,left_blue.png,left_orange.png,q,right,60fdbe8a13c3166287bfd402,001,2021-08-01_13h23.59.265,arrow_simon_norep,2021.1.2,Win32,60.32454606,,,,,,,,,,,,,,,,,,,,,q,1,1.4878,6,FALSE,FALSE,1,1,5,3,1,,,,,,,
,,,,,,1,2.134400065,#a3d0fb,,left_blue.png,w,,,,,,w,left_blue.png,left_orange.png,q,left,60fdbe8a13c3166287bfd402,001,2021-08-01_13h23.59.265,arrow_simon_norep,2021.1.2,Win32,60.32454606,,,,,,,,,,,,,,,,,,,,,q,0,1.5086,7,FALSE,FALSE,1,2,6,2,1,,,,,,,
,,,,,,1,2.288524093,#f3af84,,right_orange.png,p,,,,,,o,right_blue.png,right_orange.png,p,right,60fdbe8a13c3166287bfd402,001,2021-08-01_13h23.59.265,arrow_simon_norep,2021.1.2,Win32,60.32454606,,,,,,,,,,,,,,,,,,,,,p,1,1.7871,8,TRUE,FALSE,1,3,7,1,1,,,,,,,
,,,,,,1,1.553732126,#a3d0fb,,right_blue.png,o,,,,,,o,right_blue.png,right_orange.png,p,left,60fdbe8a13c3166287bfd402,001,2021-08-01_13h23.59.265,arrow_simon_norep,2021.1.2,Win32,60.32454606,,,,,,,,,,,,,,,,,,,,,o,1,1.0524,9,FALSE,TRUE,2,0,8,0,1,,,,,,,
,,,,,,1,1.68492273,#f3af84,,left_orange.png,q,,,,,,w,left_blue.png,left_orange.png,q,left,60fdbe8a13c3166287bfd402,001,2021-08-01_13h23.59.265,arrow_simon_norep,2021.1.2,Win32,60.32454606,,,,,,,,,,,,,,,,,,,,,q,1,1.2209,10,FALSE,TRUE,2,1,9,2,1,,,,,,,
,,,,,,1,2.149482038,#a3d0fb,,right_blue.png,o,,,,,,o,right_blue.png,right_orange.png,p,right,60fdbe8a13c3166287bfd402,001,2021-08-01_13h23.59.265,arrow_simon_norep,2021.1.2,Win32,60.32454606,,,,,,,,,,,,,,,,,,,,,o,1,1.8136,11,TRUE,FALSE,2,2,10,1,1,,,,,,,
,,,,,,1,2.048801969,#f3af84,,right_orange.png,p,,,,,,o,right_blue.png,right_orange.png,p,right,60fdbe8a13c3166287bfd402,001,2021-08-01_13h23.59.265,arrow_simon_norep,2021.1.2,Win32,60.32454606,,,,,,,,,,,,,,,,,,,,,p,1,1.613,12,TRUE,FALSE,2,3,11,1,1,,,,,,,
,,,,,,1,2.187393982,#a3d0fb,,right_blue.png,o,,,,,,o,right_blue.png,right_orange.png,p,right,60fdbe8a13c3166287bfd402,001,2021-08-01_13h23.59.265,arrow_simon_norep,2021.1.2,Win32,60.32454606,,,,,,,,,,,,,,,,,,,,,o,1,1.8236,13,TRUE,FALSE,3,0,12,1,1,,,,,,,
,,,,,,1,2.393777493,#f3af84,,right_orange.png,p,,,,,,o,right_blue.png,right_orange.png,p,right,60fdbe8a13c3166287bfd402,001,2021-08-01_13h23.59.265,arrow_simon_norep,2021.1.2,Win32,60.32454606,,,,,,,,,,,,,,,,,,,,,p,1,1.7602,14,TRUE,FALSE,3,1,13,1,1,,,,,,,
,,,,,,1,2.252841521,#a3d0fb,,right_blue.png,o,,,,,,o,right_blue.png,right_orange.png,p,left,60fdbe8a13c3166287bfd402,001,2021-08-01_13h23.59.265,arrow_simon_norep,2021.1.2,Win32,60.32454606,,,,,,,,,,,,,,,,,,,,,o,1,1.7043,15,TRUE,FALSE,3,2,14,0,1,,,,,,,
,,,,,,1,1.538407088,#f3af84,,left_orange.png,q,,,,,,w,left_blue.png,left_orange.png,q,right,60fdbe8a13c3166287bfd402,001,2021-08-01_13h23.59.265,arrow_simon_norep,2021.1.2,Win32,60.32454606,,,,,,,,,,,,,,,,,,,,,w,0,1.6474,16,TRUE,FALSE,3,3,15,3,1,,,,,,,
,,,,,,1,1.763182894,#a3d0fb,,right_blue.png,o,,,,,,o,right_blue.png,right_orange.png,p,right,60fdbe8a13c3166287bfd402,001,2021-08-01_13h23.59.265,arrow_simon_norep,2021.1.2,Win32,60.32454606,,,,,,,,,,,,,,,,,,,,,o,1,1.2472,17,FALSE,TRUE,4,0,16,1,1,,,,,,,
,,,,,,0,1.844197111,#f3af84,,left_orange.png,q,,,,,,w,left_blue.png,left_orange.png,q,right,60fdbe8a13c3166287bfd402,001,2021-08-01_13h23.59.265,arrow_simon_norep,2021.1.2,Win32,60.32454606,,,,,,,,,,,,,,,,,,,,,q,1,1.4316,18,FALSE,FALSE,4,1,17,3,1,,,,,,,
,,,,,,0,1.85808997,#a3d0fb,,left_blue.png,w,,,,,,w,left_blue.png,left_orange.png,q,right,60fdbe8a13c3166287bfd402,001,2021-08-01_13h23.59.265,arrow_simon_norep,2021.1.2,Win32,60.32454606,,,,,,,,,,,,,,,,,,,,,w,1,1.4377,19,FALSE,FALSE,4,2,18,3,1,,,,,,,
,,,,,,0,2.375083986,#f3af84,,right_orange.png,p,,,,,,o,right_blue.png,right_orange.png,p,left,60fdbe8a13c3166287bfd402,001,2021-08-01_13h23.59.265,arrow_simon_norep,2021.1.2,Win32,60.32454606,,,,,,,,,,,,,,,,,,,,,p,1,1.7926,20,TRUE,FALSE,4,3,19,0,1,,,,,,,
,,,,,,0,1.507231494,#a3d0fb,,left_blue.png,w,,,,,,w,left_blue.png,left_orange.png,q,left,60fdbe8a13c3166287bfd402,001,2021-08-01_13h23.59.265,arrow_simon_norep,2021.1.2,Win32,60.32454606,,,,,,,,,,,,,,,,,,,,,w,1,1.471,21,FALSE,FALSE,5,0,20,2,1,,,,,,,
,,,,,,1,2.476531493,#f3af84,,right_orange.png,p,,,,,,o,right_blue.png,right_orange.png,p,left,60fdbe8a13c3166287bfd402,001,2021-08-01_13h23.59.265,arrow_simon_norep,2021.1.2,Win32,60.32454606,,,,,,,,,,,,,,,,,,,,,q,0,1.551,22,FALSE,FALSE,5,1,21,0,1,,,,,,,
,,,,,,1,2.290087735,#a3d0fb,,left_blue.png,w,,,,,,w,left_blue.png,left_orange.png,q,left,60fdbe8a13c3166287bfd402,001,2021-08-01_13h23.59.265,arrow_simon_norep,2021.1.2,Win32,60.32454606,,,,,,,,,,,,,,,,,,,,,o,0,1.5238,23,FALSE,FALSE,5,2,22,2,1,,,,,,,
,,,,,,1,2.002153351,#f3af84,,left_orange.png,q,,,,,,w,left_blue.png,left_orange.png,q,left,60fdbe8a13c3166287bfd402,001,2021-08-01_13h23.59.265,arrow_simon_norep,2021.1.2,Win32,60.32454606,,,,,,,,,,,,,,,,,,,,,q,1,1.3874,24,FALSE,TRUE,5,3,23,2,1,,,,,,,
,,,,,,1,1.973005012,#a3d0fb,,right_blue.png,o,,,,,,o,right_blue.png,right_orange.png,p,left,60fdbe8a13c3166287bfd402,001,2021-08-01_13h23.59.265,arrow_simon_norep,2021.1.2,Win32,60.32454606,,,,,,,,,,,,,,,,,,,,,o,1,1.3945,25,FALSE,TRUE,6,0,24,0,1,,,,,,,
,,,,,,0,2.249582587,#f3af84,,right_orange.png,p,,,,,,o,right_blue.png,right_orange.png,p,left,60fdbe8a13c3166287bfd402,001,2021-08-01_13h23.59.265,arrow_simon_norep,2021.1.2,Win32,60.32454606,,,,,,,,,,,,,,,,,,,,,p,1,1.5954,26,FALSE,FALSE,6,1,25,0,1,,,,,,,
,,,,,,0,1.935295543,#a3d0fb,,left_blue.png,w,,,,,,w,left_blue.png,left_orange.png,q,right,60fdbe8a13c3166287bfd402,001,2021-08-01_13h23.59.265,arrow_simon_norep,2021.1.2,Win32,60.32454606,,,,,,,,,,,,,,,,,,,,,w,1,1.2549,27,FALSE,TRUE,6,2,26,3,1,,,,,,,
,,,,,,0,1.54868595,#f3af84,,right_orange.png,p,,,,,,o,right_blue.png,right_orange.png,p,left,60fdbe8a13c3166287bfd402,001,2021-08-01_13h23.59.265,arrow_simon_norep,2021.1.2,Win32,60.32454606,,,,,,,,,,,,,,,,,,,,,p,1,1.3865,28,FALSE,TRUE,6,3,27,0,1,,,,,,,
,,,,,,0,1.629424948,#a3d0fb,,left_blue.png,w,,,,,,w,left_blue.png,left_orange.png,q,left,60fdbe8a13c3166287bfd402,001,2021-08-01_13h23.59.265,arrow_simon_norep,2021.1.2,Win32,60.32454606,,,,,,,,,,,,,,,,,,,,,w,1,1.529,29,FALSE,FALSE,7,0,28,2,1,,,,,,,
,,,,,,0,1.582367421,#f3af84,,left_orange.png,q,,,,,,w,left_blue.png,left_orange.png,q,left,60fdbe8a13c3166287bfd402,001,2021-08-01_13h23.59.265,arrow_simon_norep,2021.1.2,Win32,60.32454606,,,,,,,,,,,,,,,,,,,,,q,1,1.6131,30,TRUE,FALSE,7,1,29,2,1,,,,,,,
,,,,,,0,2.488094331,#a3d0fb,,right_blue.png,o,,,,,,o,right_blue.png,right_orange.png,p,left,60fdbe8a13c3166287bfd402,001,2021-08-01_13h23.59.265,arrow_simon_norep,2021.1.2,Win32,60.32454606,,,,,,,,,,,,,,,,,,,,,o,1,1.7048,31,TRUE,FALSE,7,2,30,0,1,,,,,,,
,,,,,,1,1.56006872,#f3af84,,left_orange.png,q,,,,,,w,left_blue.png,left_orange.png,q,right,60fdbe8a13c3166287bfd402,001,2021-08-01_13h23.59.265,arrow_simon_norep,2021.1.2,Win32,60.32454606,,,,,,,,,,,,,,,,,,,,,w,0,1.5567,32,FALSE,FALSE,7,3,31,3,1,,,,,,,
,,,,,,0,1.982456801,#a3d0fb,,left_blue.png,w,,,,,,w,left_blue.png,left_orange.png,q,right,60fdbe8a13c3166287bfd402,001,2021-08-01_13h23.59.265,arrow_simon_norep,2021.1.2,Win32,60.32454606,,,,,,,,,,,,,,,,,,,,,w,1,1.5523,33,FALSE,FALSE,8,0,32,3,1,,,,,,,
,,,,,,0,1.832428136,#f3af84,,left_orange.png,q,,,,,,w,left_blue.png,left_orange.png,q,left,60fdbe8a13c3166287bfd402,001,2021-08-01_13h23.59.265,arrow_simon_norep,2021.1.2,Win32,60.32454606,,,,,,,,,,,,,,,,,,,,,q,1,1.4041,34,FALSE,FALSE,8,1,33,2,1,,,,,,,
,,,,,,0,2.382368357,#a3d0fb,,right_blue.png,o,,,,,,o,right_blue.png,right_orange.png,p,right,60fdbe8a13c3166287bfd402,001,2021-08-01_13h23.59.265,arrow_simon_norep,2021.1.2,Win32,60.32454606,,,,,,,,,,,,,,,,,,,,,o,1,1.6702,35,TRUE,FALSE,8,2,34,1,1,,,,,,,
,,,,,,0,2.125386552,#f3af84,,left_orange.png,q,,,,,,w,left_blue.png,left_orange.png,q,left,60fdbe8a13c3166287bfd402,001,2021-08-01_13h23.59.265,arrow_simon_norep,2021.1.2,Win32,60.32454606,,,,,,,,,,,,,,,,,,,,,q,1,1.5063,36,FALSE,FALSE,8,3,35,2,1,,,,,,,
,,,,,,0,2.212732688,#a3d0fb,,right_blue.png,o,,,,,,o,right_blue.png,right_orange.png,p,left,60fdbe8a13c3166287bfd402,001,2021-08-01_13h23.59.265,arrow_simon_norep,2021.1.2,Win32,60.32454606,,,,,,,,,,,,,,,,,,,,,o,1,1.6643,37,TRUE,FALSE,9,0,36,0,1,,,,,,,
,,,,,,0,1.531589632,#f3af84,,right_orange.png,p,,,,,,o,right_blue.png,right_orange.png,p,left,60fdbe8a13c3166287bfd402,001,2021-08-01_13h23.59.265,arrow_simon_norep,2021.1.2,Win32,60.32454606,,,,,,,,,,,,,,,,,,,,,p,1,1.4299,38,FALSE,FALSE,9,1,37,0,1,,,,,,,
,,,,,,0,1.894194509,#a3d0fb,,left_blue.png,w,,,,,,w,left_blue.png,left_orange.png,q,right,60fdbe8a13c3166287bfd402,001,2021-08-01_13h23.59.265,arrow_simon_norep,2021.1.2,Win32,60.32454606,,,,,,,,,,,,,,,,,,,,,w,1,1.3759,39,FALSE,TRUE,9,2,38,3,1,,,,,,,
,,,,,,0,1.84853309,#f3af84,,left_orange.png,q,,,,,,w,left_blue.png,left_orange.png,q,right,60fdbe8a13c3166287bfd402,001,2021-08-01_13h23.59.265,arrow_simon_norep,2021.1.2,Win32,60.32454606,,,,,,,,,,,,,,,,,,,,,q,1,1.4212,40,FALSE,FALSE,9,3,39,3,1,,,,,,,
,,,,,,0,1.548343271,#a3d0fb,,right_blue.png,o,,,,,,o,right_blue.png,right_orange.png,p,left,60fdbe8a13c3166287bfd402,001,2021-08-01_13h23.59.265,arrow_simon_norep,2021.1.2,Win32,60.32454606,,,,,,,,,,,,,,,,,,,,,o,1,1.563,41,FALSE,FALSE,10,0,40,0,1,,,,,,,
,,,,,,0,2.484709209,#f3af84,,left_orange.png,q,,,,,,w,left_blue.png,left_orange.png,q,left,60fdbe8a13c3166287bfd402,001,2021-08-01_13h23.59.265,arrow_simon_norep,2021.1.2,Win32,60.32454606,,,,,,,,,,,,,,,,,,,,,q,1,1.7277,42,TRUE,FALSE,10,1,41,2,1,,,,,,,
,,,,,,0,1.985003788,#a3d0fb,,right_blue.png,o,,,,,,o,right_blue.png,right_orange.png,p,right,60fdbe8a13c3166287bfd402,001,2021-08-01_13h23.59.265,arrow_simon_norep,2021.1.2,Win32,60.32454606,,,,,,,,,,,,,,,,,,,,,o,1,1.5873,43,FALSE,FALSE,10,2,42,1,1,,,,,,,
,,,,,,0,1.881533688,#f3af84,,right_orange.png,p,,,,,,o,right_blue.png,right_orange.png,p,right,60fdbe8a13c3166287bfd402,001,2021-08-01_13h23.59.265,arrow_simon_norep,2021.1.2,Win32,60.32454606,,,,,,,,,,,,,,,,,,,,,p,1,1.59,44,FALSE,FALSE,10,3,43,1,1,,,,,,,
,,,,,,0,2.428188801,#a3d0fb,,right_blue.png,o,,,,,,o,right_blue.png,right_orange.png,p,left,60fdbe8a13c3166287bfd402,001,2021-08-01_13h23.59.265,arrow_simon_norep,2021.1.2,Win32,60.32454606,,,,,,,,,,,,,,,,,,,,,w,0,1.6644,45,TRUE,FALSE,11,0,44,0,1,,,,,,,
,,,,,,0,2.220291371,#f3af84,,right_orange.png,p,,,,,,o,right_blue.png,right_orange.png,p,left,60fdbe8a13c3166287bfd402,001,2021-08-01_13h23.59.265,arrow_simon_norep,2021.1.2,Win32,60.32454606,,,,,,,,,,,,,,,,,,,,,p,1,1.6801,46,TRUE,FALSE,11,1,45,0,1,,,,,,,
,,,,,,0,2.29784284,#a3d0fb,,right_blue.png,o,,,,,,o,right_blue.png,right_orange.png,p,right,60fdbe8a13c3166287bfd402,001,2021-08-01_13h23.59.265,arrow_simon_norep,2021.1.2,Win32,60.32454606,,,,,,,,,,,,,,,,,,,,,o,1,1.5814,47,FALSE,FALSE,11,2,46,1,1,,,,,,,
,,,,,,0,2.194646673,#f3af84,,right_orange.png,p,,,,,,o,right_blue.png,right_orange.png,p,left,60fdbe8a13c3166287bfd402,001,2021-08-01_13h23.59.265,arrow_simon_norep,2021.1.2,Win32,60.32454606,,,,,,,,,,,,,,,,,,,,,p,1,1.62,48,TRUE,FALSE,11,3,47,0,1,,,,,,,
,,,,,,0,2.017240398,#a3d0fb,,left_blue.png,w,,,,,,w,left_blue.png,left_orange.png,q,left,60fdbe8a13c3166287bfd402,001,2021-08-01_13h23.59.265,arrow_simon_norep,2021.1.2,Win32,60.32454606,,,,,,,,,,,,,,,,,,,,,q,0,1.6712,49,TRUE,FALSE,12,0,48,2,1,,,,,,,
,,,,,,0,1.507327947,#f3af84,,right_orange.png,p,,,,,,o,right_blue.png,right_orange.png,p,right,60fdbe8a13c3166287bfd402,001,2021-08-01_13h23.59.265,arrow_simon_norep,2021.1.2,Win32,60.32454606,,,,,,,,,,,,,,,,,,,,,p,1,1.6946,50,TRUE,FALSE,12,1,49,1,1,,,,,,,
,,,,,,0,2.394518833,#a3d0fb,,left_blue.png,w,,,,,,w,left_blue.png,left_orange.png,q,right,60fdbe8a13c3166287bfd402,001,2021-08-01_13h23.59.265,arrow_simon_norep,2021.1.2,Win32,60.32454606,,,,,,,,,,,,,,,,,,,,,w,1,1.9036,51,TRUE,FALSE,12,2,50,3,1,,,,,,,
,,,,,,0,1.737044872,#f3af84,,left_orange.png,q,,,,,,w,left_blue.png,left_orange.png,q,left,60fdbe8a13c3166287bfd402,001,2021-08-01_13h23.59.265,arrow_simon_norep,2021.1.2,Win32,60.32454606,,,,,,,,,,,,,,,,,,,,,q,1,1.5305,52,FALSE,FALSE,12,3,51,2,1,,,,,,,
,,,,,,0,2.281876713,#a3d0fb,,left_blue.png,w,,,,,,w,left_blue.png,left_orange.png,q,right,60fdbe8a13c3166287bfd402,001,2021-08-01_13h23.59.265,arrow_simon_norep,2021.1.2,Win32,60.32454606,,,,,,,,,,,,,,,,,,,,,w,1,1.7538,53,TRUE,FALSE,13,0,52,3,1,,,,,,,
,,,,,,0,1.762335605,#f3af84,,left_orange.png,q,,,,,,w,left_blue.png,left_orange.png,q,right,60fdbe8a13c3166287bfd402,001,2021-08-01_13h23.59.265,arrow_simon_norep,2021.1.2,Win32,60.32454606,,,,,,,,,,,,,,,,,,,,,q,1,1.3945,54,FALSE,TRUE,13,1,53,3,1,,,,,,,
,,,,,,0,1.531029446,#a3d0fb,,right_blue.png,o,,,,,,o,right_blue.png,right_orange.png,p,left,60fdbe8a13c3166287bfd402,001,2021-08-01_13h23.59.265,arrow_simon_norep,2021.1.2,Win32,60.32454606,,,,,,,,,,,,,,,,,,,,,o,1,1.0602,55,FALSE,TRUE,13,2,54,0,1,,,,,,,
,,,,,,0,2.416635098,#f3af84,,right_orange.png,p,,,,,,o,right_blue.png,right_orange.png,p,right,60fdbe8a13c3166287bfd402,001,2021-08-01_13h23.59.265,arrow_simon_norep,2021.1.2,Win32,60.32454606,,,,,,,,,,,,,,,,,,,,,p,1,1.7727,56,TRUE,FALSE,13,3,55,1,1,,,,,,,
,,,,,,0,2.009503963,#a3d0fb,,left_blue.png,w,,,,,,w,left_blue.png,left_orange.png,q,right,60fdbe8a13c3166287bfd402,001,2021-08-01_13h23.59.265,arrow_simon_norep,2021.1.2,Win32,60.32454606,,,,,,,,,,,,,,,,,,,,,w,1,1.7035,57,TRUE,FALSE,14,0,56,3,1,,,,,,,
,,,,,,0,1.968284346,#f3af84,,right_orange.png,p,,,,,,o,right_blue.png,right_orange.png,p,right,60fdbe8a13c3166287bfd402,001,2021-08-01_13h23.59.265,arrow_simon_norep,2021.1.2,Win32,60.32454606,,,,,,,,,,,,,,,,,,,,,p,1,1.3241,58,FALSE,TRUE,14,1,57,1,1,,,,,,,
,,,,,,0,1.549775367,#a3d0fb,,right_blue.png,o,,,,,,o,right_blue.png,right_orange.png,p,right,60fdbe8a13c3166287bfd402,001,2021-08-01_13h23.59.265,arrow_simon_norep,2021.1.2,Win32,60.32454606,,,,,,,,,,,,,,,,,,,,,o,1,1.0407,59,FALSE,TRUE,14,2,58,1,1,,,,,,,
,,,,,,0,1.896560345,#f3af84,,right_orange.png,p,,,,,,o,right_blue.png,right_orange.png,p,right,60fdbe8a13c3166287bfd402,001,2021-08-01_13h23.59.265,arrow_simon_norep,2021.1.2,Win32,60.32454606,,,,,,,,,,,,,,,,,,,,,p,1,1.2373,60,FALSE,TRUE,14,3,59,1,1,,,,,,,
,,,,,,,,,,,,,,,,,,,,,,60fdbe8a13c3166287bfd402,001,2021-08-01_13h23.59.265,arrow_simon_norep,2021.1.2,Win32,60.32454606,,,,,,,,,,,,,,,,,,,,,,,,,,,,,,,,space,245.795,1,0,1,0,1
,,,,,,1,2.147139621,#a3d0fb,,right_blue.png,o,,,,,,o,right_blue.png,right_orange.png,p,right,60fdbe8a13c3166287bfd402,001,2021-08-01_13h23.59.265,arrow_simon_norep,2021.1.2,Win32,60.32454606,,,,,,,,,,,,,,,,,,,,,p,0,1.5539,1,FALSE,FALSE,0,0,0,1,1,,,,,,,
,,,,,,0,1.893714634,#f3af84,,right_orange.png,p,,,,,,o,right_blue.png,right_orange.png,p,right,60fdbe8a13c3166287bfd402,001,2021-08-01_13h23.59.265,arrow_simon_norep,2021.1.2,Win32,60.32454606,,,,,,,,,,,,,,,,,,,,,p,1,1.573,2,FALSE,FALSE,0,1,1,1,1,,,,,,,
,,,,,,0,2.192433669,#a3d0fb,,left_blue.png,w,,,,,,w,left_blue.png,left_orange.png,q,left,60fdbe8a13c3166287bfd402,001,2021-08-01_13h23.59.265,arrow_simon_norep,2021.1.2,Win32,60.32454606,,,,,,,,,,,,,,,,,,,,,w,1,1.4725,3,FALSE,FALSE,0,2,2,2,1,,,,,,,
,,,,,,0,1.919404269,#f3af84,,left_orange.png,q,,,,,,w,left_blue.png,left_orange.png,q,right,60fdbe8a13c3166287bfd402,001,2021-08-01_13h23.59.265,arrow_simon_norep,2021.1.2,Win32,60.32454606,,,,,,,,,,,,,,,,,,,,,q,1,1.4864,4,FALSE,FALSE,0,3,3,3,1,,,,,,,
,,,,,,0,1.590182492,#a3d0fb,,left_blue.png,w,,,,,,w,left_blue.png,left_orange.png,q,left,60fdbe8a13c3166287bfd402,001,2021-08-01_13h23.59.265,arrow_simon_norep,2021.1.2,Win32,60.32454606,,,,,,,,,,,,,,,,,,,,,w,1,1.4457,5,FALSE,FALSE,1,0,4,2,1,,,,,,,
,,,,,,0,2.022378817,#f3af84,,right_orange.png,p,,,,,,o,right_blue.png,right_orange.png,p,right,60fdbe8a13c3166287bfd402,001,2021-08-01_13h23.59.265,arrow_simon_norep,2021.1.2,Win32,60.32454606,,,,,,,,,,,,,,,,,,,,,p,1,1.3689,6,FALSE,TRUE,1,1,5,1,1,,,,,,,
,,,,,,1,2.277279745,#a3d0fb,,right_blue.png,o,,,,,,o,right_blue.png,right_orange.png,p,left,60fdbe8a13c3166287bfd402,001,2021-08-01_13h23.59.265,arrow_simon_norep,2021.1.2,Win32,60.32454606,,,,,,,,,,,,,,,,,,,,,w,0,1.5588,7,FALSE,FALSE,1,2,6,0,1,,,,,,,
,,,,,,1,2.041202961,#f3af84,,right_orange.png,p,,,,,,o,right_blue.png,right_orange.png,p,left,60fdbe8a13c3166287bfd402,001,2021-08-01_13h23.59.265,arrow_simon_norep,2021.1.2,Win32,60.32454606,,,,,,,,,,,,,,,,,,,,,p,1,1.6715,8,TRUE,FALSE,1,3,7,0,1,,,,,,,
,,,,,,1,1.651725009,#a3d0fb,,right_blue.png,o,,,,,,o,right_blue.png,right_orange.png,p,right,60fdbe8a13c3166287bfd402,001,2021-08-01_13h23.59.265,arrow_simon_norep,2021.1.2,Win32,60.32454606,,,,,,,,,,,,,,,,,,,,,o,1,1.3927,9,FALSE,TRUE,2,0,8,1,1,,,,,,,
,,,,,,0,1.766067307,#f3af84,,right_orange.png,p,,,,,,o,right_blue.png,right_orange.png,p,left,60fdbe8a13c3166287bfd402,001,2021-08-01_13h23.59.265,arrow_simon_norep,2021.1.2,Win32,60.32454606,,,,,,,,,,,,,,,,,,,,,p,1,1.5192,10,FALSE,FALSE,2,1,9,0,1,,,,,,,
,,,,,,0,1.513540791,#a3d0fb,,left_blue.png,w,,,,,,w,left_blue.png,left_orange.png,q,left,60fdbe8a13c3166287bfd402,001,2021-08-01_13h23.59.265,arrow_simon_norep,2021.1.2,Win32,60.32454606,,,,,,,,,,,,,,,,,,,,,w,1,1.5048,11,FALSE,FALSE,2,2,10,2,1,,,,,,,
,,,,,,0,2.027802051,#f3af84,,left_orange.png,q,,,,,,w,left_blue.png,left_orange.png,q,right,60fdbe8a13c3166287bfd402,001,2021-08-01_13h23.59.265,arrow_simon_norep,2021.1.2,Win32,60.32454606,,,,,,,,,,,,,,,,,,,,,q,1,1.7548,12,TRUE,FALSE,2,3,11,3,1,,,,,,,
,,,,,,0,2.05348588,#a3d0fb,,right_blue.png,o,,,,,,o,right_blue.png,right_orange.png,p,right,60fdbe8a13c3166287bfd402,001,2021-08-01_13h23.59.265,arrow_simon_norep,2021.1.2,Win32,60.32454606,,,,,,,,,,,,,,,,,,,,,o,1,1.5928,13,FALSE,FALSE,3,0,12,1,1,,,,,,,
,,,,,,0,1.734078251,#f3af84,,left_orange.png,q,,,,,,w,left_blue.png,left_orange.png,q,right,60fdbe8a13c3166287bfd402,001,2021-08-01_13h23.59.265,arrow_simon_norep,2021.1.2,Win32,60.32454606,,,,,,,,,,,,,,,,,,,,,q,1,1.4876,14,FALSE,FALSE,3,1,13,3,1,,,,,,,
,,,,,,0,1.985745978,#a3d0fb,,left_blue.png,w,,,,,,w,left_blue.png,left_orange.png,q,right,60fdbe8a13c3166287bfd402,001,2021-08-01_13h23.59.265,arrow_simon_norep,2021.1.2,Win32,60.32454606,,,,,,,,,,,,,,,,,,,,,w,1,1.6556,15,TRUE,FALSE,3,2,14,3,1,,,,,,,
,,,,,,0,2.051475785,#f3af84,,right_orange.png,p,,,,,,o,right_blue.png,right_orange.png,p,right,60fdbe8a13c3166287bfd402,001,2021-08-01_13h23.59.265,arrow_simon_norep,2021.1.2,Win32,60.32454606,,,,,,,,,,,,,,,,,,,,,p,1,1.7369,16,TRUE,FALSE,3,3,15,1,1,,,,,,,
,,,,,,0,2.395687117,#a3d0fb,,left_blue.png,w,,,,,,w,left_blue.png,left_orange.png,q,left,60fdbe8a13c3166287bfd402,001,2021-08-01_13h23.59.265,arrow_simon_norep,2021.1.2,Win32,60.32454606,,,,,,,,,,,,,,,,,,,,,w,1,1.708,17,TRUE,FALSE,4,0,16,2,1,,,,,,,
,,,,,,0,1.900275308,#f3af84,,left_orange.png,q,,,,,,w,left_blue.png,left_orange.png,q,right,60fdbe8a13c3166287bfd402,001,2021-08-01_13h23.59.265,arrow_simon_norep,2021.1.2,Win32,60.32454606,,,,,,,,,,,,,,,,,,,,,q,1,1.5196,18,FALSE,FALSE,4,1,17,3,1,,,,,,,
,,,,,,0,2.153790821,#a3d0fb,,left_blue.png,w,,,,,,w,left_blue.png,left_orange.png,q,left,60fdbe8a13c3166287bfd402,001,2021-08-01_13h23.59.265,arrow_simon_norep,2021.1.2,Win32,60.32454606,,,,,,,,,,,,,,,,,,,,,w,1,1.5656,19,FALSE,FALSE,4,2,18,2,1,,,,,,,
,,,,,,0,2.227669053,#f3af84,,right_orange.png,p,,,,,,o,right_blue.png,right_orange.png,p,left,60fdbe8a13c3166287bfd402,001,2021-08-01_13h23.59.265,arrow_simon_norep,2021.1.2,Win32,60.32454606,,,,,,,,,,,,,,,,,,,,,p,1,1.7872,20,TRUE,FALSE,4,3,19,0,1,,,,,,,
,,,,,,0,2.432701601,#a3d0fb,,left_blue.png,w,,,,,,w,left_blue.png,left_orange.png,q,left,60fdbe8a13c3166287bfd402,001,2021-08-01_13h23.59.265,arrow_simon_norep,2021.1.2,Win32,60.32454606,,,,,,,,,,,,,,,,,,,,,o,0,1.7138,21,TRUE,FALSE,5,0,20,2,1,,,,,,,
,,,,,,0,1.72444853,#f3af84,,left_orange.png,q,,,,,,w,left_blue.png,left_orange.png,q,left,60fdbe8a13c3166287bfd402,001,2021-08-01_13h23.59.265,arrow_simon_norep,2021.1.2,Win32,60.32454606,,,,,,,,,,,,,,,,,,,,,q,1,1.4075,22,FALSE,FALSE,5,1,21,2,1,,,,,,,
,,,,,,0,2.406270202,#a3d0fb,,left_blue.png,w,,,,,,w,left_blue.png,left_orange.png,q,left,60fdbe8a13c3166287bfd402,001,2021-08-01_13h23.59.265,arrow_simon_norep,2021.1.2,Win32,60.32454606,,,,,,,,,,,,,,,,,,,,,w,1,1.7125,23,TRUE,FALSE,5,2,22,2,1,,,,,,,
,,,,,,0,2.43193258,#f3af84,,left_orange.png,q,,,,,,w,left_blue.png,left_orange.png,q,left,60fdbe8a13c3166287bfd402,001,2021-08-01_13h23.59.265,arrow_simon_norep,2021.1.2,Win32,60.32454606,,,,,,,,,,,,,,,,,,,,,p,0,1.7412,24,TRUE,FALSE,5,3,23,2,1,,,,,,,
,,,,,,0,2.296027595,#a3d0fb,,left_blue.png,w,,,,,,w,left_blue.png,left_orange.png,q,right,60fdbe8a13c3166287bfd402,001,2021-08-01_13h23.59.265,arrow_simon_norep,2021.1.2,Win32,60.32454606,,,,,,,,,,,,,,,,,,,,,w,1,1.777,25,TRUE,FALSE,6,0,24,3,1,,,,,,,
,,,,,,0,1.663364194,#f3af84,,right_orange.png,p,,,,,,o,right_blue.png,right_orange.png,p,left,60fdbe8a13c3166287bfd402,001,2021-08-01_13h23.59.265,arrow_simon_norep,2021.1.2,Win32,60.32454606,,,,,,,,,,,,,,,,,,,,,p,1,1.4358,26,FALSE,FALSE,6,1,25,0,1,,,,,,,
,,,,,,0,1.57034886,#a3d0fb,,right_blue.png,o,,,,,,o,right_blue.png,right_orange.png,p,left,60fdbe8a13c3166287bfd402,001,2021-08-01_13h23.59.265,arrow_simon_norep,2021.1.2,Win32,60.32454606,,,,,,,,,,,,,,,,,,,,,o,1,1.4596,27,FALSE,FALSE,6,2,26,0,1,,,,,,,
,,,,,,0,2.461508868,#f3af84,,right_orange.png,p,,,,,,o,right_blue.png,right_orange.png,p,left,60fdbe8a13c3166287bfd402,001,2021-08-01_13h23.59.265,arrow_simon_norep,2021.1.2,Win32,60.32454606,,,,,,,,,,,,,,,,,,,,,p,1,1.6757,28,TRUE,FALSE,6,3,27,0,1,,,,,,,
,,,,,,0,1.815461443,#a3d0fb,,right_blue.png,o,,,,,,o,right_blue.png,right_orange.png,p,left,60fdbe8a13c3166287bfd402,001,2021-08-01_13h23.59.265,arrow_simon_norep,2021.1.2,Win32,60.32454606,,,,,,,,,,,,,,,,,,,,,o,1,1.5067,29,FALSE,FALSE,7,0,28,0,1,,,,,,,
,,,,,,0,1.617570032,#f3af84,,right_orange.png,p,,,,,,o,right_blue.png,right_orange.png,p,left,60fdbe8a13c3166287bfd402,001,2021-08-01_13h23.59.265,arrow_simon_norep,2021.1.2,Win32,60.32454606,,,,,,,,,,,,,,,,,,,,,p,1,1.4966,30,FALSE,FALSE,7,1,29,0,1,,,,,,,
,,,,,,0,1.661843508,#a3d0fb,,right_blue.png,o,,,,,,o,right_blue.png,right_orange.png,p,right,60fdbe8a13c3166287bfd402,001,2021-08-01_13h23.59.265,arrow_simon_norep,2021.1.2,Win32,60.32454606,,,,,,,,,,,,,,,,,,,,,o,1,1.423,31,FALSE,FALSE,7,2,30,1,1,,,,,,,
,,,,,,0,1.851210756,#f3af84,,left_orange.png,q,,,,,,w,left_blue.png,left_orange.png,q,right,60fdbe8a13c3166287bfd402,001,2021-08-01_13h23.59.265,arrow_simon_norep,2021.1.2,Win32,60.32454606,,,,,,,,,,,,,,,,,,,,,q,1,1.5924,32,FALSE,FALSE,7,3,31,3,1,,,,,,,
,,,,,,0,2.474290198,#a3d0fb,,left_blue.png,w,,,,,,w,left_blue.png,left_orange.png,q,right,60fdbe8a13c3166287bfd402,001,2021-08-01_13h23.59.265,arrow_simon_norep,2021.1.2,Win32,60.32454606,,,,,,,,,,,,,,,,,,,,,w,1,1.6867,33,TRUE,FALSE,8,0,32,3,1,,,,,,,
,,,,,,0,1.726745092,#f3af84,,left_orange.png,q,,,,,,w,left_blue.png,left_orange.png,q,right,60fdbe8a13c3166287bfd402,001,2021-08-01_13h23.59.265,arrow_simon_norep,2021.1.2,Win32,60.32454606,,,,,,,,,,,,,,,,,,,,,q,1,1.4823,34,FALSE,FALSE,8,1,33,3,1,,,,,,,
,,,,,,0,1.608709183,#a3d0fb,,right_blue.png,o,,,,,,o,right_blue.png,right_orange.png,p,left,60fdbe8a13c3166287bfd402,001,2021-08-01_13h23.59.265,arrow_simon_norep,2021.1.2,Win32,60.32454606,,,,,,,,,,,,,,,,,,,,,o,1,1.3769,35,FALSE,TRUE,8,2,34,0,1,,,,,,,
,,,,,,0,2.278806721,#f3af84,,left_orange.png,q,,,,,,w,left_blue.png,left_orange.png,q,right,60fdbe8a13c3166287bfd402,001,2021-08-01_13h23.59.265,arrow_simon_norep,2021.1.2,Win32,60.32454606,,,,,,,,,,,,,,,,,,,,,q,1,7.3964,36,TRUE,FALSE,8,3,35,3,1,,,,,,,
,,,,,,0,2.024779367,#a3d0fb,,right_blue.png,o,,,,,,o,right_blue.png,right_orange.png,p,left,60fdbe8a13c3166287bfd402,001,2021-08-01_13h23.59.265,arrow_simon_norep,2021.1.2,Win32,60.32454606,,,,,,,,,,,,,,,,,,,,,o,1,2.7649,37,TRUE,FALSE,9,0,36,0,1,,,,,,,
,,,,,,0,2.407983825,#f3af84,,left_orange.png,q,,,,,,w,left_blue.png,left_orange.png,q,left,60fdbe8a13c3166287bfd402,001,2021-08-01_13h23.59.265,arrow_simon_norep,2021.1.2,Win32,60.32454606,,,,,,,,,,,,,,,,,,,,,q,1,2.0063,38,TRUE,FALSE,9,1,37,2,1,,,,,,,
,,,,,,0,1.662636934,#a3d0fb,,right_blue.png,o,,,,,,o,right_blue.png,right_orange.png,p,left,60fdbe8a13c3166287bfd402,001,2021-08-01_13h23.59.265,arrow_simon_norep,2021.1.2,Win32,60.32454606,,,,,,,,,,,,,,,,,,,,,o,1,1.6296,39,TRUE,FALSE,9,2,38,0,1,,,,,,,
,,,,,,0,1.517701568,#f3af84,,right_orange.png,p,,,,,,o,right_blue.png,right_orange.png,p,right,60fdbe8a13c3166287bfd402,001,2021-08-01_13h23.59.265,arrow_simon_norep,2021.1.2,Win32,60.32454606,,,,,,,,,,,,,,,,,,,,,p,1,1.7899,40,TRUE,FALSE,9,3,39,1,1,,,,,,,
,,,,,,0,1.592850937,#a3d0fb,,left_blue.png,w,,,,,,w,left_blue.png,left_orange.png,q,left,60fdbe8a13c3166287bfd402,001,2021-08-01_13h23.59.265,arrow_simon_norep,2021.1.2,Win32,60.32454606,,,,,,,,,,,,,,,,,,,,,q,0,0.945,41,FALSE,TRUE,10,0,40,2,1,,,,,,,
,,,,,,0,1.556936325,#f3af84,,left_orange.png,q,,,,,,w,left_blue.png,left_orange.png,q,right,60fdbe8a13c3166287bfd402,001,2021-08-01_13h23.59.265,arrow_simon_norep,2021.1.2,Win32,60.32454606,,,,,,,,,,,,,,,,,,,,,q,1,2.1256,42,TRUE,FALSE,10,1,41,3,1,,,,,,,
,,,,,,0,2.368682816,#a3d0fb,,left_blue.png,w,,,,,,w,left_blue.png,left_orange.png,q,left,60fdbe8a13c3166287bfd402,001,2021-08-01_13h23.59.265,arrow_simon_norep,2021.1.2,Win32,60.32454606,,,,,,,,,,,,,,,,,,,,,w,1,1.9117,43,TRUE,FALSE,10,2,42,2,1,,,,,,,
,,,,,,0,1.842046067,#f3af84,,left_orange.png,q,,,,,,w,left_blue.png,left_orange.png,q,right,60fdbe8a13c3166287bfd402,001,2021-08-01_13h23.59.265,arrow_simon_norep,2021.1.2,Win32,60.32454606,,,,,,,,,,,,,,,,,,,,,q,1,1.6616,44,TRUE,FALSE,10,3,43,3,1,,,,,,,
,,,,,,0,1.806342214,#a3d0fb,,right_blue.png,o,,,,,,o,right_blue.png,right_orange.png,p,right,60fdbe8a13c3166287bfd402,001,2021-08-01_13h23.59.265,arrow_simon_norep,2021.1.2,Win32,60.32454606,,,,,,,,,,,,,,,,,,,,,o,1,1.4376,45,FALSE,FALSE,11,0,44,1,1,,,,,,,
,,,,,,0,2.079936035,#f3af84,,right_orange.png,p,,,,,,o,right_blue.png,right_orange.png,p,right,60fdbe8a13c3166287bfd402,001,2021-08-01_13h23.59.265,arrow_simon_norep,2021.1.2,Win32,60.32454606,,,,,,,,,,,,,,,,,,,,,p,1,1.8613,46,TRUE,FALSE,11,1,45,1,1,,,,,,,
,,,,,,0,2.405877697,#a3d0fb,,left_blue.png,w,,,,,,w,left_blue.png,left_orange.png,q,left,60fdbe8a13c3166287bfd402,001,2021-08-01_13h23.59.265,arrow_simon_norep,2021.1.2,Win32,60.32454606,,,,,,,,,,,,,,,,,,,,,w,1,2.1639,47,TRUE,FALSE,11,2,46,2,1,,,,,,,
,,,,,,0,1.662062742,#f3af84,,left_orange.png,q,,,,,,w,left_blue.png,left_orange.png,q,right,60fdbe8a13c3166287bfd402,001,2021-08-01_13h23.59.265,arrow_simon_norep,2021.1.2,Win32,60.32454606,,,,,,,,,,,,,,,,,,,,,q,1,2.0859,48,TRUE,FALSE,11,3,47,3,1,,,,,,,
,,,,,,0,2.318346902,#a3d0fb,,left_blue.png,w,,,,,,w,left_blue.png,left_orange.png,q,left,60fdbe8a13c3166287bfd402,001,2021-08-01_13h23.59.265,arrow_simon_norep,2021.1.2,Win32,60.32454606,,,,,,,,,,,,,,,,,,,,,w,1,1.6909,49,TRUE,FALSE,12,0,48,2,1,,,,,,,
,,,,,,0,2.3178496,#f3af84,,right_orange.png,p,,,,,,o,right_blue.png,right_orange.png,p,left,60fdbe8a13c3166287bfd402,001,2021-08-01_13h23.59.265,arrow_simon_norep,2021.1.2,Win32,60.32454606,,,,,,,,,,,,,,,,,,,,,q,0,1.6081,50,TRUE,FALSE,12,1,49,0,1,,,,,,,
,,,,,,0,1.864644095,#a3d0fb,,right_blue.png,o,,,,,,o,right_blue.png,right_orange.png,p,left,60fdbe8a13c3166287bfd402,001,2021-08-01_13h23.59.265,arrow_simon_norep,2021.1.2,Win32,60.32454606,,,,,,,,,,,,,,,,,,,,,o,1,1.8249,51,TRUE,FALSE,12,2,50,0,1,,,,,,,
,,,,,,0,2.086414914,#f3af84,,right_orange.png,p,,,,,,o,right_blue.png,right_orange.png,p,right,60fdbe8a13c3166287bfd402,001,2021-08-01_13h23.59.265,arrow_simon_norep,2021.1.2,Win32,60.32454606,,,,,,,,,,,,,,,,,,,,,p,1,1.7134,52,TRUE,FALSE,12,3,51,1,1,,,,,,,
,,,,,,0,1.502137047,#a3d0fb,,right_blue.png,o,,,,,,o,right_blue.png,right_orange.png,p,right,60fdbe8a13c3166287bfd402,001,2021-08-01_13h23.59.265,arrow_simon_norep,2021.1.2,Win32,60.32454606,,,,,,,,,,,,,,,,,,,,,o,1,0.9693,53,FALSE,TRUE,13,0,52,1,1,,,,,,,
,,,,,,0,2.414798103,#f3af84,,left_orange.png,q,,,,,,w,left_blue.png,left_orange.png,q,left,60fdbe8a13c3166287bfd402,001,2021-08-01_13h23.59.265,arrow_simon_norep,2021.1.2,Win32,60.32454606,,,,,,,,,,,,,,,,,,,,,q,1,1.8025,54,TRUE,FALSE,13,1,53,2,1,,,,,,,
,,,,,,0,1.599562842,#a3d0fb,,right_blue.png,o,,,,,,o,right_blue.png,right_orange.png,p,left,60fdbe8a13c3166287bfd402,001,2021-08-01_13h23.59.265,arrow_simon_norep,2021.1.2,Win32,60.32454606,,,,,,,,,,,,,,,,,,,,,o,1,1.6986,55,TRUE,FALSE,13,2,54,0,1,,,,,,,
,,,,,,0,2.346023381,#f3af84,,right_orange.png,p,,,,,,o,right_blue.png,right_orange.png,p,right,60fdbe8a13c3166287bfd402,001,2021-08-01_13h23.59.265,arrow_simon_norep,2021.1.2,Win32,60.32454606,,,,,,,,,,,,,,,,,,,,,p,1,1.68,56,TRUE,FALSE,13,3,55,1,1,,,,,,,
,,,,,,0,1.802612148,#a3d0fb,,right_blue.png,o,,,,,,o,right_blue.png,right_orange.png,p,right,60fdbe8a13c3166287bfd402,001,2021-08-01_13h23.59.265,arrow_simon_norep,2021.1.2,Win32,60.32454606,,,,,,,,,,,,,,,,,,,,,o,1,1.1197,57,FALSE,TRUE,14,0,56,1,1,,,,,,,
,,,,,,0,2.23149289,#f3af84,,right_orange.png,p,,,,,,o,right_blue.png,right_orange.png,p,right,60fdbe8a13c3166287bfd402,001,2021-08-01_13h23.59.265,arrow_simon_norep,2021.1.2,Win32,60.32454606,,,,,,,,,,,,,,,,,,,,,p,1,1.4918,58,FALSE,FALSE,14,1,57,1,1,,,,,,,
,,,,,,0,1.762939379,#a3d0fb,,left_blue.png,w,,,,,,w,left_blue.png,left_orange.png,q,right,60fdbe8a13c3166287bfd402,001,2021-08-01_13h23.59.265,arrow_simon_norep,2021.1.2,Win32,60.32454606,,,,,,,,,,,,,,,,,,,,,w,1,2.0192,59,TRUE,FALSE,14,2,58,3,1,,,,,,,
,,,,,,0,2.395043663,#f3af84,,left_orange.png,q,,,,,,w,left_blue.png,left_orange.png,q,right,60fdbe8a13c3166287bfd402,001,2021-08-01_13h23.59.265,arrow_simon_norep,2021.1.2,Win32,60.32454606,,,,,,,,,,,,,,,,,,,,,o,0,2.1229,60,TRUE,FALSE,14,3,59,3,1,,,,,,,
,,,,,,,,,,,,,,,,,,,,,,60fdbe8a13c3166287bfd402,001,2021-08-01_13h23.59.265,arrow_simon_norep,2021.1.2,Win32,60.32454606,,,,,,,,,,,,,,,,,,,,,,,,,,,,,,,,space,766.8377,2,0,2,0,1
,,,,,,0,2.301963614,#a3d0fb,,left_blue.png,w,,,,,,w,left_blue.png,left_orange.png,q,left,60fdbe8a13c3166287bfd402,001,2021-08-01_13h23.59.265,arrow_simon_norep,2021.1.2,Win32,60.32454606,,,,,,,,,,,,,,,,,,,,,w,1,1.7435,1,TRUE,FALSE,0,0,0,2,1,,,,,,,
,,,,,,0,1.957792791,#f3af84,,right_orange.png,p,,,,,,o,right_blue.png,right_orange.png,p,left,60fdbe8a13c3166287bfd402,001,2021-08-01_13h23.59.265,arrow_simon_norep,2021.1.2,Win32,60.32454606,,,,,,,,,,,,,,,,,,,,,q,0,1.2361,2,FALSE,TRUE,0,1,1,0,1,,,,,,,
,,,,,,0,2.34816065,#a3d0fb,,left_blue.png,w,,,,,,w,left_blue.png,left_orange.png,q,right,60fdbe8a13c3166287bfd402,001,2021-08-01_13h23.59.265,arrow_simon_norep,2021.1.2,Win32,60.32454606,,,,,,,,,,,,,,,,,,,,,w,1,1.2671,3,FALSE,TRUE,0,2,2,3,1,,,,,,,
,,,,,,0,1.967185459,#f3af84,,right_orange.png,p,,,,,,o,right_blue.png,right_orange.png,p,left,60fdbe8a13c3166287bfd402,001,2021-08-01_13h23.59.265,arrow_simon_norep,2021.1.2,Win32,60.32454606,,,,,,,,,,,,,,,,,,,,,p,1,1.5647,4,FALSE,FALSE,0,3,3,0,1,,,,,,,
,,,,,,0,1.623664097,#a3d0fb,,right_blue.png,o,,,,,,o,right_blue.png,right_orange.png,p,right,60fdbe8a13c3166287bfd402,001,2021-08-01_13h23.59.265,arrow_simon_norep,2021.1.2,Win32,60.32454606,,,,,,,,,,,,,,,,,,,,,o,1,1.3746,5,FALSE,TRUE,1,0,4,1,1,,,,,,,
,,,,,,0,1.680787726,#f3af84,,left_orange.png,q,,,,,,w,left_blue.png,left_orange.png,q,right,60fdbe8a13c3166287bfd402,001,2021-08-01_13h23.59.265,arrow_simon_norep,2021.1.2,Win32,60.32454606,,,,,,,,,,,,,,,,,,,,,q,1,1.3369,6,FALSE,TRUE,1,1,5,3,1,,,,,,,
,,,,,,0,2.370094388,#a3d0fb,,right_blue.png,o,,,,,,o,right_blue.png,right_orange.png,p,right,60fdbe8a13c3166287bfd402,001,2021-08-01_13h23.59.265,arrow_simon_norep,2021.1.2,Win32,60.32454606,,,,,,,,,,,,,,,,,,,,,o,1,1.5728,7,FALSE,FALSE,1,2,6,1,1,,,,,,,
,,,,,,0,2.101734858,#f3af84,,right_orange.png,p,,,,,,o,right_blue.png,right_orange.png,p,right,60fdbe8a13c3166287bfd402,001,2021-08-01_13h23.59.265,arrow_simon_norep,2021.1.2,Win32,60.32454606,,,,,,,,,,,,,,,,,,,,,p,1,1.4092,8,FALSE,FALSE,1,3,7,1,1,,,,,,,
,,,,,,0,1.981603347,#a3d0fb,,left_blue.png,w,,,,,,w,left_blue.png,left_orange.png,q,right,60fdbe8a13c3166287bfd402,001,2021-08-01_13h23.59.265,arrow_simon_norep,2021.1.2,Win32,60.32454606,,,,,,,,,,,,,,,,,,,,,w,1,1.5469,9,FALSE,FALSE,2,0,8,3,1,,,,,,,
,,,,,,0,2.308271016,#f3af84,,right_orange.png,p,,,,,,o,right_blue.png,right_orange.png,p,left,60fdbe8a13c3166287bfd402,001,2021-08-01_13h23.59.265,arrow_simon_norep,2021.1.2,Win32,60.32454606,,,,,,,,,,,,,,,,,,,,,p,1,1.6145,10,TRUE,FALSE,2,1,9,0,1,,,,,,,
,,,,,,0,1.647001476,#a3d0fb,,left_blue.png,w,,,,,,w,left_blue.png,left_orange.png,q,right,60fdbe8a13c3166287bfd402,001,2021-08-01_13h23.59.265,arrow_simon_norep,2021.1.2,Win32,60.32454606,,,,,,,,,,,,,,,,,,,,,w,1,1.386,11,FALSE,TRUE,2,2,10,3,1,,,,,,,
,,,,,,0,2.31190635,#f3af84,,left_orange.png,q,,,,,,w,left_blue.png,left_orange.png,q,left,60fdbe8a13c3166287bfd402,001,2021-08-01_13h23.59.265,arrow_simon_norep,2021.1.2,Win32,60.32454606,,,,,,,,,,,,,,,,,,,,,p,0,1.6252,12,TRUE,FALSE,2,3,11,2,1,,,,,,,
,,,,,,0,1.620522455,#a3d0fb,,left_blue.png,w,,,,,,w,left_blue.png,left_orange.png,q,right,60fdbe8a13c3166287bfd402,001,2021-08-01_13h23.59.265,arrow_simon_norep,2021.1.2,Win32,60.32454606,,,,,,,,,,,,,,,,,,,,,w,1,1.3943,13,FALSE,TRUE,3,0,12,3,1,,,,,,,
,,,,,,0,2.322749223,#f3af84,,right_orange.png,p,,,,,,o,right_blue.png,right_orange.png,p,right,60fdbe8a13c3166287bfd402,001,2021-08-01_13h23.59.265,arrow_simon_norep,2021.1.2,Win32,60.32454606,,,,,,,,,,,,,,,,,,,,,p,1,1.7215,14,TRUE,FALSE,3,1,13,1,1,,,,,,,
,,,,,,0,2.370301836,#a3d0fb,,right_blue.png,o,,,,,,o,right_blue.png,right_orange.png,p,left,60fdbe8a13c3166287bfd402,001,2021-08-01_13h23.59.265,arrow_simon_norep,2021.1.2,Win32,60.32454606,,,,,,,,,,,,,,,,,,,,,o,1,1.6966,15,TRUE,FALSE,3,2,14,0,1,,,,,,,
,,,,,,0,1.859119199,#f3af84,,left_orange.png,q,,,,,,w,left_blue.png,left_orange.png,q,right,60fdbe8a13c3166287bfd402,001,2021-08-01_13h23.59.265,arrow_simon_norep,2021.1.2,Win32,60.32454606,,,,,,,,,,,,,,,,,,,,,q,1,1.4219,16,FALSE,FALSE,3,3,15,3,1,,,,,,,
,,,,,,0,2.044510122,#a3d0fb,,right_blue.png,o,,,,,,o,right_blue.png,right_orange.png,p,left,60fdbe8a13c3166287bfd402,001,2021-08-01_13h23.59.265,arrow_simon_norep,2021.1.2,Win32,60.32454606,,,,,,,,,,,,,,,,,,,,,o,1,1.559,17,FALSE,FALSE,4,0,16,0,1,,,,,,,
,,,,,,0,1.677638122,#f3af84,,left_orange.png,q,,,,,,w,left_blue.png,left_orange.png,q,right,60fdbe8a13c3166287bfd402,001,2021-08-01_13h23.59.265,arrow_simon_norep,2021.1.2,Win32,60.32454606,,,,,,,,,,,,,,,,,,,,,q,1,1.4373,18,FALSE,FALSE,4,1,17,3,1,,,,,,,
,,,,,,0,2.261171706,#a3d0fb,,right_blue.png,o,,,,,,o,right_blue.png,right_orange.png,p,left,60fdbe8a13c3166287bfd402,001,2021-08-01_13h23.59.265,arrow_simon_norep,2021.1.2,Win32,60.32454606,,,,,,,,,,,,,,,,,,,,,o,1,1.5943,19,FALSE,FALSE,4,2,18,0,1,,,,,,,
,,,,,,0,2.063389766,#f3af84,,left_orange.png,q,,,,,,w,left_blue.png,left_orange.png,q,left,60fdbe8a13c3166287bfd402,001,2021-08-01_13h23.59.265,arrow_simon_norep,2021.1.2,Win32,60.32454606,,,,,,,,,,,,,,,,,,,,,q,1,1.5238,20,FALSE,FALSE,4,3,19,2,1,,,,,,,
,,,,,,0,1.743495909,#a3d0fb,,left_blue.png,w,,,,,,w,left_blue.png,left_orange.png,q,right,60fdbe8a13c3166287bfd402,001,2021-08-01_13h23.59.265,arrow_simon_norep,2021.1.2,Win32,60.32454606,,,,,,,,,,,,,,,,,,,,,w,1,1.2719,21,FALSE,TRUE,5,0,20,3,1,,,,,,,
,,,,,,0,2.369091546,#f3af84,,left_orange.png,q,,,,,,w,left_blue.png,left_orange.png,q,left,60fdbe8a13c3166287bfd402,001,2021-08-01_13h23.59.265,arrow_simon_norep,2021.1.2,Win32,60.32454606,,,,,,,,,,,,,,,,,,,,,q,1,1.8884,22,TRUE,FALSE,5,1,21,2,1,,,,,,,
,,,,,,0,1.739971981,#a3d0fb,,right_blue.png,o,,,,,,o,right_blue.png,right_orange.png,p,right,60fdbe8a13c3166287bfd402,001,2021-08-01_13h23.59.265,arrow_simon_norep,2021.1.2,Win32,60.32454606,,,,,,,,,,,,,,,,,,,,,o,1,1.557,23,FALSE,FALSE,5,2,22,1,1,,,,,,,
,,,,,,0,2.478142976,#f3af84,,right_orange.png,p,,,,,,o,right_blue.png,right_orange.png,p,right,60fdbe8a13c3166287bfd402,001,2021-08-01_13h23.59.265,arrow_simon_norep,2021.1.2,Win32,60.32454606,,,,,,,,,,,,,,,,,,,,,p,1,1.7282,24,TRUE,FALSE,5,3,23,1,1,,,,,,,
,,,,,,0,2.150458602,#a3d0fb,,left_blue.png,w,,,,,,w,left_blue.png,left_orange.png,q,left,60fdbe8a13c3166287bfd402,001,2021-08-01_13h23.59.265,arrow_simon_norep,2021.1.2,Win32,60.32454606,,,,,,,,,,,,,,,,,,,,,o,0,1.6923,25,TRUE,FALSE,6,0,24,2,1,,,,,,,
,,,,,,0,2.365891601,#f3af84,,left_orange.png,q,,,,,,w,left_blue.png,left_orange.png,q,right,60fdbe8a13c3166287bfd402,001,2021-08-01_13h23.59.265,arrow_simon_norep,2021.1.2,Win32,60.32454606,,,,,,,,,,,,,,,,,,,,,q,1,1.8269,26,TRUE,FALSE,6,1,25,3,1,,,,,,,
,,,,,,0,2.207399938,#a3d0fb,,right_blue.png,o,,,,,,o,right_blue.png,right_orange.png,p,left,60fdbe8a13c3166287bfd402,001,2021-08-01_13h23.59.265,arrow_simon_norep,2021.1.2,Win32,60.32454606,,,,,,,,,,,,,,,,,,,,,o,1,1.6346,27,TRUE,FALSE,6,2,26,0,1,,,,,,,
,,,,,,0,2.288931859,#f3af84,,left_orange.png,q,,,,,,w,left_blue.png,left_orange.png,q,left,60fdbe8a13c3166287bfd402,001,2021-08-01_13h23.59.265,arrow_simon_norep,2021.1.2,Win32,60.32454606,,,,,,,,,,,,,,,,,,,,,q,1,1.595,28,FALSE,FALSE,6,3,27,2,1,,,,,,,
,,,,,,0,1.508195892,#a3d0fb,,right_blue.png,o,,,,,,o,right_blue.png,right_orange.png,p,right,60fdbe8a13c3166287bfd402,001,2021-08-01_13h23.59.265,arrow_simon_norep,2021.1.2,Win32,60.32454606,,,,,,,,,,,,,,,,,,,,,o,1,1.3894,29,FALSE,TRUE,7,0,28,1,1,,,,,,,
,,,,,,0,2.419947836,#f3af84,,left_orange.png,q,,,,,,w,left_blue.png,left_orange.png,q,right,60fdbe8a13c3166287bfd402,001,2021-08-01_13h23.59.265,arrow_simon_norep,2021.1.2,Win32,60.32454606,,,,,,,,,,,,,,,,,,,,,o,0,1.6074,30,TRUE,FALSE,7,1,29,3,1,,,,,,,
,,,,,,0,1.892237197,#a3d0fb,,right_blue.png,o,,,,,,o,right_blue.png,right_orange.png,p,right,60fdbe8a13c3166287bfd402,001,2021-08-01_13h23.59.265,arrow_simon_norep,2021.1.2,Win32,60.32454606,,,,,,,,,,,,,,,,,,,,,o,1,3.1846,31,TRUE,FALSE,7,2,30,1,1,,,,,,,
,,,,,,0,1.584013907,#f3af84,,right_orange.png,p,,,,,,o,right_blue.png,right_orange.png,p,left,60fdbe8a13c3166287bfd402,001,2021-08-01_13h23.59.265,arrow_simon_norep,2021.1.2,Win32,60.32454606,,,,,,,,,,,,,,,,,,,,,p,1,1.359,32,FALSE,TRUE,7,3,31,0,1,,,,,,,
,,,,,,0,1.664348574,#a3d0fb,,left_blue.png,w,,,,,,w,left_blue.png,left_orange.png,q,left,60fdbe8a13c3166287bfd402,001,2021-08-01_13h23.59.265,arrow_simon_norep,2021.1.2,Win32,60.32454606,,,,,,,,,,,,,,,,,,,,,w,1,1.5238,33,FALSE,FALSE,8,0,32,2,1,,,,,,,
,,,,,,0,2.40818621,#f3af84,,right_orange.png,p,,,,,,o,right_blue.png,right_orange.png,p,left,60fdbe8a13c3166287bfd402,001,2021-08-01_13h23.59.265,arrow_simon_norep,2021.1.2,Win32,60.32454606,,,,,,,,,,,,,,,,,,,,,p,1,1.9101,34,TRUE,FALSE,8,1,33,0,1,,,,,,,
,,,,,,0,1.709371382,#a3d0fb,,left_blue.png,w,,,,,,w,left_blue.png,left_orange.png,q,left,60fdbe8a13c3166287bfd402,001,2021-08-01_13h23.59.265,arrow_simon_norep,2021.1.2,Win32,60.32454606,,,,,,,,,,,,,,,,,,,,,w,1,1.4374,35,FALSE,FALSE,8,2,34,2,1,,,,,,,
,,,,,,0,2.02033346,#f3af84,,left_orange.png,q,,,,,,w,left_blue.png,left_orange.png,q,left,60fdbe8a13c3166287bfd402,001,2021-08-01_13h23.59.265,arrow_simon_norep,2021.1.2,Win32,60.32454606,,,,,,,,,,,,,,,,,,,,,q,1,1.5204,36,FALSE,FALSE,8,3,35,2,1,,,,,,,
,,,,,,0,2.060433347,#a3d0fb,,left_blue.png,w,,,,,,w,left_blue.png,left_orange.png,q,left,60fdbe8a13c3166287bfd402,001,2021-08-01_13h23.59.265,arrow_simon_norep,2021.1.2,Win32,60.32454606,,,,,,,,,,,,,,,,,,,,,w,1,1.4581,37,FALSE,FALSE,9,0,36,2,1,,,,,,,
,,,,,,0,1.965897309,#f3af84,,right_orange.png,p,,,,,,o,right_blue.png,right_orange.png,p,left,60fdbe8a13c3166287bfd402,001,2021-08-01_13h23.59.265,arrow_simon_norep,2021.1.2,Win32,60.32454606,,,,,,,,,,,,,,,,,,,,,p,1,1.6045,38,TRUE,FALSE,9,1,37,0,1,,,,,,,
,,,,,,0,2.245594967,#a3d0fb,,right_blue.png,o,,,,,,o,right_blue.png,right_orange.png,p,right,60fdbe8a13c3166287bfd402,001,2021-08-01_13h23.59.265,arrow_simon_norep,2021.1.2,Win32,60.32454606,,,,,,,,,,,,,,,,,,,,,o,1,1.5782,39,FALSE,FALSE,9,2,38,1,1,,,,,,,
,,,,,,0,2.052191285,#f3af84,,right_orange.png,p,,,,,,o,right_blue.png,right_orange.png,p,left,60fdbe8a13c3166287bfd402,001,2021-08-01_13h23.59.265,arrow_simon_norep,2021.1.2,Win32,60.32454606,,,,,,,,,,,,,,,,,,,,,p,1,1.6121,40,TRUE,FALSE,9,3,39,0,1,,,,,,,
,,,,,,0,2.095851367,#a3d0fb,,left_blue.png,w,,,,,,w,left_blue.png,left_orange.png,q,left,60fdbe8a13c3166287bfd402,001,2021-08-01_13h23.59.265,arrow_simon_norep,2021.1.2,Win32,60.32454606,,,,,,,,,,,,,,,,,,,,,w,1,1.5365,41,FALSE,FALSE,10,0,40,2,1,,,,,,,
,,,,,,0,2.464267059,#f3af84,,left_orange.png,q,,,,,,w,left_blue.png,left_orange.png,q,left,60fdbe8a13c3166287bfd402,001,2021-08-01_13h23.59.265,arrow_simon_norep,2021.1.2,Win32,60.32454606,,,,,,,,,,,,,,,,,,,,,p,0,1.6883,42,TRUE,FALSE,10,1,41,2,1,,,,,,,
,,,,,,0,1.936468551,#a3d0fb,,left_blue.png,w,,,,,,w,left_blue.png,left_orange.png,q,left,60fdbe8a13c3166287bfd402,001,2021-08-01_13h23.59.265,arrow_simon_norep,2021.1.2,Win32,60.32454606,,,,,,,,,,,,,,,,,,,,,w,1,1.5289,43,FALSE,FALSE,10,2,42,2,1,,,,,,,
,,,,,,0,2.108721584,#f3af84,,right_orange.png,p,,,,,,o,right_blue.png,right_orange.png,p,right,60fdbe8a13c3166287bfd402,001,2021-08-01_13h23.59.265,arrow_simon_norep,2021.1.2,Win32,60.32454606,,,,,,,,,,,,,,,,,,,,,p,1,1.5211,44,FALSE,FALSE,10,3,43,1,1,,,,,,,
,,,,,,0,2.154114532,#a3d0fb,,left_blue.png,w,,,,,,w,left_blue.png,left_orange.png,q,right,60fdbe8a13c3166287bfd402,001,2021-08-01_13h23.59.265,arrow_simon_norep,2021.1.2,Win32,60.32454606,,,,,,,,,,,,,,,,,,,,,w,1,1.6246,45,TRUE,FALSE,11,0,44,3,1,,,,,,,
,,,,,,0,2.041793145,#f3af84,,right_orange.png,p,,,,,,o,right_blue.png,right_orange.png,p,left,60fdbe8a13c3166287bfd402,001,2021-08-01_13h23.59.265,arrow_simon_norep,2021.1.2,Win32,60.32454606,,,,,,,,,,,,,,,,,,,,,p,1,1.4108,46,FALSE,FALSE,11,1,45,0,1,,,,,,,
,,,,,,0,1.801731383,#a3d0fb,,right_blue.png,o,,,,,,o,right_blue.png,right_orange.png,p,left,60fdbe8a13c3166287bfd402,001,2021-08-01_13h23.59.265,arrow_simon_norep,2021.1.2,Win32,60.32454606,,,,,,,,,,,,,,,,,,,,,o,1,1.3544,47,FALSE,TRUE,11,2,46,0,1,,,,,,,
,,,,,,0,1.864791482,#f3af84,,right_orange.png,p,,,,,,o,right_blue.png,right_orange.png,p,right,60fdbe8a13c3166287bfd402,001,2021-08-01_13h23.59.265,arrow_simon_norep,2021.1.2,Win32,60.32454606,,,,,,,,,,,,,,,,,,,,,p,1,1.3743,48,FALSE,TRUE,11,3,47,1,1,,,,,,,
,,,,,,0,2.008267989,#a3d0fb,,left_blue.png,w,,,,,,w,left_blue.png,left_orange.png,q,left,60fdbe8a13c3166287bfd402,001,2021-08-01_13h23.59.265,arrow_simon_norep,2021.1.2,Win32,60.32454606,,,,,,,,,,,,,,,,,,,,,w,1,1.5066,49,FALSE,FALSE,12,0,48,2,1,,,,,,,
,,,,,,0,1.847134436,#f3af84,,right_orange.png,p,,,,,,o,right_blue.png,right_orange.png,p,right,60fdbe8a13c3166287bfd402,001,2021-08-01_13h23.59.265,arrow_simon_norep,2021.1.2,Win32,60.32454606,,,,,,,,,,,,,,,,,,,,,p,1,1.5043,50,FALSE,FALSE,12,1,49,1,1,,,,,,,
,,,,,,0,2.192329498,#a3d0fb,,left_blue.png,w,,,,,,w,left_blue.png,left_orange.png,q,right,60fdbe8a13c3166287bfd402,001,2021-08-01_13h23.59.265,arrow_simon_norep,2021.1.2,Win32,60.32454606,,,,,,,,,,,,,,,,,,,,,w,1,1.573,51,FALSE,FALSE,12,2,50,3,1,,,,,,,
