instruct_resp_simon.keys,instruct_resp_simon.corr,instruct_resp_simon.rt,trial_resp_simon.keys,trial_resp_simon.corr,trial_resp_simon.rt,kerr,target_onset,target_color,target_pos,target_file,target_resp,trials_train_simon.thisRepN,trials_train_simon.thisTrialN,trials_train_simon.thisN,trials_train_simon.thisIndex,trials_train_simon.ran,odd_target_resp,odd_target_file,even_target_file,even_target_resp,target_side,participant,session,date,expName,psychopyVersion,OS,frameRate,train_block_note_resp.keys,train_block_note_resp.rt,blocks_train.thisRepN,blocks_train.thisTrialN,blocks_train.thisN,blocks_train.thisIndex,blocks_train.ran,instruct_resp_timing.keys,instruct_resp_timing.corr,instruct_resp_timing.rt,trial_resp_timing.keys,trial_resp_timing.rt,trials_train_timing.thisRepN,trials_train_timing.thisTrialN,trials_train_timing.thisN,trials_train_timing.thisIndex,trials_train_timing.ran,instruct_resp.keys,instruct_resp.corr,instruct_resp.rt,trial_resp.keys,trial_resp.corr,trial_resp.rt,trial_num,too_slow,too_soon,trials.thisRepN,trials.thisTrialN,trials.thisN,trials.thisIndex,trials.ran,block_note_resp.keys,block_note_resp.rt,blocks.thisRepN,blocks.thisTrialN,blocks.thisN,blocks.thisIndex,blocks.ran
space,0,86.6117,p,0,4.6659,1,0.297208814,#a3d0fb,,right_blue.png,o,0,0,0,0,1,o,right_blue.png,right_orange.png,p,left,60fde665fa8ed91a1c462c3e,001,2021-08-01_12h32.51.717,arrow_simon_norep,2021.1.2,MacIntel,59.99880002,,,,,,,,,,,,,,,,,,,,,,,,,,,,,,,,,,,,,,
,,,q,0,3.6412,1,0.238247035,#f3af84,,right_orange.png,p,0,1,1,0,1,o,right_blue.png,right_orange.png,p,left,60fde665fa8ed91a1c462c3e,001,2021-08-01_12h32.51.717,arrow_simon_norep,2021.1.2,MacIntel,59.99880002,,,,,,,,,,,,,,,,,,,,,,,,,,,,,,,,,,,,,,
,,,w,1,6.1983,0,0.611150353,#a3d0fb,,left_blue.png,w,0,2,2,2,1,w,left_blue.png,left_orange.png,q,left,60fde665fa8ed91a1c462c3e,001,2021-08-01_12h32.51.717,arrow_simon_norep,2021.1.2,MacIntel,59.99880002,,,,,,,,,,,,,,,,,,,,,,,,,,,,,,,,,,,,,,
,,,p,1,2.6983,0,0.517042049,#f3af84,,right_orange.png,p,0,3,3,0,1,o,right_blue.png,right_orange.png,p,left,60fde665fa8ed91a1c462c3e,001,2021-08-01_12h32.51.717,arrow_simon_norep,2021.1.2,MacIntel,59.99880002,,,,,,,,,,,,,,,,,,,,,,,,,,,,,,,,,,,,,,
,,,w,1,2.4004,0,0.448700391,#a3d0fb,,left_blue.png,w,1,0,4,3,1,w,left_blue.png,left_orange.png,q,right,60fde665fa8ed91a1c462c3e,001,2021-08-01_12h32.51.717,arrow_simon_norep,2021.1.2,MacIntel,59.99880002,,,,,,,,,,,,,,,,,,,,,,,,,,,,,,,,,,,,,,
,,,p,1,2.9699,0,0.551622777,#f3af84,,right_orange.png,p,1,1,5,0,1,o,right_blue.png,right_orange.png,p,left,60fde665fa8ed91a1c462c3e,001,2021-08-01_12h32.51.717,arrow_simon_norep,2021.1.2,MacIntel,59.99880002,,,,,,,,,,,,,,,,,,,,,,,,,,,,,,,,,,,,,,
,,,o,1,1.5363,0,0.264331025,#a3d0fb,,right_blue.png,o,1,2,6,0,1,o,right_blue.png,right_orange.png,p,left,60fde665fa8ed91a1c462c3e,001,2021-08-01_12h32.51.717,arrow_simon_norep,2021.1.2,MacIntel,59.99880002,,,,,,,,,,,,,,,,,,,,,,,,,,,,,,,,,,,,,,
,,,q,1,1.696,0,0.288348552,#f3af84,,left_orange.png,q,1,3,7,2,1,w,left_blue.png,left_orange.png,q,left,60fde665fa8ed91a1c462c3e,001,2021-08-01_12h32.51.717,arrow_simon_norep,2021.1.2,MacIntel,59.99880002,,,,,,,,,,,,,,,,,,,,,,,,,,,,,,,,,,,,,,
,,,o,0,2.2314,1,0.832180356,#a3d0fb,,left_blue.png,w,2,0,8,3,1,w,left_blue.png,left_orange.png,q,right,60fde665fa8ed91a1c462c3e,001,2021-08-01_12h32.51.717,arrow_simon_norep,2021.1.2,MacIntel,59.99880002,,,,,,,,,,,,,,,,,,,,,,,,,,,,,,,,,,,,,,
,,,q,0,4.3952,1,0.183949213,#f3af84,,right_orange.png,p,2,1,9,0,1,o,right_blue.png,right_orange.png,p,left,60fde665fa8ed91a1c462c3e,001,2021-08-01_12h32.51.717,arrow_simon_norep,2021.1.2,MacIntel,59.99880002,,,,,,,,,,,,,,,,,,,,,,,,,,,,,,,,,,,,,,
,,,o,1,6.5891,0,0.112103208,#a3d0fb,,right_blue.png,o,2,2,10,1,1,o,right_blue.png,right_orange.png,p,right,60fde665fa8ed91a1c462c3e,001,2021-08-01_12h32.51.717,arrow_simon_norep,2021.1.2,MacIntel,59.99880002,,,,,,,,,,,,,,,,,,,,,,,,,,,,,,,,,,,,,,
,,,p,1,11.0477,0,0.049083516,#f3af84,,right_orange.png,p,2,3,11,1,1,o,right_blue.png,right_orange.png,p,right,60fde665fa8ed91a1c462c3e,001,2021-08-01_12h32.51.717,arrow_simon_norep,2021.1.2,MacIntel,59.99880002,,,,,,,,,,,,,,,,,,,,,,,,,,,,,,,,,,,,,,
,,,o,1,1.2277,0,0.133605614,#a3d0fb,,right_blue.png,o,3,0,12,1,1,o,right_blue.png,right_orange.png,p,right,60fde665fa8ed91a1c462c3e,001,2021-08-01_12h32.51.717,arrow_simon_norep,2021.1.2,MacIntel,59.99880002,,,,,,,,,,,,,,,,,,,,,,,,,,,,,,,,,,,,,,
,,,q,1,1.0071,0,0.22100422,#f3af84,,left_orange.png,q,3,1,13,2,1,w,left_blue.png,left_orange.png,q,left,60fde665fa8ed91a1c462c3e,001,2021-08-01_12h32.51.717,arrow_simon_norep,2021.1.2,MacIntel,59.99880002,,,,,,,,,,,,,,,,,,,,,,,,,,,,,,,,,,,,,,
,,,p,0,1.256,1,0.377326219,#a3d0fb,,right_blue.png,o,3,2,14,1,1,o,right_blue.png,right_orange.png,p,right,60fde665fa8ed91a1c462c3e,001,2021-08-01_12h32.51.717,arrow_simon_norep,2021.1.2,MacIntel,59.99880002,,,,,,,,,,,,,,,,,,,,,,,,,,,,,,,,,,,,,,
,,,q,1,1.804,0,0.019752847,#f3af84,,left_orange.png,q,3,3,15,2,1,w,left_blue.png,left_orange.png,q,left,60fde665fa8ed91a1c462c3e,001,2021-08-01_12h32.51.717,arrow_simon_norep,2021.1.2,MacIntel,59.99880002,,,,,,,,,,,,,,,,,,,,,,,,,,,,,,,,,,,,,,
,,,o,1,1.4358,0,0.554767924,#a3d0fb,,right_blue.png,o,4,0,16,1,1,o,right_blue.png,right_orange.png,p,right,60fde665fa8ed91a1c462c3e,001,2021-08-01_12h32.51.717,arrow_simon_norep,2021.1.2,MacIntel,59.99880002,,,,,,,,,,,,,,,,,,,,,,,,,,,,,,,,,,,,,,
,,,q,1,2.0033,0,0.724123209,#f3af84,,left_orange.png,q,4,1,17,3,1,w,left_blue.png,left_orange.png,q,right,60fde665fa8ed91a1c462c3e,001,2021-08-01_12h32.51.717,arrow_simon_norep,2021.1.2,MacIntel,59.99880002,,,,,,,,,,,,,,,,,,,,,,,,,,,,,,,,,,,,,,
,,,w,1,1.9495,0,0.13727246,#a3d0fb,,left_blue.png,w,4,2,18,2,1,w,left_blue.png,left_orange.png,q,left,60fde665fa8ed91a1c462c3e,001,2021-08-01_12h32.51.717,arrow_simon_norep,2021.1.2,MacIntel,59.99880002,,,,,,,,,,,,,,,,,,,,,,,,,,,,,,,,,,,,,,
,,,o,0,4.2024,1,0.460645575,#f3af84,,right_orange.png,p,4,3,19,1,1,o,right_blue.png,right_orange.png,p,right,60fde665fa8ed91a1c462c3e,001,2021-08-01_12h32.51.717,arrow_simon_norep,2021.1.2,MacIntel,59.99880002,,,,,,,,,,,,,,,,,,,,,,,,,,,,,,,,,,,,,,
,,,q,0,1.3019,1,0.311514533,#a3d0fb,,left_blue.png,w,5,0,20,2,1,w,left_blue.png,left_orange.png,q,left,60fde665fa8ed91a1c462c3e,001,2021-08-01_12h32.51.717,arrow_simon_norep,2021.1.2,MacIntel,59.99880002,,,,,,,,,,,,,,,,,,,,,,,,,,,,,,,,,,,,,,
,,,q,1,4.2718,0,0.629875686,#f3af84,,left_orange.png,q,5,1,21,3,1,w,left_blue.png,left_orange.png,q,right,60fde665fa8ed91a1c462c3e,001,2021-08-01_12h32.51.717,arrow_simon_norep,2021.1.2,MacIntel,59.99880002,,,,,,,,,,,,,,,,,,,,,,,,,,,,,,,,,,,,,,
,,,o,1,2.4033,0,0.960497012,#a3d0fb,,right_blue.png,o,5,2,22,0,1,o,right_blue.png,right_orange.png,p,left,60fde665fa8ed91a1c462c3e,001,2021-08-01_12h32.51.717,arrow_simon_norep,2021.1.2,MacIntel,59.99880002,,,,,,,,,,,,,,,,,,,,,,,,,,,,,,,,,,,,,,
,,,q,1,2.2302,0,0.70127226,#f3af84,,left_orange.png,q,5,3,23,2,1,w,left_blue.png,left_orange.png,q,left,60fde665fa8ed91a1c462c3e,001,2021-08-01_12h32.51.717,arrow_simon_norep,2021.1.2,MacIntel,59.99880002,,,,,,,,,,,,,,,,,,,,,,,,,,,,,,,,,,,,,,
,,,w,1,4.8863,0,0.311875268,#a3d0fb,,left_blue.png,w,6,0,24,3,1,w,left_blue.png,left_orange.png,q,right,60fde665fa8ed91a1c462c3e,001,2021-08-01_12h32.51.717,arrow_simon_norep,2021.1.2,MacIntel,59.99880002,,,,,,,,,,,,,,,,,,,,,,,,,,,,,,,,,,,,,,
,,,q,1,1.9818,0,0.502844101,#f3af84,,left_orange.png,q,6,1,25,2,1,w,left_blue.png,left_orange.png,q,left,60fde665fa8ed91a1c462c3e,001,2021-08-01_12h32.51.717,arrow_simon_norep,2021.1.2,MacIntel,59.99880002,,,,,,,,,,,,,,,,,,,,,,,,,,,,,,,,,,,,,,
,,,p,0,2.1615,1,0.795378359,#a3d0fb,,right_blue.png,o,6,2,26,1,1,o,right_blue.png,right_orange.png,p,right,60fde665fa8ed91a1c462c3e,001,2021-08-01_12h32.51.717,arrow_simon_norep,2021.1.2,MacIntel,59.99880002,,,,,,,,,,,,,,,,,,,,,,,,,,,,,,,,,,,,,,
,,,q,1,2.0473,0,0.791174245,#f3af84,,left_orange.png,q,6,3,27,2,1,w,left_blue.png,left_orange.png,q,left,60fde665fa8ed91a1c462c3e,001,2021-08-01_12h32.51.717,arrow_simon_norep,2021.1.2,MacIntel,59.99880002,,,,,,,,,,,,,,,,,,,,,,,,,,,,,,,,,,,,,,
,,,w,1,1.7651,0,0.621647774,#a3d0fb,,left_blue.png,w,7,0,28,3,1,w,left_blue.png,left_orange.png,q,right,60fde665fa8ed91a1c462c3e,001,2021-08-01_12h32.51.717,arrow_simon_norep,2021.1.2,MacIntel,59.99880002,,,,,,,,,,,,,,,,,,,,,,,,,,,,,,,,,,,,,,
,,,p,1,1.8476,0,0.439400986,#f3af84,,right_orange.png,p,7,1,29,1,1,o,right_blue.png,right_orange.png,p,right,60fde665fa8ed91a1c462c3e,001,2021-08-01_12h32.51.717,arrow_simon_norep,2021.1.2,MacIntel,59.99880002,,,,,,,,,,,,,,,,,,,,,,,,,,,,,,,,,,,,,,
,,,o,1,1.5508,0,0.529271289,#a3d0fb,,right_blue.png,o,7,2,30,1,1,o,right_blue.png,right_orange.png,p,right,60fde665fa8ed91a1c462c3e,001,2021-08-01_12h32.51.717,arrow_simon_norep,2021.1.2,MacIntel,59.99880002,,,,,,,,,,,,,,,,,,,,,,,,,,,,,,,,,,,,,,
,,,q,1,2.7241,0,0.845017205,#f3af84,,left_orange.png,q,7,3,31,2,1,w,left_blue.png,left_orange.png,q,left,60fde665fa8ed91a1c462c3e,001,2021-08-01_12h32.51.717,arrow_simon_norep,2021.1.2,MacIntel,59.99880002,,,,,,,,,,,,,,,,,,,,,,,,,,,,,,,,,,,,,,
,,,o,1,2.011,0,0.373309599,#a3d0fb,,right_blue.png,o,8,0,32,0,1,o,right_blue.png,right_orange.png,p,left,60fde665fa8ed91a1c462c3e,001,2021-08-01_12h32.51.717,arrow_simon_norep,2021.1.2,MacIntel,59.99880002,,,,,,,,,,,,,,,,,,,,,,,,,,,,,,,,,,,,,,
,,,p,1,1.6463,0,0.879971859,#f3af84,,right_orange.png,p,8,1,33,1,1,o,right_blue.png,right_orange.png,p,right,60fde665fa8ed91a1c462c3e,001,2021-08-01_12h32.51.717,arrow_simon_norep,2021.1.2,MacIntel,59.99880002,,,,,,,,,,,,,,,,,,,,,,,,,,,,,,,,,,,,,,
,,,w,1,1.7128,0,0.359296743,#a3d0fb,,left_blue.png,w,8,2,34,3,1,w,left_blue.png,left_orange.png,q,right,60fde665fa8ed91a1c462c3e,001,2021-08-01_12h32.51.717,arrow_simon_norep,2021.1.2,MacIntel,59.99880002,,,,,,,,,,,,,,,,,,,,,,,,,,,,,,,,,,,,,,
,,,p,1,2.3497,0,0.034210472,#f3af84,,right_orange.png,p,8,3,35,1,1,o,right_blue.png,right_orange.png,p,right,60fde665fa8ed91a1c462c3e,001,2021-08-01_12h32.51.717,arrow_simon_norep,2021.1.2,MacIntel,59.99880002,,,,,,,,,,,,,,,,,,,,,,,,,,,,,,,,,,,,,,
,,,w,1,1.868,0,0.88119085,#a3d0fb,,left_blue.png,w,9,0,36,2,1,w,left_blue.png,left_orange.png,q,left,60fde665fa8ed91a1c462c3e,001,2021-08-01_12h32.51.717,arrow_simon_norep,2021.1.2,MacIntel,59.99880002,,,,,,,,,,,,,,,,,,,,,,,,,,,,,,,,,,,,,,
,,,o,0,1.0222,1,0.203546889,#f3af84,,right_orange.png,p,9,1,37,1,1,o,right_blue.png,right_orange.png,p,right,60fde665fa8ed91a1c462c3e,001,2021-08-01_12h32.51.717,arrow_simon_norep,2021.1.2,MacIntel,59.99880002,,,,,,,,,,,,,,,,,,,,,,,,,,,,,,,,,,,,,,
,,,w,1,2.4382,0,0.992600149,#a3d0fb,,left_blue.png,w,9,2,38,2,1,w,left_blue.png,left_orange.png,q,left,60fde665fa8ed91a1c462c3e,001,2021-08-01_12h32.51.717,arrow_simon_norep,2021.1.2,MacIntel,59.99880002,,,,,,,,,,,,,,,,,,,,,,,,,,,,,,,,,,,,,,
,,,q,1,2.4946,0,0.488782895,#f3af84,,left_orange.png,q,9,3,39,3,1,w,left_blue.png,left_orange.png,q,right,60fde665fa8ed91a1c462c3e,001,2021-08-01_12h32.51.717,arrow_simon_norep,2021.1.2,MacIntel,59.99880002,,,,,,,,,,,,,,,,,,,,,,,,,,,,,,,,,,,,,,
,,,w,1,1.9493,0,0.591233199,#a3d0fb,,left_blue.png,w,10,0,40,3,1,w,left_blue.png,left_orange.png,q,right,60fde665fa8ed91a1c462c3e,001,2021-08-01_12h32.51.717,arrow_simon_norep,2021.1.2,MacIntel,59.99880002,,,,,,,,,,,,,,,,,,,,,,,,,,,,,,,,,,,,,,
,,,q,1,1.0131,0,0.153897825,#f3af84,,left_orange.png,q,10,1,41,3,1,w,left_blue.png,left_orange.png,q,right,60fde665fa8ed91a1c462c3e,001,2021-08-01_12h32.51.717,arrow_simon_norep,2021.1.2,MacIntel,59.99880002,,,,,,,,,,,,,,,,,,,,,,,,,,,,,,,,,,,,,,
,,,o,1,1.4981,0,0.559624911,#a3d0fb,,right_blue.png,o,10,2,42,0,1,o,right_blue.png,right_orange.png,p,left,60fde665fa8ed91a1c462c3e,001,2021-08-01_12h32.51.717,arrow_simon_norep,2021.1.2,MacIntel,59.99880002,,,,,,,,,,,,,,,,,,,,,,,,,,,,,,,,,,,,,,
,,,p,1,2.0271,0,0.134729863,#f3af84,,right_orange.png,p,10,3,43,0,1,o,right_blue.png,right_orange.png,p,left,60fde665fa8ed91a1c462c3e,001,2021-08-01_12h32.51.717,arrow_simon_norep,2021.1.2,MacIntel,59.99880002,,,,,,,,,,,,,,,,,,,,,,,,,,,,,,,,,,,,,,
,,,w,1,2.3158,0,0.903491812,#a3d0fb,,left_blue.png,w,11,0,44,2,1,w,left_blue.png,left_orange.png,q,left,60fde665fa8ed91a1c462c3e,001,2021-08-01_12h32.51.717,arrow_simon_norep,2021.1.2,MacIntel,59.99880002,,,,,,,,,,,,,,,,,,,,,,,,,,,,,,,,,,,,,,
,,,p,1,2.6112,0,0.979375098,#f3af84,,right_orange.png,p,11,1,45,1,1,o,right_blue.png,right_orange.png,p,right,60fde665fa8ed91a1c462c3e,001,2021-08-01_12h32.51.717,arrow_simon_norep,2021.1.2,MacIntel,59.99880002,,,,,,,,,,,,,,,,,,,,,,,,,,,,,,,,,,,,,,
,,,w,1,1.9463,0,0.523965939,#a3d0fb,,left_blue.png,w,11,2,46,3,1,w,left_blue.png,left_orange.png,q,right,60fde665fa8ed91a1c462c3e,001,2021-08-01_12h32.51.717,arrow_simon_norep,2021.1.2,MacIntel,59.99880002,,,,,,,,,,,,,,,,,,,,,,,,,,,,,,,,,,,,,,
,,,o,0,2.0827,1,0.986139373,#f3af84,,right_orange.png,p,11,3,47,1,1,o,right_blue.png,right_orange.png,p,right,60fde665fa8ed91a1c462c3e,001,2021-08-01_12h32.51.717,arrow_simon_norep,2021.1.2,MacIntel,59.99880002,,,,,,,,,,,,,,,,,,,,,,,,,,,,,,,,,,,,,,
,,,o,1,3.0654,0,0.966235838,#a3d0fb,,right_blue.png,o,12,0,48,0,1,o,right_blue.png,right_orange.png,p,left,60fde665fa8ed91a1c462c3e,001,2021-08-01_12h32.51.717,arrow_simon_norep,2021.1.2,MacIntel,59.99880002,,,,,,,,,,,,,,,,,,,,,,,,,,,,,,,,,,,,,,
,,,q,1,2.9954,0,0.532074762,#f3af84,,left_orange.png,q,12,1,49,2,1,w,left_blue.png,left_orange.png,q,left,60fde665fa8ed91a1c462c3e,001,2021-08-01_12h32.51.717,arrow_simon_norep,2021.1.2,MacIntel,59.99880002,,,,,,,,,,,,,,,,,,,,,,,,,,,,,,,,,,,,,,
,,,o,1,3.0714,0,0.950701062,#a3d0fb,,right_blue.png,o,12,2,50,0,1,o,right_blue.png,right_orange.png,p,left,60fde665fa8ed91a1c462c3e,001,2021-08-01_12h32.51.717,arrow_simon_norep,2021.1.2,MacIntel,59.99880002,,,,,,,,,,,,,,,,,,,,,,,,,,,,,,,,,,,,,,
,,,q,1,1.1463,0,0.110869325,#f3af84,,left_orange.png,q,12,3,51,3,1,w,left_blue.png,left_orange.png,q,right,60fde665fa8ed91a1c462c3e,001,2021-08-01_12h32.51.717,arrow_simon_norep,2021.1.2,MacIntel,59.99880002,,,,,,,,,,,,,,,,,,,,,,,,,,,,,,,,,,,,,,
,,,o,1,3.6463,0,0.035924069,#a3d0fb,,right_blue.png,o,13,0,52,0,1,o,right_blue.png,right_orange.png,p,left,60fde665fa8ed91a1c462c3e,001,2021-08-01_12h32.51.717,arrow_simon_norep,2021.1.2,MacIntel,59.99880002,,,,,,,,,,,,,,,,,,,,,,,,,,,,,,,,,,,,,,
,,,p,1,1.577,0,0.269394181,#f3af84,,right_orange.png,p,13,1,53,0,1,o,right_blue.png,right_orange.png,p,left,60fde665fa8ed91a1c462c3e,001,2021-08-01_12h32.51.717,arrow_simon_norep,2021.1.2,MacIntel,59.99880002,,,,,,,,,,,,,,,,,,,,,,,,,,,,,,,,,,,,,,
,,,w,1,1.3134,0,0.320131138,#a3d0fb,,left_blue.png,w,13,2,54,3,1,w,left_blue.png,left_orange.png,q,right,60fde665fa8ed91a1c462c3e,001,2021-08-01_12h32.51.717,arrow_simon_norep,2021.1.2,MacIntel,59.99880002,,,,,,,,,,,,,,,,,,,,,,,,,,,,,,,,,,,,,,
,,,q,1,1.9395,0,0.507353133,#f3af84,,left_orange.png,q,13,3,55,2,1,w,left_blue.png,left_orange.png,q,left,60fde665fa8ed91a1c462c3e,001,2021-08-01_12h32.51.717,arrow_simon_norep,2021.1.2,MacIntel,59.99880002,,,,,,,,,,,,,,,,,,,,,,,,,,,,,,,,,,,,,,
,,,w,1,1.5978,0,0.624469024,#a3d0fb,,left_blue.png,w,14,0,56,3,1,w,left_blue.png,left_orange.png,q,right,60fde665fa8ed91a1c462c3e,001,2021-08-01_12h32.51.717,arrow_simon_norep,2021.1.2,MacIntel,59.99880002,,,,,,,,,,,,,,,,,,,,,,,,,,,,,,,,,,,,,,
,,,p,1,1.66,0,0.235875252,#f3af84,,right_orange.png,p,14,1,57,1,1,o,right_blue.png,right_orange.png,p,right,60fde665fa8ed91a1c462c3e,001,2021-08-01_12h32.51.717,arrow_simon_norep,2021.1.2,MacIntel,59.99880002,,,,,,,,,,,,,,,,,,,,,,,,,,,,,,,,,,,,,,
,,,w,1,3.0976,0,0.635697297,#a3d0fb,,left_blue.png,w,14,2,58,3,1,w,left_blue.png,left_orange.png,q,right,60fde665fa8ed91a1c462c3e,001,2021-08-01_12h32.51.717,arrow_simon_norep,2021.1.2,MacIntel,59.99880002,,,,,,,,,,,,,,,,,,,,,,,,,,,,,,,,,,,,,,
,,,p,1,1.216,0,0.163838426,#f3af84,,right_orange.png,p,14,3,59,0,1,o,right_blue.png,right_orange.png,p,left,60fde665fa8ed91a1c462c3e,001,2021-08-01_12h32.51.717,arrow_simon_norep,2021.1.2,MacIntel,59.99880002,,,,,,,,,,,,,,,,,,,,,,,,,,,,,,,,,,,,,,
,,,,,,,,,,,,,,,,,,,,,,60fde665fa8ed91a1c462c3e,001,2021-08-01_12h32.51.717,arrow_simon_norep,2021.1.2,MacIntel,59.99880002,space,8.5734,0,0,0,0,1,,,,,,,,,,,,,,,,,,,,,,,,,,,,,,,
,,,o,1,1.7758,0,0.542563479,#a3d0fb,,right_blue.png,o,0,0,0,1,1,o,right_blue.png,right_orange.png,p,right,60fde665fa8ed91a1c462c3e,001,2021-08-01_12h32.51.717,arrow_simon_norep,2021.1.2,MacIntel,59.99880002,,,,,,,,,,,,,,,,,,,,,,,,,,,,,,,,,,,,,,
,,,q,1,1.9381,0,0.946468889,#f3af84,,left_orange.png,q,0,1,1,2,1,w,left_blue.png,left_orange.png,q,left,60fde665fa8ed91a1c462c3e,001,2021-08-01_12h32.51.717,arrow_simon_norep,2021.1.2,MacIntel,59.99880002,,,,,,,,,,,,,,,,,,,,,,,,,,,,,,,,,,,,,,
,,,w,1,1.7807,0,0.905317241,#a3d0fb,,left_blue.png,w,0,2,2,2,1,w,left_blue.png,left_orange.png,q,left,60fde665fa8ed91a1c462c3e,001,2021-08-01_12h32.51.717,arrow_simon_norep,2021.1.2,MacIntel,59.99880002,,,,,,,,,,,,,,,,,,,,,,,,,,,,,,,,,,,,,,
,,,p,1,1.7625,0,0.876492607,#f3af84,,right_orange.png,p,0,3,3,1,1,o,right_blue.png,right_orange.png,p,right,60fde665fa8ed91a1c462c3e,001,2021-08-01_12h32.51.717,arrow_simon_norep,2021.1.2,MacIntel,59.99880002,,,,,,,,,,,,,,,,,,,,,,,,,,,,,,,,,,,,,,
,,,o,1,1.7853,0,0.975246753,#a3d0fb,,right_blue.png,o,1,0,4,1,1,o,right_blue.png,right_orange.png,p,right,60fde665fa8ed91a1c462c3e,001,2021-08-01_12h32.51.717,arrow_simon_norep,2021.1.2,MacIntel,59.99880002,,,,,,,,,,,,,,,,,,,,,,,,,,,,,,,,,,,,,,
,,,q,1,1.7637,0,0.87094269,#f3af84,,left_orange.png,q,1,1,5,3,1,w,left_blue.png,left_orange.png,q,right,60fde665fa8ed91a1c462c3e,001,2021-08-01_12h32.51.717,arrow_simon_norep,2021.1.2,MacIntel,59.99880002,,,,,,,,,,,,,,,,,,,,,,,,,,,,,,,,,,,,,,
,,,w,1,1.6204,0,0.579695393,#a3d0fb,,left_blue.png,w,1,2,6,2,1,w,left_blue.png,left_orange.png,q,left,60fde665fa8ed91a1c462c3e,001,2021-08-01_12h32.51.717,arrow_simon_norep,2021.1.2,MacIntel,59.99880002,,,,,,,,,,,,,,,,,,,,,,,,,,,,,,,,,,,,,,
,,,p,1,1.8479,0,0.809541473,#f3af84,,right_orange.png,p,1,3,7,0,1,o,right_blue.png,right_orange.png,p,left,60fde665fa8ed91a1c462c3e,001,2021-08-01_12h32.51.717,arrow_simon_norep,2021.1.2,MacIntel,59.99880002,,,,,,,,,,,,,,,,,,,,,,,,,,,,,,,,,,,,,,
,,,w,1,1.4283,0,0.12497959,#a3d0fb,,left_blue.png,w,2,0,8,3,1,w,left_blue.png,left_orange.png,q,right,60fde665fa8ed91a1c462c3e,001,2021-08-01_12h32.51.717,arrow_simon_norep,2021.1.2,MacIntel,59.99880002,,,,,,,,,,,,,,,,,,,,,,,,,,,,,,,,,,,,,,
,,,p,1,1.9471,0,0.899470199,#f3af84,,right_orange.png,p,2,1,9,1,1,o,right_blue.png,right_orange.png,p,right,60fde665fa8ed91a1c462c3e,001,2021-08-01_12h32.51.717,arrow_simon_norep,2021.1.2,MacIntel,59.99880002,,,,,,,,,,,,,,,,,,,,,,,,,,,,,,,,,,,,,,
,,,o,1,1.9035,0,0.701175937,#a3d0fb,,right_blue.png,o,2,2,10,1,1,o,right_blue.png,right_orange.png,p,right,60fde665fa8ed91a1c462c3e,001,2021-08-01_12h32.51.717,arrow_simon_norep,2021.1.2,MacIntel,59.99880002,,,,,,,,,,,,,,,,,,,,,,,,,,,,,,,,,,,,,,
,,,q,1,0.8733,0,0.230581312,#f3af84,,left_orange.png,q,2,3,11,2,1,w,left_blue.png,left_orange.png,q,left,60fde665fa8ed91a1c462c3e,001,2021-08-01_12h32.51.717,arrow_simon_norep,2021.1.2,MacIntel,59.99880002,,,,,,,,,,,,,,,,,,,,,,,,,,,,,,,,,,,,,,
,,,o,1,1.3844,0,0.285796817,#a3d0fb,,right_blue.png,o,3,0,12,0,1,o,right_blue.png,right_orange.png,p,left,60fde665fa8ed91a1c462c3e,001,2021-08-01_12h32.51.717,arrow_simon_norep,2021.1.2,MacIntel,59.99880002,,,,,,,,,,,,,,,,,,,,,,,,,,,,,,,,,,,,,,
,,,p,1,2.1894,0,0.807074982,#f3af84,,right_orange.png,p,3,1,13,1,1,o,right_blue.png,right_orange.png,p,right,60fde665fa8ed91a1c462c3e,001,2021-08-01_12h32.51.717,arrow_simon_norep,2021.1.2,MacIntel,59.99880002,,,,,,,,,,,,,,,,,,,,,,,,,,,,,,,,,,,,,,
,,,w,1,1.0477,0,0.162906907,#a3d0fb,,left_blue.png,w,3,2,14,2,1,w,left_blue.png,left_orange.png,q,left,60fde665fa8ed91a1c462c3e,001,2021-08-01_12h32.51.717,arrow_simon_norep,2021.1.2,MacIntel,59.99880002,,,,,,,,,,,,,,,,,,,,,,,,,,,,,,,,,,,,,,
,,,q,1,1.6375,0,0.561965717,#f3af84,,left_orange.png,q,3,3,15,3,1,w,left_blue.png,left_orange.png,q,right,60fde665fa8ed91a1c462c3e,001,2021-08-01_12h32.51.717,arrow_simon_norep,2021.1.2,MacIntel,59.99880002,,,,,,,,,,,,,,,,,,,,,,,,,,,,,,,,,,,,,,
,,,o,1,1.5144,0,0.731499298,#a3d0fb,,right_blue.png,o,4,0,16,1,1,o,right_blue.png,right_orange.png,p,right,60fde665fa8ed91a1c462c3e,001,2021-08-01_12h32.51.717,arrow_simon_norep,2021.1.2,MacIntel,59.99880002,,,,,,,,,,,,,,,,,,,,,,,,,,,,,,,,,,,,,,
,,,p,1,3.1296,0,0.839983411,#f3af84,,right_orange.png,p,4,1,17,0,1,o,right_blue.png,right_orange.png,p,left,60fde665fa8ed91a1c462c3e,001,2021-08-01_12h32.51.717,arrow_simon_norep,2021.1.2,MacIntel,59.99880002,,,,,,,,,,,,,,,,,,,,,,,,,,,,,,,,,,,,,,
,,,o,1,1.4404,0,0.729108522,#a3d0fb,,right_blue.png,o,4,2,18,1,1,o,right_blue.png,right_orange.png,p,right,60fde665fa8ed91a1c462c3e,001,2021-08-01_12h32.51.717,arrow_simon_norep,2021.1.2,MacIntel,59.99880002,,,,,,,,,,,,,,,,,,,,,,,,,,,,,,,,,,,,,,
,,,p,1,1.0713,0,0.239471325,#f3af84,,right_orange.png,p,4,3,19,0,1,o,right_blue.png,right_orange.png,p,left,60fde665fa8ed91a1c462c3e,001,2021-08-01_12h32.51.717,arrow_simon_norep,2021.1.2,MacIntel,59.99880002,,,,,,,,,,,,,,,,,,,,,,,,,,,,,,,,,,,,,,
,,,w,1,2.0868,0,0.361891412,#a3d0fb,,left_blue.png,w,5,0,20,3,1,w,left_blue.png,left_orange.png,q,right,60fde665fa8ed91a1c462c3e,001,2021-08-01_12h32.51.717,arrow_simon_norep,2021.1.2,MacIntel,59.99880002,,,,,,,,,,,,,,,,,,,,,,,,,,,,,,,,,,,,,,
,,,q,1,1.6268,0,0.874719908,#f3af84,,left_orange.png,q,5,1,21,2,1,w,left_blue.png,left_orange.png,q,left,60fde665fa8ed91a1c462c3e,001,2021-08-01_12h32.51.717,arrow_simon_norep,2021.1.2,MacIntel,59.99880002,,,,,,,,,,,,,,,,,,,,,,,,,,,,,,,,,,,,,,
,,,o,1,1.7458,0,0.80222958,#a3d0fb,,right_blue.png,o,5,2,22,1,1,o,right_blue.png,right_orange.png,p,right,60fde665fa8ed91a1c462c3e,001,2021-08-01_12h32.51.717,arrow_simon_norep,2021.1.2,MacIntel,59.99880002,,,,,,,,,,,,,,,,,,,,,,,,,,,,,,,,,,,,,,
,,,p,1,1.416,0,0.057675352,#f3af84,,right_orange.png,p,5,3,23,0,1,o,right_blue.png,right_orange.png,p,left,60fde665fa8ed91a1c462c3e,001,2021-08-01_12h32.51.717,arrow_simon_norep,2021.1.2,MacIntel,59.99880002,,,,,,,,,,,,,,,,,,,,,,,,,,,,,,,,,,,,,,
,,,w,1,2.2659,0,0.934800672,#a3d0fb,,left_blue.png,w,6,0,24,3,1,w,left_blue.png,left_orange.png,q,right,60fde665fa8ed91a1c462c3e,001,2021-08-01_12h32.51.717,arrow_simon_norep,2021.1.2,MacIntel,59.99880002,,,,,,,,,,,,,,,,,,,,,,,,,,,,,,,,,,,,,,
,,,p,1,1.4119,0,0.199733419,#f3af84,,right_orange.png,p,6,1,25,1,1,o,right_blue.png,right_orange.png,p,right,60fde665fa8ed91a1c462c3e,001,2021-08-01_12h32.51.717,arrow_simon_norep,2021.1.2,MacIntel,59.99880002,,,,,,,,,,,,,,,,,,,,,,,,,,,,,,,,,,,,,,
,,,w,1,1.5221,0,0.319430967,#a3d0fb,,left_blue.png,w,6,2,26,3,1,w,left_blue.png,left_orange.png,q,right,60fde665fa8ed91a1c462c3e,001,2021-08-01_12h32.51.717,arrow_simon_norep,2021.1.2,MacIntel,59.99880002,,,,,,,,,,,,,,,,,,,,,,,,,,,,,,,,,,,,,,
,,,q,1,2.5316,0,0.895176279,#f3af84,,left_orange.png,q,6,3,27,3,1,w,left_blue.png,left_orange.png,q,right,60fde665fa8ed91a1c462c3e,001,2021-08-01_12h32.51.717,arrow_simon_norep,2021.1.2,MacIntel,59.99880002,,,,,,,,,,,,,,,,,,,,,,,,,,,,,,,,,,,,,,
,,,w,1,1.9055,0,0.439709705,#a3d0fb,,left_blue.png,w,7,0,28,2,1,w,left_blue.png,left_orange.png,q,left,60fde665fa8ed91a1c462c3e,001,2021-08-01_12h32.51.717,arrow_simon_norep,2021.1.2,MacIntel,59.99880002,,,,,,,,,,,,,,,,,,,,,,,,,,,,,,,,,,,,,,
,,,p,1,1.0167,0,0.055956446,#f3af84,,right_orange.png,p,7,1,29,1,1,o,right_blue.png,right_orange.png,p,right,60fde665fa8ed91a1c462c3e,001,2021-08-01_12h32.51.717,arrow_simon_norep,2021.1.2,MacIntel,59.99880002,,,,,,,,,,,,,,,,,,,,,,,,,,,,,,,,,,,,,,
,,,w,0,1.653,1,0.763711418,#a3d0fb,,right_blue.png,o,7,2,30,0,1,o,right_blue.png,right_orange.png,p,left,60fde665fa8ed91a1c462c3e,001,2021-08-01_12h32.51.717,arrow_simon_norep,2021.1.2,MacIntel,59.99880002,,,,,,,,,,,,,,,,,,,,,,,,,,,,,,,,,,,,,,
,,,q,1,5.6232,0,0.020332814,#f3af84,,left_orange.png,q,7,3,31,3,1,w,left_blue.png,left_orange.png,q,right,60fde665fa8ed91a1c462c3e,001,2021-08-01_12h32.51.717,arrow_simon_norep,2021.1.2,MacIntel,59.99880002,,,,,,,,,,,,,,,,,,,,,,,,,,,,,,,,,,,,,,
,,,w,1,2.1964,0,0.913787286,#a3d0fb,,left_blue.png,w,8,0,32,2,1,w,left_blue.png,left_orange.png,q,left,60fde665fa8ed91a1c462c3e,001,2021-08-01_12h32.51.717,arrow_simon_norep,2021.1.2,MacIntel,59.99880002,,,,,,,,,,,,,,,,,,,,,,,,,,,,,,,,,,,,,,
,,,p,1,1.7317,0,0.763586195,#f3af84,,right_orange.png,p,8,1,33,0,1,o,right_blue.png,right_orange.png,p,left,60fde665fa8ed91a1c462c3e,001,2021-08-01_12h32.51.717,arrow_simon_norep,2021.1.2,MacIntel,59.99880002,,,,,,,,,,,,,,,,,,,,,,,,,,,,,,,,,,,,,,
,,,w,1,1.146,0,0.492034914,#a3d0fb,,left_blue.png,w,8,2,34,3,1,w,left_blue.png,left_orange.png,q,right,60fde665fa8ed91a1c462c3e,001,2021-08-01_12h32.51.717,arrow_simon_norep,2021.1.2,MacIntel,59.99880002,,,,,,,,,,,,,,,,,,,,,,,,,,,,,,,,,,,,,,
,,,q,1,1.2858,0,0.144990037,#f3af84,,left_orange.png,q,8,3,35,2,1,w,left_blue.png,left_orange.png,q,left,60fde665fa8ed91a1c462c3e,001,2021-08-01_12h32.51.717,arrow_simon_norep,2021.1.2,MacIntel,59.99880002,,,,,,,,,,,,,,,,,,,,,,,,,,,,,,,,,,,,,,
,,,w,1,1.2885,0,0.461843279,#a3d0fb,,left_blue.png,w,9,0,36,2,1,w,left_blue.png,left_orange.png,q,left,60fde665fa8ed91a1c462c3e,001,2021-08-01_12h32.51.717,arrow_simon_norep,2021.1.2,MacIntel,59.99880002,,,,,,,,,,,,,,,,,,,,,,,,,,,,,,,,,,,,,,
,,,q,1,1.4466,0,0.700684033,#f3af84,,left_orange.png,q,9,1,37,2,1,w,left_blue.png,left_orange.png,q,left,60fde665fa8ed91a1c462c3e,001,2021-08-01_12h32.51.717,arrow_simon_norep,2021.1.2,MacIntel,59.99880002,,,,,,,,,,,,,,,,,,,,,,,,,,,,,,,,,,,,,,
,,,o,0,1.5473,1,0.678290614,#a3d0fb,,left_blue.png,w,9,2,38,3,1,w,left_blue.png,left_orange.png,q,right,60fde665fa8ed91a1c462c3e,001,2021-08-01_12h32.51.717,arrow_simon_norep,2021.1.2,MacIntel,59.99880002,,,,,,,,,,,,,,,,,,,,,,,,,,,,,,,,,,,,,,
,,,q,1,2.398,0,0.95713188,#f3af84,,left_orange.png,q,9,3,39,2,1,w,left_blue.png,left_orange.png,q,left,60fde665fa8ed91a1c462c3e,001,2021-08-01_12h32.51.717,arrow_simon_norep,2021.1.2,MacIntel,59.99880002,,,,,,,,,,,,,,,,,,,,,,,,,,,,,,,,,,,,,,
,,,w,1,0.9716,0,0.395539373,#a3d0fb,,left_blue.png,w,10,0,40,2,1,w,left_blue.png,left_orange.png,q,left,60fde665fa8ed91a1c462c3e,001,2021-08-01_12h32.51.717,arrow_simon_norep,2021.1.2,MacIntel,59.99880002,,,,,,,,,,,,,,,,,,,,,,,,,,,,,,,,,,,,,,
,,,q,1,1.9191,0,0.225174126,#f3af84,,left_orange.png,q,10,1,41,3,1,w,left_blue.png,left_orange.png,q,right,60fde665fa8ed91a1c462c3e,001,2021-08-01_12h32.51.717,arrow_simon_norep,2021.1.2,MacIntel,59.99880002,,,,,,,,,,,,,,,,,,,,,,,,,,,,,,,,,,,,,,
,,,o,1,1.9231,0,0.904409072,#a3d0fb,,right_blue.png,o,10,2,42,1,1,o,right_blue.png,right_orange.png,p,right,60fde665fa8ed91a1c462c3e,001,2021-08-01_12h32.51.717,arrow_simon_norep,2021.1.2,MacIntel,59.99880002,,,,,,,,,,,,,,,,,,,,,,,,,,,,,,,,,,,,,,
,,,p,1,1.3874,0,0.07562338,#f3af84,,right_orange.png,p,10,3,43,0,1,o,right_blue.png,right_orange.png,p,left,60fde665fa8ed91a1c462c3e,001,2021-08-01_12h32.51.717,arrow_simon_norep,2021.1.2,MacIntel,59.99880002,,,,,,,,,,,,,,,,,,,,,,,,,,,,,,,,,,,,,,
,,,w,1,2.032,0,0.283073063,#a3d0fb,,left_blue.png,w,11,0,44,3,1,w,left_blue.png,left_orange.png,q,right,60fde665fa8ed91a1c462c3e,001,2021-08-01_12h32.51.717,arrow_simon_norep,2021.1.2,MacIntel,59.99880002,,,,,,,,,,,,,,,,,,,,,,,,,,,,,,,,,,,,,,
,,,q,1,1.9827,0,0.353723869,#f3af84,,left_orange.png,q,11,1,45,2,1,w,left_blue.png,left_orange.png,q,left,60fde665fa8ed91a1c462c3e,001,2021-08-01_12h32.51.717,arrow_simon_norep,2021.1.2,MacIntel,59.99880002,,,,,,,,,,,,,,,,,,,,,,,,,,,,,,,,,,,,,,
,,,o,1,1.553,0,0.546203315,#a3d0fb,,right_blue.png,o,11,2,46,1,1,o,right_blue.png,right_orange.png,p,right,60fde665fa8ed91a1c462c3e,001,2021-08-01_12h32.51.717,arrow_simon_norep,2021.1.2,MacIntel,59.99880002,,,,,,,,,,,,,,,,,,,,,,,,,,,,,,,,,,,,,,
,,,q,1,1.2825,0,0.448878681,#f3af84,,left_orange.png,q,11,3,47,3,1,w,left_blue.png,left_orange.png,q,right,60fde665fa8ed91a1c462c3e,001,2021-08-01_12h32.51.717,arrow_simon_norep,2021.1.2,MacIntel,59.99880002,,,,,,,,,,,,,,,,,,,,,,,,,,,,,,,,,,,,,,
,,,o,1,0.9474,0,0.026442481,#a3d0fb,,right_blue.png,o,12,0,48,0,1,o,right_blue.png,right_orange.png,p,left,60fde665fa8ed91a1c462c3e,001,2021-08-01_12h32.51.717,arrow_simon_norep,2021.1.2,MacIntel,59.99880002,,,,,,,,,,,,,,,,,,,,,,,,,,,,,,,,,,,,,,
,,,q,1,1.7799,0,0.993062788,#f3af84,,left_orange.png,q,12,1,49,2,1,w,left_blue.png,left_orange.png,q,left,60fde665fa8ed91a1c462c3e,001,2021-08-01_12h32.51.717,arrow_simon_norep,2021.1.2,MacIntel,59.99880002,,,,,,,,,,,,,,,,,,,,,,,,,,,,,,,,,,,,,,
,,,w,1,1.7798,0,0.960530591,#a3d0fb,,left_blue.png,w,12,2,50,3,1,w,left_blue.png,left_orange.png,q,right,60fde665fa8ed91a1c462c3e,001,2021-08-01_12h32.51.717,arrow_simon_norep,2021.1.2,MacIntel,59.99880002,,,,,,,,,,,,,,,,,,,,,,,,,,,,,,,,,,,,,,
,,,q,1,1.0129,0,0.297522439,#f3af84,,left_orange.png,q,12,3,51,3,1,w,left_blue.png,left_orange.png,q,right,60fde665fa8ed91a1c462c3e,001,2021-08-01_12h32.51.717,arrow_simon_norep,2021.1.2,MacIntel,59.99880002,,,,,,,,,,,,,,,,,,,,,,,,,,,,,,,,,,,,,,
,,,o,1,1.721,0,0.920003564,#a3d0fb,,right_blue.png,o,13,0,52,0,1,o,right_blue.png,right_orange.png,p,left,60fde665fa8ed91a1c462c3e,001,2021-08-01_12h32.51.717,arrow_simon_norep,2021.1.2,MacIntel,59.99880002,,,,,,,,,,,,,,,,,,,,,,,,,,,,,,,,,,,,,,
,,,p,1,0.9149,0,0.300348162,#f3af84,,right_orange.png,p,13,1,53,0,1,o,right_blue.png,right_orange.png,p,left,60fde665fa8ed91a1c462c3e,001,2021-08-01_12h32.51.717,arrow_simon_norep,2021.1.2,MacIntel,59.99880002,,,,,,,,,,,,,,,,,,,,,,,,,,,,,,,,,,,,,,
,,,o,1,1.1203,0,0.375326413,#a3d0fb,,right_blue.png,o,13,2,54,0,1,o,right_blue.png,right_orange.png,p,left,60fde665fa8ed91a1c462c3e,001,2021-08-01_12h32.51.717,arrow_simon_norep,2021.1.2,MacIntel,59.99880002,,,,,,,,,,,,,,,,,,,,,,,,,,,,,,,,,,,,,,
,,,p,1,1.2642,0,0.633674154,#f3af84,,right_orange.png,p,13,3,55,1,1,o,right_blue.png,right_orange.png,p,right,60fde665fa8ed91a1c462c3e,001,2021-08-01_12h32.51.717,arrow_simon_norep,2021.1.2,MacIntel,59.99880002,,,,,,,,,,,,,,,,,,,,,,,,,,,,,,,,,,,,,,
,,,o,1,1.5502,0,0.832571891,#a3d0fb,,right_blue.png,o,14,0,56,0,1,o,right_blue.png,right_orange.png,p,left,60fde665fa8ed91a1c462c3e,001,2021-08-01_12h32.51.717,arrow_simon_norep,2021.1.2,MacIntel,59.99880002,,,,,,,,,,,,,,,,,,,,,,,,,,,,,,,,,,,,,,
,,,p,1,1.7002,0,0.996830594,#f3af84,,right_orange.png,p,14,1,57,0,1,o,right_blue.png,right_orange.png,p,left,60fde665fa8ed91a1c462c3e,001,2021-08-01_12h32.51.717,arrow_simon_norep,2021.1.2,MacIntel,59.99880002,,,,,,,,,,,,,,,,,,,,,,,,,,,,,,,,,,,,,,
,,,o,1,1.7212,0,0.932758508,#a3d0fb,,right_blue.png,o,14,2,58,0,1,o,right_blue.png,right_orange.png,p,left,60fde665fa8ed91a1c462c3e,001,2021-08-01_12h32.51.717,arrow_simon_norep,2021.1.2,MacIntel,59.99880002,,,,,,,,,,,,,,,,,,,,,,,,,,,,,,,,,,,,,,
,,,p,1,1.0128,0,0.296915561,#f3af84,,right_orange.png,p,14,3,59,1,1,o,right_blue.png,right_orange.png,p,right,60fde665fa8ed91a1c462c3e,001,2021-08-01_12h32.51.717,arrow_simon_norep,2021.1.2,MacIntel,59.99880002,,,,,,,,,,,,,,,,,,,,,,,,,,,,,,,,,,,,,,
,,,,,,,,,,,,,,,,,,,,,,60fde665fa8ed91a1c462c3e,001,2021-08-01_12h32.51.717,arrow_simon_norep,2021.1.2,MacIntel,59.99880002,space,21.6653,1,0,1,0,1,,,,,,,,,,,,,,,,,,,,,,,,,,,,,,,
,,,,,,,,,,,,,,,,,,,,,,60fde665fa8ed91a1c462c3e,001,2021-08-01_12h32.51.717,arrow_simon_norep,2021.1.2,MacIntel,59.99880002,,,,,,,,space,0,8.0787,p,105.9763,0,0,0,0,1,,,,,,,,,,,,,,,,,,,,,
,,,,,,,,,,,,,,,,,,,,,,60fde665fa8ed91a1c462c3e,001,2021-08-01_12h32.51.717,arrow_simon_norep,2021.1.2,MacIntel,59.99880002,,,,,,,,,,,p,8.0509,1,0,1,0,1,,,,,,,,,,,,,,,,,,,,,
,,,,,,,,,,,,,,,,,,,,,,60fde665fa8ed91a1c462c3e,001,2021-08-01_12h32.51.717,arrow_simon_norep,2021.1.2,MacIntel,59.99880002,,,,,,,,,,,q,5.5493,2,0,2,0,1,,,,,,,,,,,,,,,,,,,,,
,,,,,,,,,,,,,,,,,,,,,,60fde665fa8ed91a1c462c3e,001,2021-08-01_12h32.51.717,arrow_simon_norep,2021.1.2,MacIntel,59.99880002,,,,,,,,,,,w,1.7066,3,0,3,0,1,,,,,,,,,,,,,,,,,,,,,
,,,,,,,,,,,,,,,,,,,,,,60fde665fa8ed91a1c462c3e,001,2021-08-01_12h32.51.717,arrow_simon_norep,2021.1.2,MacIntel,59.99880002,,,,,,,,,,,o,2.9579,4,0,4,0,1,,,,,,,,,,,,,,,,,,,,,
,,,,,,,,,,,,,,,,,,,,,,60fde665fa8ed91a1c462c3e,001,2021-08-01_12h32.51.717,arrow_simon_norep,2021.1.2,MacIntel,59.99880002,,,,,,,,,,,p,2.8806,5,0,5,0,1,,,,,,,,,,,,,,,,,,,,,
,,,,,,,,,,,,,,,,,,,,,,60fde665fa8ed91a1c462c3e,001,2021-08-01_12h32.51.717,arrow_simon_norep,2021.1.2,MacIntel,59.99880002,,,,,,,,,,,w,2.9302,6,0,6,0,1,,,,,,,,,,,,,,,,,,,,,
,,,,,,,,,,,,,,,,,,,,,,60fde665fa8ed91a1c462c3e,001,2021-08-01_12h32.51.717,arrow_simon_norep,2021.1.2,MacIntel,59.99880002,,,,,,,,,,,p,3.0147,7,0,7,0,1,,,,,,,,,,,,,,,,,,,,,
,,,,,,,,,,,,,,,,,,,,,,60fde665fa8ed91a1c462c3e,001,2021-08-01_12h32.51.717,arrow_simon_norep,2021.1.2,MacIntel,59.99880002,,,,,,,,,,,q,2.5818,8,0,8,0,1,,,,,,,,,,,,,,,,,,,,,
,,,,,,,,,,,,,,,,,,,,,,60fde665fa8ed91a1c462c3e,001,2021-08-01_12h32.51.717,arrow_simon_norep,2021.1.2,MacIntel,59.99880002,,,,,,,,,,,p,2.8803,9,0,9,0,1,,,,,,,,,,,,,,,,,,,,,
,,,,,,,,,,,,,,,,,,,,,,60fde665fa8ed91a1c462c3e,001,2021-08-01_12h32.51.717,arrow_simon_norep,2021.1.2,MacIntel,59.99880002,,,,,,,,,,,p,2.2811,10,0,10,0,1,,,,,,,,,,,,,,,,,,,,,
,,,,,,,,,,,,,,,,,,,,,,60fde665fa8ed91a1c462c3e,001,2021-08-01_12h32.51.717,arrow_simon_norep,2021.1.2,MacIntel,59.99880002,,,,,,,,,,,p,2.5156,11,0,11,0,1,,,,,,,,,,,,,,,,,,,,,
,,,,,,,,,,,,,,,,,,,,,,60fde665fa8ed91a1c462c3e,001,2021-08-01_12h32.51.717,arrow_simon_norep,2021.1.2,MacIntel,59.99880002,,,,,,,,,,,p,2.8669,12,0,12,0,1,,,,,,,,,,,,,,,,,,,,,
,,,,,,,,,,,,,,,,,,,,,,60fde665fa8ed91a1c462c3e,001,2021-08-01_12h32.51.717,arrow_simon_norep,2021.1.2,MacIntel,59.99880002,,,,,,,,,,,p,2.5304,13,0,13,0,1,,,,,,,,,,,,,,,,,,,,,
,,,,,,,,,,,,,,,,,,,,,,60fde665fa8ed91a1c462c3e,001,2021-08-01_12h32.51.717,arrow_simon_norep,2021.1.2,MacIntel,59.99880002,,,,,,,,,,,p,2.4078,14,0,14,0,1,,,,,,,,,,,,,,,,,,,,,
,,,,,,,,,,,,,,,,,,,,,,60fde665fa8ed91a1c462c3e,001,2021-08-01_12h32.51.717,arrow_simon_norep,2021.1.2,MacIntel,59.99880002,,,,,,,,,,,p,2.3076,15,0,15,0,1,,,,,,,,,,,,,,,,,,,,,
,,,,,,,,,,,,,,,,,,,,,,60fde665fa8ed91a1c462c3e,001,2021-08-01_12h32.51.717,arrow_simon_norep,2021.1.2,MacIntel,59.99880002,,,,,,,,,,,p,2.8636,16,0,16,0,1,,,,,,,,,,,,,,,,,,,,,
,,,,,,,,,,,,,,,,,,,,,,60fde665fa8ed91a1c462c3e,001,2021-08-01_12h32.51.717,arrow_simon_norep,2021.1.2,MacIntel,59.99880002,,,,,,,,,,,p,2.7994,17,0,17,0,1,,,,,,,,,,,,,,,,,,,,,
,,,,,,,,,,,,,,,,,,,,,,60fde665fa8ed91a1c462c3e,001,2021-08-01_12h32.51.717,arrow_simon_norep,2021.1.2,MacIntel,59.99880002,,,,,,,,,,,p,1.8951,18,0,18,0,1,,,,,,,,,,,,,,,,,,,,,
,,,,,,,,,,,,,,,,,,,,,,60fde665fa8ed91a1c462c3e,001,2021-08-01_12h32.51.717,arrow_simon_norep,2021.1.2,MacIntel,59.99880002,,,,,,,,,,,p,1.8814,19,0,19,0,1,,,,,,,,,,,,,,,,,,,,,
,,,,,,,,,,,,,,,,,,,,,,60fde665fa8ed91a1c462c3e,001,2021-08-01_12h32.51.717,arrow_simon_norep,2021.1.2,MacIntel,59.99880002,,,,,,,,,,,p,1.8889,20,0,20,0,1,,,,,,,,,,,,,,,,,,,,,
,,,,,,,,,,,,,,,,,,,,,,60fde665fa8ed91a1c462c3e,001,2021-08-01_12h32.51.717,arrow_simon_norep,2021.1.2,MacIntel,59.99880002,,,,,,,,,,,p,2.4214,21,0,21,0,1,,,,,,,,,,,,,,,,,,,,,
,,,,,,,,,,,,,,,,,,,,,,60fde665fa8ed91a1c462c3e,001,2021-08-01_12h32.51.717,arrow_simon_norep,2021.1.2,MacIntel,59.99880002,,,,,,,,,,,p,2.2665,22,0,22,0,1,,,,,,,,,,,,,,,,,,,,,
,,,,,,,,,,,,,,,,,,,,,,60fde665fa8ed91a1c462c3e,001,2021-08-01_12h32.51.717,arrow_simon_norep,2021.1.2,MacIntel,59.99880002,,,,,,,,,,,p,2.3646,23,0,23,0,1,,,,,,,,,,,,,,,,,,,,,
,,,,,,,,,,,,,,,,,,,,,,60fde665fa8ed91a1c462c3e,001,2021-08-01_12h32.51.717,arrow_simon_norep,2021.1.2,MacIntel,59.99880002,,,,,,,,,,,p,2.0642,24,0,24,0,1,,,,,,,,,,,,,,,,,,,,,
,,,,,,,,,,,,,,,,,,,,,,60fde665fa8ed91a1c462c3e,001,2021-08-01_12h32.51.717,arrow_simon_norep,2021.1.2,MacIntel,59.99880002,,,,,,,,,,,p,2.5138,25,0,25,0,1,,,,,,,,,,,,,,,,,,,,,
,,,,,,,,,,,,,,,,,,,,,,60fde665fa8ed91a1c462c3e,001,2021-08-01_12h32.51.717,arrow_simon_norep,2021.1.2,MacIntel,59.99880002,,,,,,,,,,,p,2.581,26,0,26,0,1,,,,,,,,,,,,,,,,,,,,,
,,,,,,,,,,,,,,,,,,,,,,60fde665fa8ed91a1c462c3e,001,2021-08-01_12h32.51.717,arrow_simon_norep,2021.1.2,MacIntel,59.99880002,,,,,,,,,,,p,2.4494,27,0,27,0,1,,,,,,,,,,,,,,,,,,,,,
,,,,,,,,,,,,,,,,,,,,,,60fde665fa8ed91a1c462c3e,001,2021-08-01_12h32.51.717,arrow_simon_norep,2021.1.2,MacIntel,59.99880002,,,,,,,,,,,p,2.5514,28,0,28,0,1,,,,,,,,,,,,,,,,,,,,,
,,,,,,,,,,,,,,,,,,,,,,60fde665fa8ed91a1c462c3e,001,2021-08-01_12h32.51.717,arrow_simon_norep,2021.1.2,MacIntel,59.99880002,,,,,,,,,,,p,2.6485,29,0,29,0,1,,,,,,,,,,,,,,,,,,,,,
,,,,,,,,,,,,,,,,,,,,,,60fde665fa8ed91a1c462c3e,001,2021-08-01_12h32.51.717,arrow_simon_norep,2021.1.2,MacIntel,59.99880002,,,,,,,,,,,p,2.284,30,0,30,0,1,,,,,,,,,,,,,,,,,,,,,
,,,,,,,,,,,,,,,,,,,,,,60fde665fa8ed91a1c462c3e,001,2021-08-01_12h32.51.717,arrow_simon_norep,2021.1.2,MacIntel,59.99880002,,,,,,,,,,,p,2.4899,31,0,31,0,1,,,,,,,,,,,,,,,,,,,,,
,,,,,,,,,,,,,,,,,,,,,,60fde665fa8ed91a1c462c3e,001,2021-08-01_12h32.51.717,arrow_simon_norep,2021.1.2,MacIntel,59.99880002,,,,,,,,,,,p,2.5492,32,0,32,0,1,,,,,,,,,,,,,,,,,,,,,
,,,,,,,,,,,,,,,,,,,,,,60fde665fa8ed91a1c462c3e,001,2021-08-01_12h32.51.717,arrow_simon_norep,2021.1.2,MacIntel,59.99880002,,,,,,,,,,,p,2.6142,33,0,33,0,1,,,,,,,,,,,,,,,,,,,,,
,,,,,,,,,,,,,,,,,,,,,,60fde665fa8ed91a1c462c3e,001,2021-08-01_12h32.51.717,arrow_simon_norep,2021.1.2,MacIntel,59.99880002,,,,,,,,,,,p,2.4185,34,0,34,0,1,,,,,,,,,,,,,,,,,,,,,
,,,,,,,,,,,,,,,,,,,,,,60fde665fa8ed91a1c462c3e,001,2021-08-01_12h32.51.717,arrow_simon_norep,2021.1.2,MacIntel,59.99880002,,,,,,,,,,,p,2.3333,35,0,35,0,1,,,,,,,,,,,,,,,,,,,,,
,,,,,,,,,,,,,,,,,,,,,,60fde665fa8ed91a1c462c3e,001,2021-08-01_12h32.51.717,arrow_simon_norep,2021.1.2,MacIntel,59.99880002,,,,,,,,,,,p,2.612,36,0,36,0,1,,,,,,,,,,,,,,,,,,,,,
,,,,,,,,,,,,,,,,,,,,,,60fde665fa8ed91a1c462c3e,001,2021-08-01_12h32.51.717,arrow_simon_norep,2021.1.2,MacIntel,59.99880002,,,,,,,,,,,p,2.4631,37,0,37,0,1,,,,,,,,,,,,,,,,,,,,,
,,,,,,,,,,,,,,,,,,,,,,60fde665fa8ed91a1c462c3e,001,2021-08-01_12h32.51.717,arrow_simon_norep,2021.1.2,MacIntel,59.99880002,,,,,,,,,,,p,2.722,38,0,38,0,1,,,,,,,,,,,,,,,,,,,,,
,,,,,,,,,,,,,,,,,,,,,,60fde665fa8ed91a1c462c3e,001,2021-08-01_12h32.51.717,arrow_simon_norep,2021.1.2,MacIntel,59.99880002,,,,,,,,,,,p,2.2975,39,0,39,0,1,,,,,,,,,,,,,,,,,,,,,
,,,,,,,,,,,,,,,,,,,,,,60fde665fa8ed91a1c462c3e,001,2021-08-01_12h32.51.717,arrow_simon_norep,2021.1.2,MacIntel,59.99880002,,,,,,,,,,,p,2.5226,40,0,40,0,1,,,,,,,,,,,,,,,,,,,,,
,,,,,,,,,,,,,,,,,,,,,,60fde665fa8ed91a1c462c3e,001,2021-08-01_12h32.51.717,arrow_simon_norep,2021.1.2,MacIntel,59.99880002,,,,,,,,,,,p,2.5028,41,0,41,0,1,,,,,,,,,,,,,,,,,,,,,
,,,,,,,,,,,,,,,,,,,,,,60fde665fa8ed91a1c462c3e,001,2021-08-01_12h32.51.717,arrow_simon_norep,2021.1.2,MacIntel,59.99880002,,,,,,,,,,,p,2.5214,42,0,42,0,1,,,,,,,,,,,,,,,,,,,,,
,,,,,,,,,,,,,,,,,,,,,,60fde665fa8ed91a1c462c3e,001,2021-08-01_12h32.51.717,arrow_simon_norep,2021.1.2,MacIntel,59.99880002,,,,,,,,,,,p,2.5457,43,0,43,0,1,,,,,,,,,,,,,,,,,,,,,
,,,,,,,,,,,,,,,,,,,,,,60fde665fa8ed91a1c462c3e,001,2021-08-01_12h32.51.717,arrow_simon_norep,2021.1.2,MacIntel,59.99880002,,,,,,,,,,,p,2.4472,44,0,44,0,1,,,,,,,,,,,,,,,,,,,,,
,,,,,,,,,,,,,,,,,,,,,,60fde665fa8ed91a1c462c3e,001,2021-08-01_12h32.51.717,arrow_simon_norep,2021.1.2,MacIntel,59.99880002,,,,,,,,,,,p,2.9861,45,0,45,0,1,,,,,,,,,,,,,,,,,,,,,
,,,,,,,,,,,,,,,,,,,,,,60fde665fa8ed91a1c462c3e,001,2021-08-01_12h32.51.717,arrow_simon_norep,2021.1.2,MacIntel,59.99880002,,,,,,,,,,,p,1.5721,46,0,46,0,1,,,,,,,,,,,,,,,,,,,,,
,,,,,,,,,,,,,,,,,,,,,,60fde665fa8ed91a1c462c3e,001,2021-08-01_12h32.51.717,arrow_simon_norep,2021.1.2,MacIntel,59.99880002,,,,,,,,,,,p,2.2286,47,0,47,0,1,,,,,,,,,,,,,,,,,,,,,
,,,,,,,,,,,,,,,,,,,,,,60fde665fa8ed91a1c462c3e,001,2021-08-01_12h32.51.717,arrow_simon_norep,2021.1.2,MacIntel,59.99880002,,,,,,,,,,,p,2.5486,48,0,48,0,1,,,,,,,,,,,,,,,,,,,,,
,,,,,,,,,,,,,,,,,,,,,,60fde665fa8ed91a1c462c3e,001,2021-08-01_12h32.51.717,arrow_simon_norep,2021.1.2,MacIntel,59.99880002,,,,,,,,,,,p,2.407,49,0,49,0,1,,,,,,,,,,,,,,,,,,,,,
,,,,,,,,,,,,,,,,,,,,,,60fde665fa8ed91a1c462c3e,001,2021-08-01_12h32.51.717,arrow_simon_norep,2021.1.2,MacIntel,59.99880002,,,,,,,,,,,p,2.2414,50,0,50,0,1,,,,,,,,,,,,,,,,,,,,,
,,,,,,,,,,,,,,,,,,,,,,60fde665fa8ed91a1c462c3e,001,2021-08-01_12h32.51.717,arrow_simon_norep,2021.1.2,MacIntel,59.99880002,,,,,,,,,,,p,2.7658,51,0,51,0,1,,,,,,,,,,,,,,,,,,,,,
,,,,,,,,,,,,,,,,,,,,,,60fde665fa8ed91a1c462c3e,001,2021-08-01_12h32.51.717,arrow_simon_norep,2021.1.2,MacIntel,59.99880002,,,,,,,,,,,p,2.6798,52,0,52,0,1,,,,,,,,,,,,,,,,,,,,,
,,,,,,,,,,,,,,,,,,,,,,60fde665fa8ed91a1c462c3e,001,2021-08-01_12h32.51.717,arrow_simon_norep,2021.1.2,MacIntel,59.99880002,,,,,,,,,,,p,2.0799,53,0,53,0,1,,,,,,,,,,,,,,,,,,,,,
,,,,,,,,,,,,,,,,,,,,,,60fde665fa8ed91a1c462c3e,001,2021-08-01_12h32.51.717,arrow_simon_norep,2021.1.2,MacIntel,59.99880002,,,,,,,,,,,p,2.3515,54,0,54,0,1,,,,,,,,,,,,,,,,,,,,,
,,,,,,,,,,,,,,,,,,,,,,60fde665fa8ed91a1c462c3e,001,2021-08-01_12h32.51.717,arrow_simon_norep,2021.1.2,MacIntel,59.99880002,,,,,,,,,,,p,2.4972,55,0,55,0,1,,,,,,,,,,,,,,,,,,,,,
,,,,,,,,,,,,,,,,,,,,,,60fde665fa8ed91a1c462c3e,001,2021-08-01_12h32.51.717,arrow_simon_norep,2021.1.2,MacIntel,59.99880002,,,,,,,,,,,p,2.3986,56,0,56,0,1,,,,,,,,,,,,,,,,,,,,,
,,,,,,,,,,,,,,,,,,,,,,60fde665fa8ed91a1c462c3e,001,2021-08-01_12h32.51.717,arrow_simon_norep,2021.1.2,MacIntel,59.99880002,,,,,,,,,,,p,2.5698,57,0,57,0,1,,,,,,,,,,,,,,,,,,,,,
,,,,,,,,,,,,,,,,,,,,,,60fde665fa8ed91a1c462c3e,001,2021-08-01_12h32.51.717,arrow_simon_norep,2021.1.2,MacIntel,59.99880002,,,,,,,,,,,p,2.7795,58,0,58,0,1,,,,,,,,,,,,,,,,,,,,,
,,,,,,,,,,,,,,,,,,,,,,60fde665fa8ed91a1c462c3e,001,2021-08-01_12h32.51.717,arrow_simon_norep,2021.1.2,MacIntel,59.99880002,,,,,,,,,,,p,2.3967,59,0,59,0,1,,,,,,,,,,,,,,,,,,,,,
,,,,,,0,1.730740202,#a3d0fb,,left_blue.png,w,,,,,,w,left_blue.png,left_orange.png,q,right,60fde665fa8ed91a1c462c3e,001,2021-08-01_12h32.51.717,arrow_simon_norep,2021.1.2,MacIntel,59.99880002,,,,,,,,,,,,,,,,,,space,0,59.2825,p,0,3.4676,1,TRUE,FALSE,0,0,0,3,1,,,,,,,
,,,,,,0,2.107452942,#f3af84,,right_orange.png,p,,,,,,o,right_blue.png,right_orange.png,p,left,60fde665fa8ed91a1c462c3e,001,2021-08-01_12h32.51.717,arrow_simon_norep,2021.1.2,MacIntel,59.99880002,,,,,,,,,,,,,,,,,,,,,w,0,2.4199,2,TRUE,FALSE,0,1,1,0,1,,,,,,,
,,,,,,0,2.253204102,#a3d0fb,,right_blue.png,o,,,,,,o,right_blue.png,right_orange.png,p,right,60fde665fa8ed91a1c462c3e,001,2021-08-01_12h32.51.717,arrow_simon_norep,2021.1.2,MacIntel,59.99880002,,,,,,,,,,,,,,,,,,,,,p,0,1.801,3,TRUE,FALSE,0,2,2,1,1,,,,,,,
,,,,,,0,1.552877932,#f3af84,,right_orange.png,p,,,,,,o,right_blue.png,right_orange.png,p,left,60fde665fa8ed91a1c462c3e,001,2021-08-01_12h32.51.717,arrow_simon_norep,2021.1.2,MacIntel,59.99880002,,,,,,,,,,,,,,,,,,,,,w,0,1.1354,4,FALSE,TRUE,0,3,3,0,1,,,,,,,
,,,,,,0,2.219958227,#a3d0fb,,left_blue.png,w,,,,,,w,left_blue.png,left_orange.png,q,left,60fde665fa8ed91a1c462c3e,001,2021-08-01_12h32.51.717,arrow_simon_norep,2021.1.2,MacIntel,59.99880002,,,,,,,,,,,,,,,,,,,,,q,0,1.8064,5,TRUE,FALSE,1,0,4,2,1,,,,,,,
,,,,,,1,1.815878993,#f3af84,,left_orange.png,q,,,,,,w,left_blue.png,left_orange.png,q,right,60fde665fa8ed91a1c462c3e,001,2021-08-01_12h32.51.717,arrow_simon_norep,2021.1.2,MacIntel,59.99880002,,,,,,,,,,,,,,,,,,,,,o,0,1.5618,6,FALSE,FALSE,1,1,5,3,1,,,,,,,
,,,,,,1,2.28839488,#a3d0fb,,left_blue.png,w,,,,,,w,left_blue.png,left_orange.png,q,right,60fde665fa8ed91a1c462c3e,001,2021-08-01_12h32.51.717,arrow_simon_norep,2021.1.2,MacIntel,59.99880002,,,,,,,,,,,,,,,,,,,,,w,1,3.4244,7,TRUE,FALSE,1,2,6,3,1,,,,,,,
,,,,,,1,2.17424039,#f3af84,,right_orange.png,p,,,,,,o,right_blue.png,right_orange.png,p,left,60fde665fa8ed91a1c462c3e,001,2021-08-01_12h32.51.717,arrow_simon_norep,2021.1.2,MacIntel,59.99880002,,,,,,,,,,,,,,,,,,,,,o,0,1.9678,8,TRUE,FALSE,1,3,7,0,1,,,,,,,
,,,,,,1,2.263364314,#a3d0fb,,right_blue.png,o,,,,,,o,right_blue.png,right_orange.png,p,right,60fde665fa8ed91a1c462c3e,001,2021-08-01_12h32.51.717,arrow_simon_norep,2021.1.2,MacIntel,59.99880002,,,,,,,,,,,,,,,,,,,,,p,0,1.9354,9,TRUE,FALSE,2,0,8,1,1,,,,,,,
,,,,,,1,2.234798618,#f3af84,,right_orange.png,p,,,,,,o,right_blue.png,right_orange.png,p,left,60fde665fa8ed91a1c462c3e,001,2021-08-01_12h32.51.717,arrow_simon_norep,2021.1.2,MacIntel,59.99880002,,,,,,,,,,,,,,,,,,,,,o,0,1.6737,10,TRUE,FALSE,2,1,9,0,1,,,,,,,
,,,,,,1,1.916297743,#a3d0fb,,right_blue.png,o,,,,,,o,right_blue.png,right_orange.png,p,left,60fde665fa8ed91a1c462c3e,001,2021-08-01_12h32.51.717,arrow_simon_norep,2021.1.2,MacIntel,59.99880002,,,,,,,,,,,,,,,,,,,,,p,0,1.311,11,FALSE,TRUE,2,2,10,0,1,,,,,,,
,,,,,,1,1.509168062,#f3af84,,right_orange.png,p,,,,,,o,right_blue.png,right_orange.png,p,right,60fde665fa8ed91a1c462c3e,001,2021-08-01_12h32.51.717,arrow_simon_norep,2021.1.2,MacIntel,59.99880002,,,,,,,,,,,,,,,,,,,,,o,0,0.885,12,FALSE,TRUE,2,3,11,1,1,,,,,,,
,,,,,,1,1.56282188,#a3d0fb,,right_blue.png,o,,,,,,o,right_blue.png,right_orange.png,p,left,60fde665fa8ed91a1c462c3e,001,2021-08-01_12h32.51.717,arrow_simon_norep,2021.1.2,MacIntel,59.99880002,,,,,,,,,,,,,,,,,,,,,w,0,1.8376,13,TRUE,FALSE,3,0,12,0,1,,,,,,,
,,,,,,1,2.023415062,#f3af84,,right_orange.png,p,,,,,,o,right_blue.png,right_orange.png,p,right,60fde665fa8ed91a1c462c3e,001,2021-08-01_12h32.51.717,arrow_simon_norep,2021.1.2,MacIntel,59.99880002,,,,,,,,,,,,,,,,,,,,,p,1,1.851,14,TRUE,FALSE,3,1,13,1,1,,,,,,,
,,,,,,1,2.150687909,#a3d0fb,,left_blue.png,w,,,,,,w,left_blue.png,left_orange.png,q,right,60fde665fa8ed91a1c462c3e,001,2021-08-01_12h32.51.717,arrow_simon_norep,2021.1.2,MacIntel,59.99880002,,,,,,,,,,,,,,,,,,,,,w,1,3.9272,15,TRUE,FALSE,3,2,14,3,1,,,,,,,
,,,,,,1,2.16580037,#f3af84,,left_orange.png,q,,,,,,w,left_blue.png,left_orange.png,q,left,60fde665fa8ed91a1c462c3e,001,2021-08-01_12h32.51.717,arrow_simon_norep,2021.1.2,MacIntel,59.99880002,,,,,,,,,,,,,,,,,,,,,q,1,1.7705,16,TRUE,FALSE,3,3,15,2,1,,,,,,,
,,,,,,1,2.405510536,#a3d0fb,,left_blue.png,w,,,,,,w,left_blue.png,left_orange.png,q,left,60fde665fa8ed91a1c462c3e,001,2021-08-01_12h32.51.717,arrow_simon_norep,2021.1.2,MacIntel,59.99880002,,,,,,,,,,,,,,,,,,,,,q,0,1.9083,17,TRUE,FALSE,4,0,16,2,1,,,,,,,
,,,,,,1,1.601314596,#f3af84,,right_orange.png,p,,,,,,o,right_blue.png,right_orange.png,p,right,60fde665fa8ed91a1c462c3e,001,2021-08-01_12h32.51.717,arrow_simon_norep,2021.1.2,MacIntel,59.99880002,,,,,,,,,,,,,,,,,,,,,o,0,1.3382,18,FALSE,TRUE,4,1,17,1,1,,,,,,,
,,,,,,1,1.665907415,#a3d0fb,,right_blue.png,o,,,,,,o,right_blue.png,right_orange.png,p,right,60fde665fa8ed91a1c462c3e,001,2021-08-01_12h32.51.717,arrow_simon_norep,2021.1.2,MacIntel,59.99880002,,,,,,,,,,,,,,,,,,,,,p,0,1.0923,19,FALSE,TRUE,4,2,18,1,1,,,,,,,
,,,,,,1,1.632100715,#f3af84,,left_orange.png,q,,,,,,w,left_blue.png,left_orange.png,q,right,60fde665fa8ed91a1c462c3e,001,2021-08-01_12h32.51.717,arrow_simon_norep,2021.1.2,MacIntel,59.99880002,,,,,,,,,,,,,,,,,,,,,q,1,1.6755,20,TRUE,FALSE,4,3,19,3,1,,,,,,,
,,,,,,1,2.324643085,#a3d0fb,,left_blue.png,w,,,,,,w,left_blue.png,left_orange.png,q,left,60fde665fa8ed91a1c462c3e,001,2021-08-01_12h32.51.717,arrow_simon_norep,2021.1.2,MacIntel,59.99880002,,,,,,,,,,,,,,,,,,,,,w,1,2.1676,21,TRUE,FALSE,5,0,20,2,1,,,,,,,
,,,,,,0,1.854441456,#f3af84,,left_orange.png,q,,,,,,w,left_blue.png,left_orange.png,q,left,60fde665fa8ed91a1c462c3e,001,2021-08-01_12h32.51.717,arrow_simon_norep,2021.1.2,MacIntel,59.99880002,,,,,,,,,,,,,,,,,,,,,q,1,1.5694,22,FALSE,FALSE,5,1,21,2,1,,,,,,,
,,,,,,1,2.07194845,#a3d0fb,,right_blue.png,o,,,,,,o,right_blue.png,right_orange.png,p,right,60fde665fa8ed91a1c462c3e,001,2021-08-01_12h32.51.717,arrow_simon_norep,2021.1.2,MacIntel,59.99880002,,,,,,,,,,,,,,,,,,,,,p,0,1.4832,23,FALSE,FALSE,5,2,22,1,1,,,,,,,
,,,,,,0,1.804203338,#f3af84,,right_orange.png,p,,,,,,o,right_blue.png,right_orange.png,p,right,60fde665fa8ed91a1c462c3e,001,2021-08-01_12h32.51.717,arrow_simon_norep,2021.1.2,MacIntel,59.99880002,,,,,,,,,,,,,,,,,,,,,p,1,1.5006,24,FALSE,FALSE,5,3,23,1,1,,,,,,,
,,,,,,1,2.086837468,#a3d0fb,,left_blue.png,w,,,,,,w,left_blue.png,left_orange.png,q,right,60fde665fa8ed91a1c462c3e,001,2021-08-01_12h32.51.717,arrow_simon_norep,2021.1.2,MacIntel,59.99880002,,,,,,,,,,,,,,,,,,,,,o,0,1.5597,25,FALSE,FALSE,6,0,24,3,1,,,,,,,
,,,,,,1,1.938140961,#f3af84,,left_orange.png,q,,,,,,w,left_blue.png,left_orange.png,q,left,60fde665fa8ed91a1c462c3e,001,2021-08-01_12h32.51.717,arrow_simon_norep,2021.1.2,MacIntel,59.99880002,,,,,,,,,,,,,,,,,,,,,q,1,1.7342,26,TRUE,FALSE,6,1,25,2,1,,,,,,,
,,,,,,1,1.678703558,#a3d0fb,,left_blue.png,w,,,,,,w,left_blue.png,left_orange.png,q,right,60fde665fa8ed91a1c462c3e,001,2021-08-01_12h32.51.717,arrow_simon_norep,2021.1.2,MacIntel,59.99880002,,,,,,,,,,,,,,,,,,,,,w,1,1.1365,27,FALSE,TRUE,6,2,26,3,1,,,,,,,
,,,,,,1,2.396418245,#f3af84,,left_orange.png,q,,,,,,w,left_blue.png,left_orange.png,q,right,60fde665fa8ed91a1c462c3e,001,2021-08-01_12h32.51.717,arrow_simon_norep,2021.1.2,MacIntel,59.99880002,,,,,,,,,,,,,,,,,,,,,w,0,2.0509,28,TRUE,FALSE,6,3,27,3,1,,,,,,,
,,,,,,1,1.537484287,#a3d0fb,,left_blue.png,w,,,,,,w,left_blue.png,left_orange.png,q,right,60fde665fa8ed91a1c462c3e,001,2021-08-01_12h32.51.717,arrow_simon_norep,2021.1.2,MacIntel,59.99880002,,,,,,,,,,,,,,,,,,,,,w,1,1.7825,29,TRUE,FALSE,7,0,28,3,1,,,,,,,
,,,,,,1,2.235414189,#f3af84,,right_orange.png,p,,,,,,o,right_blue.png,right_orange.png,p,left,60fde665fa8ed91a1c462c3e,001,2021-08-01_12h32.51.717,arrow_simon_norep,2021.1.2,MacIntel,59.99880002,,,,,,,,,,,,,,,,,,,,,p,1,1.7383,30,TRUE,FALSE,7,1,29,0,1,,,,,,,
,,,,,,1,2.070606852,#a3d0fb,,left_blue.png,w,,,,,,w,left_blue.png,left_orange.png,q,right,60fde665fa8ed91a1c462c3e,001,2021-08-01_12h32.51.717,arrow_simon_norep,2021.1.2,MacIntel,59.99880002,,,,,,,,,,,,,,,,,,,,,w,1,1.7178,31,TRUE,FALSE,7,2,30,3,1,,,,,,,
,,,,,,1,2.035780303,#f3af84,,left_orange.png,q,,,,,,w,left_blue.png,left_orange.png,q,right,60fde665fa8ed91a1c462c3e,001,2021-08-01_12h32.51.717,arrow_simon_norep,2021.1.2,MacIntel,59.99880002,,,,,,,,,,,,,,,,,,,,,o,0,1.6708,32,TRUE,FALSE,7,3,31,3,1,,,,,,,
,,,,,,1,1.683082504,#a3d0fb,,left_blue.png,w,,,,,,w,left_blue.png,left_orange.png,q,left,60fde665fa8ed91a1c462c3e,001,2021-08-01_12h32.51.717,arrow_simon_norep,2021.1.2,MacIntel,59.99880002,,,,,,,,,,,,,,,,,,,,,q,0,1.3051,33,FALSE,TRUE,8,0,32,2,1,,,,,,,
,,,,,,1,1.78269984,#f3af84,,left_orange.png,q,,,,,,w,left_blue.png,left_orange.png,q,left,60fde665fa8ed91a1c462c3e,001,2021-08-01_12h32.51.717,arrow_simon_norep,2021.1.2,MacIntel,59.99880002,,,,,,,,,,,,,,,,,,,,,q,1,1.7345,34,TRUE,FALSE,8,1,33,2,1,,,,,,,
,,,,,,1,1.607923501,#a3d0fb,,left_blue.png,w,,,,,,w,left_blue.png,left_orange.png,q,left,60fde665fa8ed91a1c462c3e,001,2021-08-01_12h32.51.717,arrow_simon_norep,2021.1.2,MacIntel,59.99880002,,,,,,,,,,,,,,,,,,,,,w,1,1.1852,35,FALSE,TRUE,8,2,34,2,1,,,,,,,
,,,,,,1,2.212065648,#f3af84,,right_orange.png,p,,,,,,o,right_blue.png,right_orange.png,p,left,60fde665fa8ed91a1c462c3e,001,2021-08-01_12h32.51.717,arrow_simon_norep,2021.1.2,MacIntel,59.99880002,,,,,,,,,,,,,,,,,,,,,o,0,1.7425,36,TRUE,FALSE,8,3,35,0,1,,,,,,,
,,,,,,0,1.772936664,#a3d0fb,,left_blue.png,w,,,,,,w,left_blue.png,left_orange.png,q,right,60fde665fa8ed91a1c462c3e,001,2021-08-01_12h32.51.717,arrow_simon_norep,2021.1.2,MacIntel,59.99880002,,,,,,,,,,,,,,,,,,,,,w,1,1.4341,37,FALSE,FALSE,9,0,36,3,1,,,,,,,
,,,,,,0,2.123026465,#f3af84,,right_orange.png,p,,,,,,o,right_blue.png,right_orange.png,p,right,60fde665fa8ed91a1c462c3e,001,2021-08-01_12h32.51.717,arrow_simon_norep,2021.1.2,MacIntel,59.99880002,,,,,,,,,,,,,,,,,,,,,p,1,1.5364,38,FALSE,FALSE,9,1,37,1,1,,,,,,,
,,,,,,0,2.404495393,#a3d0fb,,left_blue.png,w,,,,,,w,left_blue.png,left_orange.png,q,right,60fde665fa8ed91a1c462c3e,001,2021-08-01_12h32.51.717,arrow_simon_norep,2021.1.2,MacIntel,59.99880002,,,,,,,,,,,,,,,,,,,,,w,1,1.7888,39,TRUE,FALSE,9,2,38,3,1,,,,,,,
,,,,,,0,2.255780452,#f3af84,,right_orange.png,p,,,,,,o,right_blue.png,right_orange.png,p,left,60fde665fa8ed91a1c462c3e,001,2021-08-01_12h32.51.717,arrow_simon_norep,2021.1.2,MacIntel,59.99880002,,,,,,,,,,,,,,,,,,,,,o,0,1.8341,40,TRUE,FALSE,9,3,39,0,1,,,,,,,
,,,,,,1,2.206100792,#a3d0fb,,right_blue.png,o,,,,,,o,right_blue.png,right_orange.png,p,left,60fde665fa8ed91a1c462c3e,001,2021-08-01_12h32.51.717,arrow_simon_norep,2021.1.2,MacIntel,59.99880002,,,,,,,,,,,,,,,,,,,,,w,0,1.5032,41,FALSE,FALSE,10,0,40,0,1,,,,,,,
,,,,,,0,1.972513631,#f3af84,,left_orange.png,q,,,,,,w,left_blue.png,left_orange.png,q,left,60fde665fa8ed91a1c462c3e,001,2021-08-01_12h32.51.717,arrow_simon_norep,2021.1.2,MacIntel,59.99880002,,,,,,,,,,,,,,,,,,,,,q,1,1.4397,42,FALSE,FALSE,10,1,41,2,1,,,,,,,
,,,,,,0,2.354771669,#a3d0fb,,right_blue.png,o,,,,,,o,right_blue.png,right_orange.png,p,left,60fde665fa8ed91a1c462c3e,001,2021-08-01_12h32.51.717,arrow_simon_norep,2021.1.2,MacIntel,59.99880002,,,,,,,,,,,,,,,,,,,,,w,0,1.6873,43,TRUE,FALSE,10,2,42,0,1,,,,,,,
,,,,,,0,2.085508343,#f3af84,,right_orange.png,p,,,,,,o,right_blue.png,right_orange.png,p,right,60fde665fa8ed91a1c462c3e,001,2021-08-01_12h32.51.717,arrow_simon_norep,2021.1.2,MacIntel,59.99880002,,,,,,,,,,,,,,,,,,,,,p,1,1.4783,44,FALSE,FALSE,10,3,43,1,1,,,,,,,
,,,,,,0,2.337663246,#a3d0fb,,left_blue.png,w,,,,,,w,left_blue.png,left_orange.png,q,right,60fde665fa8ed91a1c462c3e,001,2021-08-01_12h32.51.717,arrow_simon_norep,2021.1.2,MacIntel,59.99880002,,,,,,,,,,,,,,,,,,,,,o,0,1.7038,45,TRUE,FALSE,11,0,44,3,1,,,,,,,
,,,,,,0,1.586706334,#f3af84,,left_orange.png,q,,,,,,w,left_blue.png,left_orange.png,q,left,60fde665fa8ed91a1c462c3e,001,2021-08-01_12h32.51.717,arrow_simon_norep,2021.1.2,MacIntel,59.99880002,,,,,,,,,,,,,,,,,,,,,q,1,1.5356,46,FALSE,FALSE,11,1,45,2,1,,,,,,,
,,,,,,0,1.910324864,#a3d0fb,,left_blue.png,w,,,,,,w,left_blue.png,left_orange.png,q,left,60fde665fa8ed91a1c462c3e,001,2021-08-01_12h32.51.717,arrow_simon_norep,2021.1.2,MacIntel,59.99880002,,,,,,,,,,,,,,,,,,,,,w,1,1.5359,47,FALSE,FALSE,11,2,46,2,1,,,,,,,
,,,,,,0,2.464228106,#f3af84,,left_orange.png,q,,,,,,w,left_blue.png,left_orange.png,q,left,60fde665fa8ed91a1c462c3e,001,2021-08-01_12h32.51.717,arrow_simon_norep,2021.1.2,MacIntel,59.99880002,,,,,,,,,,,,,,,,,,,,,q,1,1.791,48,TRUE,FALSE,11,3,47,2,1,,,,,,,
,,,,,,0,2.140303241,#a3d0fb,,right_blue.png,o,,,,,,o,right_blue.png,right_orange.png,p,left,60fde665fa8ed91a1c462c3e,001,2021-08-01_12h32.51.717,arrow_simon_norep,2021.1.2,MacIntel,59.99880002,,,,,,,,,,,,,,,,,,,,,o,1,1.6871,49,TRUE,FALSE,12,0,48,0,1,,,,,,,
,,,,,,0,2.415652867,#f3af84,,left_orange.png,q,,,,,,w,left_blue.png,left_orange.png,q,left,60fde665fa8ed91a1c462c3e,001,2021-08-01_12h32.51.717,arrow_simon_norep,2021.1.2,MacIntel,59.99880002,,,,,,,,,,,,,,,,,,,,,q,1,1.7701,50,TRUE,FALSE,12,1,49,2,1,,,,,,,
,,,,,,0,2.250664789,#a3d0fb,,left_blue.png,w,,,,,,w,left_blue.png,left_orange.png,q,left,60fde665fa8ed91a1c462c3e,001,2021-08-01_12h32.51.717,arrow_simon_norep,2021.1.2,MacIntel,59.99880002,,,,,,,,,,,,,,,,,,,,,w,1,1.5958,51,FALSE,FALSE,12,2,50,2,1,,,,,,,
,,,,,,0,2.14110079,#f3af84,,right_orange.png,p,,,,,,o,right_blue.png,right_orange.png,p,left,60fde665fa8ed91a1c462c3e,001,2021-08-01_12h32.51.717,arrow_simon_norep,2021.1.2,MacIntel,59.99880002,,,,,,,,,,,,,,,,,,,,,o,0,1.8614,52,TRUE,FALSE,12,3,51,0,1,,,,,,,
,,,,,,0,1.628870026,#a3d0fb,,right_blue.png,o,,,,,,o,right_blue.png,right_orange.png,p,right,60fde665fa8ed91a1c462c3e,001,2021-08-01_12h32.51.717,arrow_simon_norep,2021.1.2,MacIntel,59.99880002,,,,,,,,,,,,,,,,,,,,,p,0,1.2367,53,FALSE,TRUE,13,0,52,1,1,,,,,,,
,,,,,,0,2.053866562,#f3af84,,right_orange.png,p,,,,,,o,right_blue.png,right_orange.png,p,left,60fde665fa8ed91a1c462c3e,001,2021-08-01_12h32.51.717,arrow_simon_norep,2021.1.2,MacIntel,59.99880002,,,,,,,,,,,,,,,,,,,,,o,0,1.8068,54,TRUE,FALSE,13,1,53,0,1,,,,,,,
,,,,,,0,2.238504223,#a3d0fb,,right_blue.png,o,,,,,,o,right_blue.png,right_orange.png,p,left,60fde665fa8ed91a1c462c3e,001,2021-08-01_12h32.51.717,arrow_simon_norep,2021.1.2,MacIntel,59.99880002,,,,,,,,,,,,,,,,,,,,,o,1,1.8186,55,TRUE,FALSE,13,2,54,0,1,,,,,,,
,,,,,,0,1.750147117,#f3af84,,right_orange.png,p,,,,,,o,right_blue.png,right_orange.png,p,right,60fde665fa8ed91a1c462c3e,001,2021-08-01_12h32.51.717,arrow_simon_norep,2021.1.2,MacIntel,59.99880002,,,,,,,,,,,,,,,,,,,,,p,1,1.1405,56,FALSE,TRUE,13,3,55,1,1,,,,,,,
,,,,,,0,1.732495842,#a3d0fb,,left_blue.png,w,,,,,,w,left_blue.png,left_orange.png,q,right,60fde665fa8ed91a1c462c3e,001,2021-08-01_12h32.51.717,arrow_simon_norep,2021.1.2,MacIntel,59.99880002,,,,,,,,,,,,,,,,,,,,,w,1,1.4084,57,FALSE,FALSE,14,0,56,3,1,,,,,,,
,,,,,,0,1.803668283,#f3af84,,right_orange.png,p,,,,,,o,right_blue.png,right_orange.png,p,right,60fde665fa8ed91a1c462c3e,001,2021-08-01_12h32.51.717,arrow_simon_norep,2021.1.2,MacIntel,59.99880002,,,,,,,,,,,,,,,,,,,,,p,1,1.5338,58,FALSE,FALSE,14,1,57,1,1,,,,,,,
,,,,,,0,1.771138686,#a3d0fb,,right_blue.png,o,,,,,,o,right_blue.png,right_orange.png,p,right,60fde665fa8ed91a1c462c3e,001,2021-08-01_12h32.51.717,arrow_simon_norep,2021.1.2,MacIntel,59.99880002,,,,,,,,,,,,,,,,,,,,,o,1,1.3214,59,FALSE,TRUE,14,2,58,1,1,,,,,,,
,,,,,,0,2.41119802,#f3af84,,right_orange.png,p,,,,,,o,right_blue.png,right_orange.png,p,right,60fde665fa8ed91a1c462c3e,001,2021-08-01_12h32.51.717,arrow_simon_norep,2021.1.2,MacIntel,59.99880002,,,,,,,,,,,,,,,,,,,,,p,1,1.7429,60,TRUE,FALSE,14,3,59,1,1,,,,,,,
,,,,,,,,,,,,,,,,,,,,,,60fde665fa8ed91a1c462c3e,001,2021-08-01_12h32.51.717,arrow_simon_norep,2021.1.2,MacIntel,59.99880002,,,,,,,,,,,,,,,,,,,,,,,,,,,,,,,,space,29.2814,0,0,0,0,1
,,,,,,0,1.869103368,#a3d0fb,,left_blue.png,w,,,,,,w,left_blue.png,left_orange.png,q,right,60fde665fa8ed91a1c462c3e,001,2021-08-01_12h32.51.717,arrow_simon_norep,2021.1.2,MacIntel,59.99880002,,,,,,,,,,,,,,,,,,,,,w,1,1.4347,1,FALSE,FALSE,0,0,0,3,1,,,,,,,
,,,,,,0,2.069182801,#f3af84,,left_orange.png,q,,,,,,w,left_blue.png,left_orange.png,q,left,60fde665fa8ed91a1c462c3e,001,2021-08-01_12h32.51.717,arrow_simon_norep,2021.1.2,MacIntel,59.99880002,,,,,,,,,,,,,,,,,,,,,q,1,1.3745,2,FALSE,TRUE,0,1,1,2,1,,,,,,,
,,,,,,0,2.33531796,#a3d0fb,,right_blue.png,o,,,,,,o,right_blue.png,right_orange.png,p,right,60fde665fa8ed91a1c462c3e,001,2021-08-01_12h32.51.717,arrow_simon_norep,2021.1.2,MacIntel,59.99880002,,,,,,,,,,,,,,,,,,,,,p,0,1.6577,3,TRUE,FALSE,0,2,2,1,1,,,,,,,
,,,,,,0,2.322909859,#f3af84,,right_orange.png,p,,,,,,o,right_blue.png,right_orange.png,p,right,60fde665fa8ed91a1c462c3e,001,2021-08-01_12h32.51.717,arrow_simon_norep,2021.1.2,MacIntel,59.99880002,,,,,,,,,,,,,,,,,,,,,p,1,1.611,4,TRUE,FALSE,0,3,3,1,1,,,,,,,
,,,,,,0,2.468904801,#a3d0fb,,left_blue.png,w,,,,,,w,left_blue.png,left_orange.png,q,left,60fde665fa8ed91a1c462c3e,001,2021-08-01_12h32.51.717,arrow_simon_norep,2021.1.2,MacIntel,59.99880002,,,,,,,,,,,,,,,,,,,,,w,1,1.7438,5,TRUE,FALSE,1,0,4,2,1,,,,,,,
,,,,,,0,1.576115448,#f3af84,,right_orange.png,p,,,,,,o,right_blue.png,right_orange.png,p,right,60fde665fa8ed91a1c462c3e,001,2021-08-01_12h32.51.717,arrow_simon_norep,2021.1.2,MacIntel,59.99880002,,,,,,,,,,,,,,,,,,,,,p,1,1.0999,6,FALSE,TRUE,1,1,5,1,1,,,,,,,
,,,,,,0,2.272699021,#a3d0fb,,left_blue.png,w,,,,,,w,left_blue.png,left_orange.png,q,left,60fde665fa8ed91a1c462c3e,001,2021-08-01_12h32.51.717,arrow_simon_norep,2021.1.2,MacIntel,59.99880002,,,,,,,,,,,,,,,,,,,,,w,1,1.5564,7,FALSE,FALSE,1,2,6,2,1,,,,,,,
,,,,,,0,2.396668204,#f3af84,,right_orange.png,p,,,,,,o,right_blue.png,right_orange.png,p,left,60fde665fa8ed91a1c462c3e,001,2021-08-01_12h32.51.717,arrow_simon_norep,2021.1.2,MacIntel,59.99880002,,,,,,,,,,,,,,,,,,,,,q,0,1.667,8,TRUE,FALSE,1,3,7,0,1,,,,,,,
,,,,,,0,1.910768045,#a3d0fb,,right_blue.png,o,,,,,,o,right_blue.png,right_orange.png,p,left,60fde665fa8ed91a1c462c3e,001,2021-08-01_12h32.51.717,arrow_simon_norep,2021.1.2,MacIntel,59.99880002,,,,,,,,,,,,,,,,,,,,,w,0,1.2054,9,FALSE,TRUE,2,0,8,0,1,,,,,,,
,,,,,,0,1.760134383,#f3af84,,left_orange.png,q,,,,,,w,left_blue.png,left_orange.png,q,left,60fde665fa8ed91a1c462c3e,001,2021-08-01_12h32.51.717,arrow_simon_norep,2021.1.2,MacIntel,59.99880002,,,,,,,,,,,,,,,,,,,,,q,1,1.5209,10,FALSE,FALSE,2,1,9,2,1,,,,,,,
,,,,,,0,2.033975526,#a3d0fb,,left_blue.png,w,,,,,,w,left_blue.png,left_orange.png,q,left,60fde665fa8ed91a1c462c3e,001,2021-08-01_12h32.51.717,arrow_simon_norep,2021.1.2,MacIntel,59.99880002,,,,,,,,,,,,,,,,,,,,,w,1,1.5338,11,FALSE,FALSE,2,2,10,2,1,,,,,,,
,,,,,,0,2.176191799,#f3af84,,right_orange.png,p,,,,,,o,right_blue.png,right_orange.png,p,left,60fde665fa8ed91a1c462c3e,001,2021-08-01_12h32.51.717,arrow_simon_norep,2021.1.2,MacIntel,59.99880002,,,,,,,,,,,,,,,,,,,,,p,1,1.7167,12,TRUE,FALSE,2,3,11,0,1,,,,,,,
,,,,,,0,2.237471701,#a3d0fb,,left_blue.png,w,,,,,,w,left_blue.png,left_orange.png,q,right,60fde665fa8ed91a1c462c3e,001,2021-08-01_12h32.51.717,arrow_simon_norep,2021.1.2,MacIntel,59.99880002,,,,,,,,,,,,,,,,,,,,,w,1,1.7067,13,TRUE,FALSE,3,0,12,3,1,,,,,,,
,,,,,,0,2.064934062,#f3af84,,right_orange.png,p,,,,,,o,right_blue.png,right_orange.png,p,left,60fde665fa8ed91a1c462c3e,001,2021-08-01_12h32.51.717,arrow_simon_norep,2021.1.2,MacIntel,59.99880002,,,,,,,,,,,,,,,,,,,,,p,1,1.5851,14,FALSE,FALSE,3,1,13,0,1,,,,,,,
,,,,,,0,2.034594168,#a3d0fb,,left_blue.png,w,,,,,,w,left_blue.png,left_orange.png,q,right,60fde665fa8ed91a1c462c3e,001,2021-08-01_12h32.51.717,arrow_simon_norep,2021.1.2,MacIntel,59.99880002,,,,,,,,,,,,,,,,,,,,,w,1,1.8256,15,TRUE,FALSE,3,2,14,3,1,,,,,,,
,,,,,,0,1.825259551,#f3af84,,left_orange.png,q,,,,,,w,left_blue.png,left_orange.png,q,right,60fde665fa8ed91a1c462c3e,001,2021-08-01_12h32.51.717,arrow_simon_norep,2021.1.2,MacIntel,59.99880002,,,,,,,,,,,,,,,,,,,,,p,0,1.7559,16,TRUE,FALSE,3,3,15,3,1,,,,,,,
,,,,,,0,2.133527067,#a3d0fb,,left_blue.png,w,,,,,,w,left_blue.png,left_orange.png,q,right,60fde665fa8ed91a1c462c3e,001,2021-08-01_12h32.51.717,arrow_simon_norep,2021.1.2,MacIntel,59.99880002,,,,,,,,,,,,,,,,,,,,,w,1,1.7838,17,TRUE,FALSE,4,0,16,3,1,,,,,,,
,,,,,,0,1.55814129,#f3af84,,right_orange.png,p,,,,,,o,right_blue.png,right_orange.png,p,right,60fde665fa8ed91a1c462c3e,001,2021-08-01_12h32.51.717,arrow_simon_norep,2021.1.2,MacIntel,59.99880002,,,,,,,,,,,,,,,,,,,,,p,1,1.7847,18,TRUE,FALSE,4,1,17,1,1,,,,,,,
,,,,,,0,2.261146861,#a3d0fb,,right_blue.png,o,,,,,,o,right_blue.png,right_orange.png,p,right,60fde665fa8ed91a1c462c3e,001,2021-08-01_12h32.51.717,arrow_simon_norep,2021.1.2,MacIntel,59.99880002,,,,,,,,,,,,,,,,,,,,,p,0,1.8029,19,TRUE,FALSE,4,2,18,1,1,,,,,,,
,,,,,,0,2.223946985,#f3af84,,right_orange.png,p,,,,,,o,right_blue.png,right_orange.png,p,left,60fde665fa8ed91a1c462c3e,001,2021-08-01_12h32.51.717,arrow_simon_norep,2021.1.2,MacIntel,59.99880002,,,,,,,,,,,,,,,,,,,,,p,1,1.6748,20,TRUE,FALSE,4,3,19,0,1,,,,,,,
,,,,,,0,2.35769698,#a3d0fb,,right_blue.png,o,,,,,,o,right_blue.png,right_orange.png,p,right,60fde665fa8ed91a1c462c3e,001,2021-08-01_12h32.51.717,arrow_simon_norep,2021.1.2,MacIntel,59.99880002,,,,,,,,,,,,,,,,,,,,,o,1,1.6567,21,TRUE,FALSE,5,0,20,1,1,,,,,,,
,,,,,,1,2.162157383,#f3af84,,left_orange.png,q,,,,,,w,left_blue.png,left_orange.png,q,right,60fde665fa8ed91a1c462c3e,001,2021-08-01_12h32.51.717,arrow_simon_norep,2021.1.2,MacIntel,59.99880002,,,,,,,,,,,,,,,,,,,,,p,0,1.4584,22,FALSE,FALSE,5,1,21,3,1,,,,,,,
,,,,,,1,2.433160472,#a3d0fb,,right_blue.png,o,,,,,,o,right_blue.png,right_orange.png,p,left,60fde665fa8ed91a1c462c3e,001,2021-08-01_12h32.51.717,arrow_simon_norep,2021.1.2,MacIntel,59.99880002,,,,,,,,,,,,,,,,,,,,,w,0,1.7509,23,TRUE,FALSE,5,2,22,0,1,,,,,,,
,,,,,,0,1.737894679,#f3af84,,right_orange.png,p,,,,,,o,right_blue.png,right_orange.png,p,right,60fde665fa8ed91a1c462c3e,001,2021-08-01_12h32.51.717,arrow_simon_norep,2021.1.2,MacIntel,59.99880002,,,,,,,,,,,,,,,,,,,,,p,1,1.5432,24,FALSE,FALSE,5,3,23,1,1,,,,,,,
,,,,,,0,1.668389897,#a3d0fb,,left_blue.png,w,,,,,,w,left_blue.png,left_orange.png,q,left,60fde665fa8ed91a1c462c3e,001,2021-08-01_12h32.51.717,arrow_simon_norep,2021.1.2,MacIntel,59.99880002,,,,,,,,,,,,,,,,,,,,,q,0,1.1173,25,FALSE,TRUE,6,0,24,2,1,,,,,,,
,,,,,,0,2.463613635,#f3af84,,left_orange.png,q,,,,,,w,left_blue.png,left_orange.png,q,right,60fde665fa8ed91a1c462c3e,001,2021-08-01_12h32.51.717,arrow_simon_norep,2021.1.2,MacIntel,59.99880002,,,,,,,,,,,,,,,,,,,,,q,1,1.9241,26,TRUE,FALSE,6,1,25,3,1,,,,,,,
,,,,,,0,1.554009978,#a3d0fb,,left_blue.png,w,,,,,,w,left_blue.png,left_orange.png,q,right,60fde665fa8ed91a1c462c3e,001,2021-08-01_12h32.51.717,arrow_simon_norep,2021.1.2,MacIntel,59.99880002,,,,,,,,,,,,,,,,,,,,,o,0,1.6673,27,TRUE,FALSE,6,2,26,3,1,,,,,,,
,,,,,,0,2.092774986,#f3af84,,left_orange.png,q,,,,,,w,left_blue.png,left_orange.png,q,right,60fde665fa8ed91a1c462c3e,001,2021-08-01_12h32.51.717,arrow_simon_norep,2021.1.2,MacIntel,59.99880002,,,,,,,,,,,,,,,,,,,,,q,1,1.8535,28,TRUE,FALSE,6,3,27,3,1,,,,,,,
,,,,,,0,2.035687881,#a3d0fb,,left_blue.png,w,,,,,,w,left_blue.png,left_orange.png,q,left,60fde665fa8ed91a1c462c3e,001,2021-08-01_12h32.51.717,arrow_simon_norep,2021.1.2,MacIntel,59.99880002,,,,,,,,,,,,,,,,,,,,,w,1,1.6072,29,TRUE,FALSE,7,0,28,2,1,,,,,,,
,,,,,,0,2.333777042,#f3af84,,right_orange.png,p,,,,,,o,right_blue.png,right_orange.png,p,right,60fde665fa8ed91a1c462c3e,001,2021-08-01_12h32.51.717,arrow_simon_norep,2021.1.2,MacIntel,59.99880002,,,,,,,,,,,,,,,,,,,,,p,1,1.6349,30,TRUE,FALSE,7,1,29,1,1,,,,,,,
,,,,,,0,2.229838189,#a3d0fb,,right_blue.png,o,,,,,,o,right_blue.png,right_orange.png,p,left,60fde665fa8ed91a1c462c3e,001,2021-08-01_12h32.51.717,arrow_simon_norep,2021.1.2,MacIntel,59.99880002,,,,,,,,,,,,,,,,,,,,,o,1,1.787,31,TRUE,FALSE,7,2,30,0,1,,,,,,,
,,,,,,0,1.820995552,#f3af84,,right_orange.png,p,,,,,,o,right_blue.png,right_orange.png,p,right,60fde665fa8ed91a1c462c3e,001,2021-08-01_12h32.51.717,arrow_simon_norep,2021.1.2,MacIntel,59.99880002,,,,,,,,,,,,,,,,,,,,,p,1,1.7708,32,TRUE,FALSE,7,3,31,1,1,,,,,,,
,,,,,,0,2.023432559,#a3d0fb,,left_blue.png,w,,,,,,w,left_blue.png,left_orange.png,q,right,60fde665fa8ed91a1c462c3e,001,2021-08-01_12h32.51.717,arrow_simon_norep,2021.1.2,MacIntel,59.99880002,,,,,,,,,,,,,,,,,,,,,w,1,1.4514,33,FALSE,FALSE,8,0,32,3,1,,,,,,,
,,,,,,0,2.070252527,#f3af84,,left_orange.png,q,,,,,,w,left_blue.png,left_orange.png,q,right,60fde665fa8ed91a1c462c3e,001,2021-08-01_12h32.51.717,arrow_simon_norep,2021.1.2,MacIntel,59.99880002,,,,,,,,,,,,,,,,,,,,,q,1,1.4859,34,FALSE,FALSE,8,1,33,3,1,,,,,,,
,,,,,,0,2.416022956,#a3d0fb,,right_blue.png,o,,,,,,o,right_blue.png,right_orange.png,p,left,60fde665fa8ed91a1c462c3e,001,2021-08-01_12h32.51.717,arrow_simon_norep,2021.1.2,MacIntel,59.99880002,,,,,,,,,,,,,,,,,,,,,o,1,1.8387,35,TRUE,FALSE,8,2,34,0,1,,,,,,,
,,,,,,0,1.578438092,#f3af84,,left_orange.png,q,,,,,,w,left_blue.png,left_orange.png,q,right,60fde665fa8ed91a1c462c3e,001,2021-08-01_12h32.51.717,arrow_simon_norep,2021.1.2,MacIntel,59.99880002,,,,,,,,,,,,,,,,,,,,,q,1,1.1867,36,FALSE,TRUE,8,3,35,3,1,,,,,,,
,,,,,,0,1.640902683,#a3d0fb,,right_blue.png,o,,,,,,o,right_blue.png,right_orange.png,p,right,60fde665fa8ed91a1c462c3e,001,2021-08-01_12h32.51.717,arrow_simon_norep,2021.1.2,MacIntel,59.99880002,,,,,,,,,,,,,,,,,,,,,o,1,1.194,37,FALSE,TRUE,9,0,36,1,1,,,,,,,
,,,,,,0,2.165128887,#f3af84,,right_orange.png,p,,,,,,o,right_blue.png,right_orange.png,p,left,60fde665fa8ed91a1c462c3e,001,2021-08-01_12h32.51.717,arrow_simon_norep,2021.1.2,MacIntel,59.99880002,,,,,,,,,,,,,,,,,,,,,p,1,1.8561,38,TRUE,FALSE,9,1,37,0,1,,,,,,,
,,,,,,0,1.866810219,#a3d0fb,,right_blue.png,o,,,,,,o,right_blue.png,right_orange.png,p,left,60fde665fa8ed91a1c462c3e,001,2021-08-01_12h32.51.717,arrow_simon_norep,2021.1.2,MacIntel,59.99880002,,,,,,,,,,,,,,,,,,,,,o,1,1.3183,39,FALSE,TRUE,9,2,38,0,1,,,,,,,
,,,,,,0,2.483441688,#f3af84,,right_orange.png,p,,,,,,o,right_blue.png,right_orange.png,p,right,60fde665fa8ed91a1c462c3e,001,2021-08-01_12h32.51.717,arrow_simon_norep,2021.1.2,MacIntel,59.99880002,,,,,,,,,,,,,,,,,,,,,p,1,2.0336,40,TRUE,FALSE,9,3,39,1,1,,,,,,,
,,,,,,0,2.388906055,#a3d0fb,,left_blue.png,w,,,,,,w,left_blue.png,left_orange.png,q,right,60fde665fa8ed91a1c462c3e,001,2021-08-01_12h32.51.717,arrow_simon_norep,2021.1.2,MacIntel,59.99880002,,,,,,,,,,,,,,,,,,,,,o,0,1.6497,41,TRUE,FALSE,10,0,40,3,1,,,,,,,
,,,,,,0,2.205225388,#f3af84,,right_orange.png,p,,,,,,o,right_blue.png,right_orange.png,p,left,60fde665fa8ed91a1c462c3e,001,2021-08-01_12h32.51.717,arrow_simon_norep,2021.1.2,MacIntel,59.99880002,,,,,,,,,,,,,,,,,,,,,p,1,1.7894,42,TRUE,FALSE,10,1,41,0,1,,,,,,,
,,,,,,1,2.173325179,#a3d0fb,,right_blue.png,o,,,,,,o,right_blue.png,right_orange.png,p,left,60fde665fa8ed91a1c462c3e,001,2021-08-01_12h32.51.717,arrow_simon_norep,2021.1.2,MacIntel,59.99880002,,,,,,,,,,,,,,,,,,,,,w,0,1.4926,43,FALSE,FALSE,10,2,42,0,1,,,,,,,
,,,,,,0,1.880555074,#f3af84,,left_orange.png,q,,,,,,w,left_blue.png,left_orange.png,q,left,60fde665fa8ed91a1c462c3e,001,2021-08-01_12h32.51.717,arrow_simon_norep,2021.1.2,MacIntel,59.99880002,,,,,,,,,,,,,,,,,,,,,q,1,1.5528,44,FALSE,FALSE,10,3,43,2,1,,,,,,,
,,,,,,0,1.79747744,#a3d0fb,,left_blue.png,w,,,,,,w,left_blue.png,left_orange.png,q,right,60fde665fa8ed91a1c462c3e,001,2021-08-01_12h32.51.717,arrow_simon_norep,2021.1.2,MacIntel,59.99880002,,,,,,,,,,,,,,,,,,,,,w,1,1.3768,45,FALSE,TRUE,11,0,44,3,1,,,,,,,
,,,,,,0,2.285181668,#f3af84,,left_orange.png,q,,,,,,w,left_blue.png,left_orange.png,q,left,60fde665fa8ed91a1c462c3e,001,2021-08-01_12h32.51.717,arrow_simon_norep,2021.1.2,MacIntel,59.99880002,,,,,,,,,,,,,,,,,,,,,q,1,1.7943,46,TRUE,FALSE,11,1,45,2,1,,,,,,,
,,,,,,0,2.303508193,#a3d0fb,,right_blue.png,o,,,,,,o,right_blue.png,right_orange.png,p,right,60fde665fa8ed91a1c462c3e,001,2021-08-01_12h32.51.717,arrow_simon_norep,2021.1.2,MacIntel,59.99880002,,,,,,,,,,,,,,,,,,,,,o,1,1.6038,47,TRUE,FALSE,11,2,46,1,1,,,,,,,
,,,,,,0,1.754249544,#f3af84,,left_orange.png,q,,,,,,w,left_blue.png,left_orange.png,q,left,60fde665fa8ed91a1c462c3e,001,2021-08-01_12h32.51.717,arrow_simon_norep,2021.1.2,MacIntel,59.99880002,,,,,,,,,,,,,,,,,,,,,q,1,1.0853,48,FALSE,TRUE,11,3,47,2,1,,,,,,,
,,,,,,0,1.536268225,#a3d0fb,,left_blue.png,w,,,,,,w,left_blue.png,left_orange.png,q,left,60fde665fa8ed91a1c462c3e,001,2021-08-01_12h32.51.717,arrow_simon_norep,2021.1.2,MacIntel,59.99880002,,,,,,,,,,,,,,,,,,,,,w,1,1.1055,49,FALSE,TRUE,12,0,48,2,1,,,,,,,
,,,,,,0,2.251795551,#f3af84,,right_orange.png,p,,,,,,o,right_blue.png,right_orange.png,p,right,60fde665fa8ed91a1c462c3e,001,2021-08-01_12h32.51.717,arrow_simon_norep,2021.1.2,MacIntel,59.99880002,,,,,,,,,,,,,,,,,,,,,p,1,1.5942,50,FALSE,FALSE,12,1,49,1,1,,,,,,,
,,,,,,0,1.654276798,#a3d0fb,,right_blue.png,o,,,,,,o,right_blue.png,right_orange.png,p,left,60fde665fa8ed91a1c462c3e,001,2021-08-01_12h32.51.717,arrow_simon_norep,2021.1.2,MacIntel,59.99880002,,,,,,,,,,,,,,,,,,,,,o,1,1.4613,51,FALSE,FALSE,12,2,50,0,1,,,,,,,
,,,,,,0,1.756273049,#f3af84,,left_orange.png,q,,,,,,w,left_blue.png,left_orange.png,q,left,60fde665fa8ed91a1c462c3e,001,2021-08-01_12h32.51.717,arrow_simon_norep,2021.1.2,MacIntel,59.99880002,,,,,,,,,,,,,,,,,,,,,q,1,1.4376,52,FALSE,FALSE,12,3,51,2,1,,,,,,,
,,,,,,0,1.646811842,#a3d0fb,,left_blue.png,w,,,,,,w,left_blue.png,left_orange.png,q,left,60fde665fa8ed91a1c462c3e,001,2021-08-01_12h32.51.717,arrow_simon_norep,2021.1.2,MacIntel,59.99880002,,,,,,,,,,,,,,,,,,,,,q,0,1.6248,53,TRUE,FALSE,13,0,52,2,1,,,,,,,
,,,,,,0,2.338605712,#f3af84,,right_orange.png,p,,,,,,o,right_blue.png,right_orange.png,p,left,60fde665fa8ed91a1c462c3e,001,2021-08-01_12h32.51.717,arrow_simon_norep,2021.1.2,MacIntel,59.99880002,,,,,,,,,,,,,,,,,,,,,q,0,1.6684,54,TRUE,FALSE,13,1,53,0,1,,,,,,,
,,,,,,0,1.734883589,#a3d0fb,,right_blue.png,o,,,,,,o,right_blue.png,right_orange.png,p,right,60fde665fa8ed91a1c462c3e,001,2021-08-01_12h32.51.717,arrow_simon_norep,2021.1.2,MacIntel,59.99880002,,,,,,,,,,,,,,,,,,,,,o,1,1.151,55,FALSE,TRUE,13,2,54,1,1,,,,,,,
,,,,,,0,2.276796616,#f3af84,,left_orange.png,q,,,,,,w,left_blue.png,left_orange.png,q,right,60fde665fa8ed91a1c462c3e,001,2021-08-01_12h32.51.717,arrow_simon_norep,2021.1.2,MacIntel,59.99880002,,,,,,,,,,,,,,,,,,,,,q,1,1.6932,56,TRUE,FALSE,13,3,55,3,1,,,,,,,
,,,,,,0,1.788474978,#a3d0fb,,left_blue.png,w,,,,,,w,left_blue.png,left_orange.png,q,left,60fde665fa8ed91a1c462c3e,001,2021-08-01_12h32.51.717,arrow_simon_norep,2021.1.2,MacIntel,59.99880002,,,,,,,,,,,,,,,,,,,,,w,1,1.4678,57,FALSE,FALSE,14,0,56,2,1,,,,,,,
,,,,,,0,1.658026248,#f3af84,,left_orange.png,q,,,,,,w,left_blue.png,left_orange.png,q,left,60fde665fa8ed91a1c462c3e,001,2021-08-01_12h32.51.717,arrow_simon_norep,2021.1.2,MacIntel,59.99880002,,,,,,,,,,,,,,,,,,,,,q,1,1.7847,58,TRUE,FALSE,14,1,57,2,1,,,,,,,
,,,,,,0,1.649737305,#a3d0fb,,right_blue.png,o,,,,,,o,right_blue.png,right_orange.png,p,left,60fde665fa8ed91a1c462c3e,001,2021-08-01_12h32.51.717,arrow_simon_norep,2021.1.2,MacIntel,59.99880002,,,,,,,,,,,,,,,,,,,,,o,1,1.6975,59,TRUE,FALSE,14,2,58,0,1,,,,,,,
,,,,,,0,1.677688667,#f3af84,,right_orange.png,p,,,,,,o,right_blue.png,right_orange.png,p,right,60fde665fa8ed91a1c462c3e,001,2021-08-01_12h32.51.717,arrow_simon_norep,2021.1.2,MacIntel,59.99880002,,,,,,,,,,,,,,,,,,,,,p,1,1.4193,60,FALSE,FALSE,14,3,59,1,1,,,,,,,
,,,,,,,,,,,,,,,,,,,,,,60fde665fa8ed91a1c462c3e,001,2021-08-01_12h32.51.717,arrow_simon_norep,2021.1.2,MacIntel,59.99880002,,,,,,,,,,,,,,,,,,,,,,,,,,,,,,,,space,25.2977,1,0,1,0,1
,,,,,,0,1.568496729,#a3d0fb,,right_blue.png,o,,,,,,o,right_blue.png,right_orange.png,p,right,60fde665fa8ed91a1c462c3e,001,2021-08-01_12h32.51.717,arrow_simon_norep,2021.1.2,MacIntel,59.99880002,,,,,,,,,,,,,,,,,,,,,p,0,1.0862,1,FALSE,TRUE,0,0,0,1,1,,,,,,,
,,,,,,0,1.657396103,#f3af84,,right_orange.png,p,,,,,,o,right_blue.png,right_orange.png,p,right,60fde665fa8ed91a1c462c3e,001,2021-08-01_12h32.51.717,arrow_simon_norep,2021.1.2,MacIntel,59.99880002,,,,,,,,,,,,,,,,,,,,,p,1,1.11,2,FALSE,TRUE,0,1,1,1,1,,,,,,,
,,,,,,0,1.517659395,#a3d0fb,,right_blue.png,o,,,,,,o,right_blue.png,right_orange.png,p,left,60fde665fa8ed91a1c462c3e,001,2021-08-01_12h32.51.717,arrow_simon_norep,2021.1.2,MacIntel,59.99880002,,,,,,,,,,,,,,,,,,,,,o,1,1.1181,3,FALSE,TRUE,0,2,2,0,1,,,,,,,
,,,,,,0,2.352846249,#f3af84,,left_orange.png,q,,,,,,w,left_blue.png,left_orange.png,q,right,60fde665fa8ed91a1c462c3e,001,2021-08-01_12h32.51.717,arrow_simon_norep,2021.1.2,MacIntel,59.99880002,,,,,,,,,,,,,,,,,,,,,q,1,1.8741,4,TRUE,FALSE,0,3,3,3,1,,,,,,,
,,,,,,0,2.412792452,#a3d0fb,,right_blue.png,o,,,,,,o,right_blue.png,right_orange.png,p,left,60fde665fa8ed91a1c462c3e,001,2021-08-01_12h32.51.717,arrow_simon_norep,2021.1.2,MacIntel,59.99880002,,,,,,,,,,,,,,,,,,,,,o,1,1.9088,5,TRUE,FALSE,1,0,4,0,1,,,,,,,
,,,,,,0,1.656991966,#f3af84,,right_orange.png,p,,,,,,o,right_blue.png,right_orange.png,p,right,60fde665fa8ed91a1c462c3e,001,2021-08-01_12h32.51.717,arrow_simon_norep,2021.1.2,MacIntel,59.99880002,,,,,,,,,,,,,,,,,,,,,p,1,1.2356,6,FALSE,TRUE,1,1,5,1,1,,,,,,,
,,,,,,0,1.846658471,#a3d0fb,,left_blue.png,w,,,,,,w,left_blue.png,left_orange.png,q,right,60fde665fa8ed91a1c462c3e,001,2021-08-01_12h32.51.717,arrow_simon_norep,2021.1.2,MacIntel,59.99880002,,,,,,,,,,,,,,,,,,,,,w,1,1.4175,7,FALSE,FALSE,1,2,6,3,1,,,,,,,
,,,,,,0,2.311834322,#f3af84,,right_orange.png,p,,,,,,o,right_blue.png,right_orange.png,p,left,60fde665fa8ed91a1c462c3e,001,2021-08-01_12h32.51.717,arrow_simon_norep,2021.1.2,MacIntel,59.99880002,,,,,,,,,,,,,,,,,,,,,q,0,1.6272,8,TRUE,FALSE,1,3,7,0,1,,,,,,,
,,,,,,1,1.648452432,#a3d0fb,,left_blue.png,w,,,,,,w,left_blue.png,left_orange.png,q,right,60fde665fa8ed91a1c462c3e,001,2021-08-01_12h32.51.717,arrow_simon_norep,2021.1.2,MacIntel,59.99880002,,,,,,,,,,,,,,,,,,,,,o,0,1.4841,9,FALSE,FALSE,2,0,8,3,1,,,,,,,
,,,,,,1,1.691102872,#f3af84,,right_orange.png,p,,,,,,o,right_blue.png,right_orange.png,p,right,60fde665fa8ed91a1c462c3e,001,2021-08-01_12h32.51.717,arrow_simon_norep,2021.1.2,MacIntel,59.99880002,,,,,,,,,,,,,,,,,,,,,p,1,1.2509,10,FALSE,TRUE,2,1,9,1,1,,,,,,,
,,,,,,1,2.377328623,#a3d0fb,,left_blue.png,w,,,,,,w,left_blue.png,left_orange.png,q,right,60fde665fa8ed91a1c462c3e,001,2021-08-01_12h32.51.717,arrow_simon_norep,2021.1.2,MacIntel,59.99880002,,,,,,,,,,,,,,,,,,,,,w,1,1.7854,11,TRUE,FALSE,2,2,10,3,1,,,,,,,
,,,,,,0,1.779809761,#f3af84,,right_orange.png,p,,,,,,o,right_blue.png,right_orange.png,p,right,60fde665fa8ed91a1c462c3e,001,2021-08-01_12h32.51.717,arrow_simon_norep,2021.1.2,MacIntel,59.99880002,,,,,,,,,,,,,,,,,,,,,p,1,1.4596,12,FALSE,FALSE,2,3,11,1,1,,,,,,,
,,,,,,0,1.956593587,#a3d0fb,,right_blue.png,o,,,,,,o,right_blue.png,right_orange.png,p,left,60fde665fa8ed91a1c462c3e,001,2021-08-01_12h32.51.717,arrow_simon_norep,2021.1.2,MacIntel,59.99880002,,,,,,,,,,,,,,,,,,,,,o,1,1.6756,13,TRUE,FALSE,3,0,12,0,1,,,,,,,
,,,,,,0,1.981009316,#f3af84,,left_orange.png,q,,,,,,w,left_blue.png,left_orange.png,q,left,60fde665fa8ed91a1c462c3e,001,2021-08-01_12h32.51.717,arrow_simon_norep,2021.1.2,MacIntel,59.99880002,,,,,,,,,,,,,,,,,,,,,q,1,1.3931,14,FALSE,TRUE,3,1,13,2,1,,,,,,,
,,,,,,0,1.826123412,#a3d0fb,,right_blue.png,o,,,,,,o,right_blue.png,right_orange.png,p,left,60fde665fa8ed91a1c462c3e,001,2021-08-01_12h32.51.717,arrow_simon_norep,2021.1.2,MacIntel,59.99880002,,,,,,,,,,,,,,,,,,,,,o,1,1.267,15,FALSE,TRUE,3,2,14,0,1,,,,,,,
,,,,,,0,1.953334123,#f3af84,,right_orange.png,p,,,,,,o,right_blue.png,right_orange.png,p,left,60fde665fa8ed91a1c462c3e,001,2021-08-01_12h32.51.717,arrow_simon_norep,2021.1.2,MacIntel,59.99880002,,,,,,,,,,,,,,,,,,,,,p,1,1.7411,16,TRUE,FALSE,3,3,15,0,1,,,,,,,
,,,,,,0,1.559458406,#a3d0fb,,left_blue.png,w,,,,,,w,left_blue.png,left_orange.png,q,left,60fde665fa8ed91a1c462c3e,001,2021-08-01_12h32.51.717,arrow_simon_norep,2021.1.2,MacIntel,59.99880002,,,,,,,,,,,,,,,,,,,,,w,1,1.1839,17,FALSE,TRUE,4,0,16,2,1,,,,,,,
,,,,,,0,1.751369113,#f3af84,,right_orange.png,p,,,,,,o,right_blue.png,right_orange.png,p,right,60fde665fa8ed91a1c462c3e,001,2021-08-01_12h32.51.717,arrow_simon_norep,2021.1.2,MacIntel,59.99880002,,,,,,,,,,,,,,,,,,,,,p,1,1.3475,18,FALSE,TRUE,4,1,17,1,1,,,,,,,
,,,,,,0,2.299706435,#a3d0fb,,left_blue.png,w,,,,,,w,left_blue.png,left_orange.png,q,right,60fde665fa8ed91a1c462c3e,001,2021-08-01_12h32.51.717,arrow_simon_norep,2021.1.2,MacIntel,59.99880002,,,,,,,,,,,,,,,,,,,,,w,1,1.7525,19,TRUE,FALSE,4,2,18,3,1,,,,,,,
,,,,,,0,1.734028364,#f3af84,,left_orange.png,q,,,,,,w,left_blue.png,left_orange.png,q,left,60fde665fa8ed91a1c462c3e,001,2021-08-01_12h32.51.717,arrow_simon_norep,2021.1.2,MacIntel,59.99880002,,,,,,,,,,,,,,,,,,,,,q,1,1.4031,20,FALSE,FALSE,4,3,19,2,1,,,,,,,
,,,,,,0,2.027739857,#a3d0fb,,right_blue.png,o,,,,,,o,right_blue.png,right_orange.png,p,left,60fde665fa8ed91a1c462c3e,001,2021-08-01_12h32.51.717,arrow_simon_norep,2021.1.2,MacIntel,59.99880002,,,,,,,,,,,,,,,,,,,,,w,0,1.3534,21,FALSE,TRUE,5,0,20,0,1,,,,,,,
,,,,,,0,2.289366001,#f3af84,,left_orange.png,q,,,,,,w,left_blue.png,left_orange.png,q,left,60fde665fa8ed91a1c462c3e,001,2021-08-01_12h32.51.717,arrow_simon_norep,2021.1.2,MacIntel,59.99880002,,,,,,,,,,,,,,,,,,,,,q,1,1.8193,22,TRUE,FALSE,5,1,21,2,1,,,,,,,
,,,,,,0,2.015219861,#a3d0fb,,left_blue.png,w,,,,,,w,left_blue.png,left_orange.png,q,left,60fde665fa8ed91a1c462c3e,001,2021-08-01_12h32.51.717,arrow_simon_norep,2021.1.2,MacIntel,59.99880002,,,,,,,,,,,,,,,,,,,,,w,1,1.4616,23,FALSE,FALSE,5,2,22,2,1,,,,,,,
,,,,,,0,2.254276942,#f3af84,,left_orange.png,q,,,,,,w,left_blue.png,left_orange.png,q,left,60fde665fa8ed91a1c462c3e,001,2021-08-01_12h32.51.717,arrow_simon_norep,2021.1.2,MacIntel,59.99880002,,,,,,,,,,,,,,,,,,,,,q,1,1.5796,24,FALSE,FALSE,5,3,23,2,1,,,,,,,
,,,,,,0,1.828367828,#a3d0fb,,right_blue.png,o,,,,,,o,right_blue.png,right_orange.png,p,right,60fde665fa8ed91a1c462c3e,001,2021-08-01_12h32.51.717,arrow_simon_norep,2021.1.2,MacIntel,59.99880002,,,,,,,,,,,,,,,,,,,,,p,0,1.1763,25,FALSE,TRUE,6,0,24,1,1,,,,,,,
,,,,,,0,2.207906046,#f3af84,,left_orange.png,q,,,,,,w,left_blue.png,left_orange.png,q,right,60fde665fa8ed91a1c462c3e,001,2021-08-01_12h32.51.717,arrow_simon_norep,2021.1.2,MacIntel,59.99880002,,,,,,,,,,,,,,,,,,,,,w,0,1.8366,26,TRUE,FALSE,6,1,25,3,1,,,,,,,
,,,,,,0,1.627897876,#a3d0fb,,right_blue.png,o,,,,,,o,right_blue.png,right_orange.png,p,right,60fde665fa8ed91a1c462c3e,001,2021-08-01_12h32.51.717,arrow_simon_norep,2021.1.2,MacIntel,59.99880002,,,,,,,,,,,,,,,,,,,,,o,1,1.335,27,FALSE,TRUE,6,2,26,1,1,,,,,,,
,,,,,,0,1.968556011,#f3af84,,left_orange.png,q,,,,,,w,left_blue.png,left_orange.png,q,left,60fde665fa8ed91a1c462c3e,001,2021-08-01_12h32.51.717,arrow_simon_norep,2021.1.2,MacIntel,59.99880002,,,,,,,,,,,,,,,,,,,,,q,1,1.6917,28,TRUE,FALSE,6,3,27,2,1,,,,,,,
,,,,,,0,2.384726436,#a3d0fb,,right_blue.png,o,,,,,,o,right_blue.png,right_orange.png,p,left,60fde665fa8ed91a1c462c3e,001,2021-08-01_12h32.51.717,arrow_simon_norep,2021.1.2,MacIntel,59.99880002,,,,,,,,,,,,,,,,,,,,,w,0,1.6752,29,TRUE,FALSE,7,0,28,0,1,,,,,,,
,,,,,,0,1.875655932,#f3af84,,right_orange.png,p,,,,,,o,right_blue.png,right_orange.png,p,left,60fde665fa8ed91a1c462c3e,001,2021-08-01_12h32.51.717,arrow_simon_norep,2021.1.2,MacIntel,59.99880002,,,,,,,,,,,,,,,,,,,,,p,1,1.3499,30,FALSE,TRUE,7,1,29,0,1,,,,,,,
,,,,,,0,2.272646499,#a3d0fb,,left_blue.png,w,,,,,,w,left_blue.png,left_orange.png,q,left,60fde665fa8ed91a1c462c3e,001,2021-08-01_12h32.51.717,arrow_simon_norep,2021.1.2,MacIntel,59.99880002,,,,,,,,,,,,,,,,,,,,,w,1,1.7861,31,TRUE,FALSE,7,2,30,2,1,,,,,,,
,,,,,,0,2.463507048,#f3af84,,right_orange.png,p,,,,,,o,right_blue.png,right_orange.png,p,left,60fde665fa8ed91a1c462c3e,001,2021-08-01_12h32.51.717,arrow_simon_norep,2021.1.2,MacIntel,59.99880002,,,,,,,,,,,,,,,,,,,,,p,1,1.9189,32,TRUE,FALSE,7,3,31,0,1,,,,,,,
,,,,,,1,1.913463483,#a3d0fb,,right_blue.png,o,,,,,,o,right_blue.png,right_orange.png,p,right,60fde665fa8ed91a1c462c3e,001,2021-08-01_12h32.51.717,arrow_simon_norep,2021.1.2,MacIntel,59.99880002,,,,,,,,,,,,,,,,,,,,,p,0,1.4515,33,FALSE,FALSE,8,0,32,1,1,,,,,,,
,,,,,,1,2.098738184,#f3af84,,right_orange.png,p,,,,,,o,right_blue.png,right_orange.png,p,right,60fde665fa8ed91a1c462c3e,001,2021-08-01_12h32.51.717,arrow_simon_norep,2021.1.2,MacIntel,59.99880002,,,,,,,,,,,,,,,,,,,,,o,0,1.5393,34,FALSE,FALSE,8,1,33,1,1,,,,,,,
,,,,,,1,2.287471114,#a3d0fb,,left_blue.png,w,,,,,,w,left_blue.png,left_orange.png,q,right,60fde665fa8ed91a1c462c3e,001,2021-08-01_12h32.51.717,arrow_simon_norep,2021.1.2,MacIntel,59.99880002,,,,,,,,,,,,,,,,,,,,,w,1,1.7025,35,TRUE,FALSE,8,2,34,3,1,,,,,,,
,,,,,,1,2.471385158,#f3af84,,left_orange.png,q,,,,,,w,left_blue.png,left_orange.png,q,left,60fde665fa8ed91a1c462c3e,001,2021-08-01_12h32.51.717,arrow_simon_norep,2021.1.2,MacIntel,59.99880002,,,,,,,,,,,,,,,,,,,,,q,1,1.8067,36,TRUE,FALSE,8,3,35,2,1,,,,,,,
,,,,,,1,2.413879354,#a3d0fb,,right_blue.png,o,,,,,,o,right_blue.png,right_orange.png,p,left,60fde665fa8ed91a1c462c3e,001,2021-08-01_12h32.51.717,arrow_simon_norep,2021.1.2,MacIntel,59.99880002,,,,,,,,,,,,,,,,,,,,,w,0,1.7506,37,TRUE,FALSE,9,0,36,0,1,,,,,,,
,,,,,,1,2.251366959,#f3af84,,left_orange.png,q,,,,,,w,left_blue.png,left_orange.png,q,right,60fde665fa8ed91a1c462c3e,001,2021-08-01_12h32.51.717,arrow_simon_norep,2021.1.2,MacIntel,59.99880002,,,,,,,,,,,,,,,,,,,,,q,1,1.7033,38,TRUE,FALSE,9,1,37,3,1,,,,,,,
,,,,,,0,2.121984888,#a3d0fb,,right_blue.png,o,,,,,,o,right_blue.png,right_orange.png,p,left,60fde665fa8ed91a1c462c3e,001,2021-08-01_12h32.51.717,arrow_simon_norep,2021.1.2,MacIntel,59.99880002,,,,,,,,,,,,,,,,,,,,,o,1,1.5206,39,FALSE,FALSE,9,2,38,0,1,,,,,,,
,,,,,,0,2.033156397,#f3af84,,left_orange.png,q,,,,,,w,left_blue.png,left_orange.png,q,left,60fde665fa8ed91a1c462c3e,001,2021-08-01_12h32.51.717,arrow_simon_norep,2021.1.2,MacIntel,59.99880002,,,,,,,,,,,,,,,,,,,,,q,1,1.509,40,FALSE,FALSE,9,3,39,2,1,,,,,,,
,,,,,,0,2.071463678,#a3d0fb,,left_blue.png,w,,,,,,w,left_blue.png,left_orange.png,q,right,60fde665fa8ed91a1c462c3e,001,2021-08-01_12h32.51.717,arrow_simon_norep,2021.1.2,MacIntel,59.99880002,,,,,,,,,,,,,,,,,,,,,w,1,1.4829,41,FALSE,FALSE,10,0,40,3,1,,,,,,,
,,,,,,0,2.481700207,#f3af84,,right_orange.png,p,,,,,,o,right_blue.png,right_orange.png,p,left,60fde665fa8ed91a1c462c3e,001,2021-08-01_12h32.51.717,arrow_simon_norep,2021.1.2,MacIntel,59.99880002,,,,,,,,,,,,,,,,,,,,,q,0,1.7699,42,TRUE,FALSE,10,1,41,0,1,,,,,,,
,,,,,,0,1.994523395,#a3d0fb,,right_blue.png,o,,,,,,o,right_blue.png,right_orange.png,p,right,60fde665fa8ed91a1c462c3e,001,2021-08-01_12h32.51.717,arrow_simon_norep,2021.1.2,MacIntel,59.99880002,,,,,,,,,,,,,,,,,,,,,o,1,1.3817,43,FALSE,TRUE,10,2,42,1,1,,,,,,,
,,,,,,0,2.149527677,#f3af84,,left_orange.png,q,,,,,,w,left_blue.png,left_orange.png,q,right,60fde665fa8ed91a1c462c3e,001,2021-08-01_12h32.51.717,arrow_simon_norep,2021.1.2,MacIntel,59.99880002,,,,,,,,,,,,,,,,,,,,,q,1,1.5377,44,FALSE,FALSE,10,3,43,3,1,,,,,,,
,,,,,,0,1.742635781,#a3d0fb,,left_blue.png,w,,,,,,w,left_blue.png,left_orange.png,q,left,60fde665fa8ed91a1c462c3e,001,2021-08-01_12h32.51.717,arrow_simon_norep,2021.1.2,MacIntel,59.99880002,,,,,,,,,,,,,,,,,,,,,w,1,1.3037,45,FALSE,TRUE,11,0,44,2,1,,,,,,,
,,,,,,0,2.382548026,#f3af84,,right_orange.png,p,,,,,,o,right_blue.png,right_orange.png,p,right,60fde665fa8ed91a1c462c3e,001,2021-08-01_12h32.51.717,arrow_simon_norep,2021.1.2,MacIntel,59.99880002,,,,,,,,,,,,,,,,,,,,,p,1,1.6771,46,TRUE,FALSE,11,1,45,1,1,,,,,,,
,,,,,,0,1.506026563,#a3d0fb,,left_blue.png,w,,,,,,w,left_blue.png,left_orange.png,q,right,60fde665fa8ed91a1c462c3e,001,2021-08-01_12h32.51.717,arrow_simon_norep,2021.1.2,MacIntel,59.99880002,,,,,,,,,,,,,,,,,,,,,w,1,1.3719,47,FALSE,TRUE,11,2,46,3,1,,,,,,,
,,,,,,0,1.687255742,#f3af84,,right_orange.png,p,,,,,,o,right_blue.png,right_orange.png,p,left,60fde665fa8ed91a1c462c3e,001,2021-08-01_12h32.51.717,arrow_simon_norep,2021.1.2,MacIntel,59.99880002,,,,,,,,,,,,,,,,,,,,,p,1,1.337,48,FALSE,TRUE,11,3,47,0,1,,,,,,,
,,,,,,0,2.070232402,#a3d0fb,,left_blue.png,w,,,,,,w,left_blue.png,left_orange.png,q,right,60fde665fa8ed91a1c462c3e,001,2021-08-01_12h32.51.717,arrow_simon_norep,2021.1.2,MacIntel,59.99880002,,,,,,,,,,,,,,,,,,,,,w,1,1.5093,49,FALSE,FALSE,12,0,48,3,1,,,,,,,
,,,,,,0,1.582969875,#f3af84,,left_orange.png,q,,,,,,w,left_blue.png,left_orange.png,q,right,60fde665fa8ed91a1c462c3e,001,2021-08-01_12h32.51.717,arrow_simon_norep,2021.1.2,MacIntel,59.99880002,,,,,,,,,,,,,,,,,,,,,q,1,1.7357,50,TRUE,FALSE,12,1,49,3,1,,,,,,,
,,,,,,0,2.444882351,#a3d0fb,,left_blue.png,w,,,,,,w,left_blue.png,left_orange.png,q,left,60fde665fa8ed91a1c462c3e,001,2021-08-01_12h32.51.717,arrow_simon_norep,2021.1.2,MacIntel,59.99880002,,,,,,,,,,,,,,,,,,,,,q,0,1.8585,51,TRUE,FALSE,12,2,50,2,1,,,,,,,
,,,,,,0,1.52730441,#f3af84,,left_orange.png,q,,,,,,w,left_blue.png,left_orange.png,q,right,60fde665fa8ed91a1c462c3e,001,2021-08-01_12h32.51.717,arrow_simon_norep,2021.1.2,MacIntel,59.99880002,,,,,,,,,,,,,,,,,,,,,q,1,1.7015,52,TRUE,FALSE,12,3,51,3,1,,,,,,,
,,,,,,0,1.638212429,#a3d0fb,,right_blue.png,o,,,,,,o,right_blue.png,right_orange.png,p,right,60fde665fa8ed91a1c462c3e,001,2021-08-01_12h32.51.717,arrow_simon_norep,2021.1.2,MacIntel,59.99880002,,,,,,,,,,,,,,,,,,,,,o,1,1.3514,53,FALSE,TRUE,13,0,52,1,1,,,,,,,
,,,,,,0,2.397781236,#f3af84,,left_orange.png,q,,,,,,w,left_blue.png,left_orange.png,q,right,60fde665fa8ed91a1c462c3e,001,2021-08-01_12h32.51.717,arrow_simon_norep,2021.1.2,MacIntel,59.99880002,,,,,,,,,,,,,,,,,,,,,q,1,1.8061,54,TRUE,FALSE,13,1,53,3,1,,,,,,,
,,,,,,0,2.372706587,#a3d0fb,,left_blue.png,w,,,,,,w,left_blue.png,left_orange.png,q,left,60fde665fa8ed91a1c462c3e,001,2021-08-01_12h32.51.717,arrow_simon_norep,2021.1.2,MacIntel,59.99880002,,,,,,,,,,,,,,,,,,,,,w,1,1.7411,55,TRUE,FALSE,13,2,54,2,1,,,,,,,
,,,,,,0,2.335018937,#f3af84,,right_orange.png,p,,,,,,o,right_blue.png,right_orange.png,p,right,60fde665fa8ed91a1c462c3e,001,2021-08-01_12h32.51.717,arrow_simon_norep,2021.1.2,MacIntel,59.99880002,,,,,,,,,,,,,,,,,,,,,p,1,1.718,56,TRUE,FALSE,13,3,55,1,1,,,,,,,
,,,,,,0,1.571266053,#a3d0fb,,right_blue.png,o,,,,,,o,right_blue.png,right_orange.png,p,left,60fde665fa8ed91a1c462c3e,001,2021-08-01_12h32.51.717,arrow_simon_norep,2021.1.2,MacIntel,59.99880002,,,,,,,,,,,,,,,,,,,,,o,1,1.3854,57,FALSE,TRUE,14,0,56,0,1,,,,,,,
,,,,,,0,1.823457124,#f3af84,,right_orange.png,p,,,,,,o,right_blue.png,right_orange.png,p,right,60fde665fa8ed91a1c462c3e,001,2021-08-01_12h32.51.717,arrow_simon_norep,2021.1.2,MacIntel,59.99880002,,,,,,,,,,,,,,,,,,,,,p,1,1.819,58,TRUE,FALSE,14,1,57,1,1,,,,,,,
,,,,,,0,2.431764835,#a3d0fb,,left_blue.png,w,,,,,,w,left_blue.png,left_orange.png,q,left,60fde665fa8ed91a1c462c3e,001,2021-08-01_12h32.51.717,arrow_simon_norep,2021.1.2,MacIntel,59.99880002,,,,,,,,,,,,,,,,,,,,,q,0,1.288,59,FALSE,TRUE,14,2,58,2,1,,,,,,,
,,,,,,0,1.540926792,#f3af84,,left_orange.png,q,,,,,,w,left_blue.png,left_orange.png,q,left,60fde665fa8ed91a1c462c3e,001,2021-08-01_12h32.51.717,arrow_simon_norep,2021.1.2,MacIntel,59.99880002,,,,,,,,,,,,,,,,,,,,,q,1,2.0452,60,TRUE,FALSE,14,3,59,2,1,,,,,,,
,,,,,,,,,,,,,,,,,,,,,,60fde665fa8ed91a1c462c3e,001,2021-08-01_12h32.51.717,arrow_simon_norep,2021.1.2,MacIntel,59.99880002,,,,,,,,,,,,,,,,,,,,,,,,,,,,,,,,space,48.7099,2,0,2,0,1
,,,,,,0,2.233076541,#a3d0fb,,right_blue.png,o,,,,,,o,right_blue.png,right_orange.png,p,left,60fde665fa8ed91a1c462c3e,001,2021-08-01_12h32.51.717,arrow_simon_norep,2021.1.2,MacIntel,59.99880002,,,,,,,,,,,,,,,,,,,,,o,1,1.6557,1,TRUE,FALSE,0,0,0,0,1,,,,,,,
,,,,,,0,1.810536965,#f3af84,,left_orange.png,q,,,,,,w,left_blue.png,left_orange.png,q,right,60fde665fa8ed91a1c462c3e,001,2021-08-01_12h32.51.717,arrow_simon_norep,2021.1.2,MacIntel,59.99880002,,,,,,,,,,,,,,,,,,,,,q,1,1.3506,2,FALSE,TRUE,0,1,1,3,1,,,,,,,
,,,,,,0,1.843945262,#a3d0fb,,left_blue.png,w,,,,,,w,left_blue.png,left_orange.png,q,right,60fde665fa8ed91a1c462c3e,001,2021-08-01_12h32.51.717,arrow_simon_norep,2021.1.2,MacIntel,59.99880002,,,,,,,,,,,,,,,,,,,,,w,1,1.4942,3,FALSE,FALSE,0,2,2,3,1,,,,,,,
,,,,,,0,1.808045987,#f3af84,,left_orange.png,q,,,,,,w,left_blue.png,left_orange.png,q,right,60fde665fa8ed91a1c462c3e,001,2021-08-01_12h32.51.717,arrow_simon_norep,2021.1.2,MacIntel,59.99880002,,,,,,,,,,,,,,,,,,,,,q,1,1.5671,4,FALSE,FALSE,0,3,3,3,1,,,,,,,
,,,,,,0,2.115851503,#a3d0fb,,right_blue.png,o,,,,,,o,right_blue.png,right_orange.png,p,right,60fde665fa8ed91a1c462c3e,001,2021-08-01_12h32.51.717,arrow_simon_norep,2021.1.2,MacIntel,59.99880002,,,,,,,,,,,,,,,,,,,,,o,1,1.4496,5,FALSE,FALSE,1,0,4,1,1,,,,,,,
,,,,,,0,1.880830951,#f3af84,,right_orange.png,p,,,,,,o,right_blue.png,right_orange.png,p,right,60fde665fa8ed91a1c462c3e,001,2021-08-01_12h32.51.717,arrow_simon_norep,2021.1.2,MacIntel,59.99880002,,,,,,,,,,,,,,,,,,,,,p,1,1.5353,6,FALSE,FALSE,1,1,5,1,1,,,,,,,
,,,,,,0,1.540968608,#a3d0fb,,right_blue.png,o,,,,,,o,right_blue.png,right_orange.png,p,left,60fde665fa8ed91a1c462c3e,001,2021-08-01_12h32.51.717,arrow_simon_norep,2021.1.2,MacIntel,59.99880002,,,,,,,,,,,,,,,,,,,,,o,1,1.1838,7,FALSE,TRUE,1,2,6,0,1,,,,,,,
,,,,,,0,1.825151187,#f3af84,,right_orange.png,p,,,,,,o,right_blue.png,right_orange.png,p,left,60fde665fa8ed91a1c462c3e,001,2021-08-01_12h32.51.717,arrow_simon_norep,2021.1.2,MacIntel,59.99880002,,,,,,,,,,,,,,,,,,,,,p,1,1.4419,8,FALSE,FALSE,1,3,7,0,1,,,,,,,
,,,,,,0,1.657744154,#a3d0fb,,right_blue.png,o,,,,,,o,right_blue.png,right_orange.png,p,right,60fde665fa8ed91a1c462c3e,001,2021-08-01_12h32.51.717,arrow_simon_norep,2021.1.2,MacIntel,59.99880002,,,,,,,,,,,,,,,,,,,,,o,1,1.2376,9,FALSE,TRUE,2,0,8,1,1,,,,,,,
,,,,,,0,1.946443145,#f3af84,,right_orange.png,p,,,,,,o,right_blue.png,right_orange.png,p,right,60fde665fa8ed91a1c462c3e,001,2021-08-01_12h32.51.717,arrow_simon_norep,2021.1.2,MacIntel,59.99880002,,,,,,,,,,,,,,,,,,,,,p,1,1.4512,10,FALSE,FALSE,2,1,9,1,1,,,,,,,
,,,,,,0,2.444773426,#a3d0fb,,right_blue.png,o,,,,,,o,right_blue.png,right_orange.png,p,right,60fde665fa8ed91a1c462c3e,001,2021-08-01_12h32.51.717,arrow_simon_norep,2021.1.2,MacIntel,59.99880002,,,,,,,,,,,,,,,,,,,,,w,0,1.6844,11,TRUE,FALSE,2,2,10,1,1,,,,,,,
,,,,,,0,2.439889027,#f3af84,,left_orange.png,q,,,,,,w,left_blue.png,left_orange.png,q,left,60fde665fa8ed91a1c462c3e,001,2021-08-01_12h32.51.717,arrow_simon_norep,2021.1.2,MacIntel,59.99880002,,,,,,,,,,,,,,,,,,,,,q,1,1.7411,12,TRUE,FALSE,2,3,11,2,1,,,,,,,
,,,,,,0,2.43624764,#a3d0fb,,right_blue.png,o,,,,,,o,right_blue.png,right_orange.png,p,right,60fde665fa8ed91a1c462c3e,001,2021-08-01_12h32.51.717,arrow_simon_norep,2021.1.2,MacIntel,59.99880002,,,,,,,,,,,,,,,,,,,,,o,1,1.658,13,TRUE,FALSE,3,0,12,1,1,,,,,,,
,,,,,,0,2.475567875,#f3af84,,right_orange.png,p,,,,,,o,right_blue.png,right_orange.png,p,left,60fde665fa8ed91a1c462c3e,001,2021-08-01_12h32.51.717,arrow_simon_norep,2021.1.2,MacIntel,59.99880002,,,,,,,,,,,,,,,,,,,,,q,0,1.7372,14,TRUE,FALSE,3,1,13,0,1,,,,,,,
,,,,,,0,2.096687961,#a3d0fb,,right_blue.png,o,,,,,,o,right_blue.png,right_orange.png,p,right,60fde665fa8ed91a1c462c3e,001,2021-08-01_12h32.51.717,arrow_simon_norep,2021.1.2,MacIntel,59.99880002,,,,,,,,,,,,,,,,,,,,,o,1,1.5129,15,FALSE,FALSE,3,2,14,1,1,,,,,,,
,,,,,,0,2.380089406,#f3af84,,left_orange.png,q,,,,,,w,left_blue.png,left_orange.png,q,left,60fde665fa8ed91a1c462c3e,001,2021-08-01_12h32.51.717,arrow_simon_norep,2021.1.2,MacIntel,59.99880002,,,,,,,,,,,,,,,,,,,,,q,1,1.7361,16,TRUE,FALSE,3,3,15,2,1,,,,,,,
,,,,,,0,1.918521574,#a3d0fb,,right_blue.png,o,,,,,,o,right_blue.png,right_orange.png,p,left,60fde665fa8ed91a1c462c3e,001,2021-08-01_12h32.51.717,arrow_simon_norep,2021.1.2,MacIntel,59.99880002,,,,,,,,,,,,,,,,,,,,,o,1,1.636,17,TRUE,FALSE,4,0,16,0,1,,,,,,,
,,,,,,0,1.627306253,#f3af84,,left_orange.png,q,,,,,,w,left_blue.png,left_orange.png,q,right,60fde665fa8ed91a1c462c3e,001,2021-08-01_12h32.51.717,arrow_simon_norep,2021.1.2,MacIntel,59.99880002,,,,,,,,,,,,,,,,,,,,,q,1,1.2841,18,FALSE,TRUE,4,1,17,3,1,,,,,,,
,,,,,,0,2.454827185,#a3d0fb,,right_blue.png,o,,,,,,o,right_blue.png,right_orange.png,p,right,60fde665fa8ed91a1c462c3e,001,2021-08-01_12h32.51.717,arrow_simon_norep,2021.1.2,MacIntel,59.99880002,,,,,,,,,,,,,,,,,,,,,o,1,1.729,19,TRUE,FALSE,4,2,18,1,1,,,,,,,
,,,,,,0,1.969998277,#f3af84,,left_orange.png,q,,,,,,w,left_blue.png,left_orange.png,q,right,60fde665fa8ed91a1c462c3e,001,2021-08-01_12h32.51.717,arrow_simon_norep,2021.1.2,MacIntel,59.99880002,,,,,,,,,,,,,,,,,,,,,q,1,1.4198,20,FALSE,FALSE,4,3,19,3,1,,,,,,,
,,,,,,0,2.027708323,#a3d0fb,,left_blue.png,w,,,,,,w,left_blue.png,left_orange.png,q,right,60fde665fa8ed91a1c462c3e,001,2021-08-01_12h32.51.717,arrow_simon_norep,2021.1.2,MacIntel,59.99880002,,,,,,,,,,,,,,,,,,,,,o,0,1.3401,21,FALSE,TRUE,5,0,20,3,1,,,,,,,
,,,,,,0,1.735755911,#f3af84,,left_orange.png,q,,,,,,w,left_blue.png,left_orange.png,q,left,60fde665fa8ed91a1c462c3e,001,2021-08-01_12h32.51.717,arrow_simon_norep,2021.1.2,MacIntel,59.99880002,,,,,,,,,,,,,,,,,,,,,q,1,1.1191,22,FALSE,TRUE,5,1,21,2,1,,,,,,,
,,,,,,0,2.17633451,#a3d0fb,,left_blue.png,w,,,,,,w,left_blue.png,left_orange.png,q,left,60fde665fa8ed91a1c462c3e,001,2021-08-01_12h32.51.717,arrow_simon_norep,2021.1.2,MacIntel,59.99880002,,,,,,,,,,,,,,,,,,,,,w,1,1.6064,23,TRUE,FALSE,5,2,22,2,1,,,,,,,
,,,,,,0,1.795612643,#f3af84,,left_orange.png,q,,,,,,w,left_blue.png,left_orange.png,q,right,60fde665fa8ed91a1c462c3e,001,2021-08-01_12h32.51.717,arrow_simon_norep,2021.1.2,MacIntel,59.99880002,,,,,,,,,,,,,,,,,,,,,q,1,1.7009,24,TRUE,FALSE,5,3,23,3,1,,,,,,,
,,,,,,0,1.726984049,#a3d0fb,,left_blue.png,w,,,,,,w,left_blue.png,left_orange.png,q,left,60fde665fa8ed91a1c462c3e,001,2021-08-01_12h32.51.717,arrow_simon_norep,2021.1.2,MacIntel,59.99880002,,,,,,,,,,,,,,,,,,,,,w,1,1.2034,25,FALSE,TRUE,6,0,24,2,1,,,,,,,
,,,,,,0,2.359490622,#f3af84,,left_orange.png,q,,,,,,w,left_blue.png,left_orange.png,q,left,60fde665fa8ed91a1c462c3e,001,2021-08-01_12h32.51.717,arrow_simon_norep,2021.1.2,MacIntel,59.99880002,,,,,,,,,,,,,,,,,,,,,q,1,1.7513,26,TRUE,FALSE,6,1,25,2,1,,,,,,,
,,,,,,0,1.965685754,#a3d0fb,,left_blue.png,w,,,,,,w,left_blue.png,left_orange.png,q,right,60fde665fa8ed91a1c462c3e,001,2021-08-01_12h32.51.717,arrow_simon_norep,2021.1.2,MacIntel,59.99880002,,,,,,,,,,,,,,,,,,,,,w,1,1.376,27,FALSE,TRUE,6,2,26,3,1,,,,,,,
,,,,,,0,2.281177476,#f3af84,,right_orange.png,p,,,,,,o,right_blue.png,right_orange.png,p,left,60fde665fa8ed91a1c462c3e,001,2021-08-01_12h32.51.717,arrow_simon_norep,2021.1.2,MacIntel,59.99880002,,,,,,,,,,,,,,,,,,,,,p,1,1.8006,28,TRUE,FALSE,6,3,27,0,1,,,,,,,
,,,,,,0,2.383693336,#a3d0fb,,right_blue.png,o,,,,,,o,right_blue.png,right_orange.png,p,left,60fde665fa8ed91a1c462c3e,001,2021-08-01_12h32.51.717,arrow_simon_norep,2021.1.2,MacIntel,59.99880002,,,,,,,,,,,,,,,,,,,,,o,1,1.8443,29,TRUE,FALSE,7,0,28,0,1,,,,,,,
,,,,,,0,1.651394555,#f3af84,,right_orange.png,p,,,,,,o,right_blue.png,right_orange.png,p,left,60fde665fa8ed91a1c462c3e,001,2021-08-01_12h32.51.717,arrow_simon_norep,2021.1.2,MacIntel,59.99880002,,,,,,,,,,,,,,,,,,,,,p,1,1.7928,30,TRUE,FALSE,7,1,29,0,1,,,,,,,
,,,,,,0,1.759291185,#a3d0fb,,right_blue.png,o,,,,,,o,right_blue.png,right_orange.png,p,right,60fde665fa8ed91a1c462c3e,001,2021-08-01_12h32.51.717,arrow_simon_norep,2021.1.2,MacIntel,59.99880002,,,,,,,,,,,,,,,,,,,,,p,0,1.3899,31,FALSE,TRUE,7,2,30,1,1,,,,,,,
,,,,,,0,2.211777822,#f3af84,,left_orange.png,q,,,,,,w,left_blue.png,left_orange.png,q,left,60fde665fa8ed91a1c462c3e,001,2021-08-01_12h32.51.717,arrow_simon_norep,2021.1.2,MacIntel,59.99880002,,,,,,,,,,,,,,,,,,,,,q,1,1.5095,32,FALSE,FALSE,7,3,31,2,1,,,,,,,
,,,,,,0,1.803585708,#a3d0fb,,right_blue.png,o,,,,,,o,right_blue.png,right_orange.png,p,right,60fde665fa8ed91a1c462c3e,001,2021-08-01_12h32.51.717,arrow_simon_norep,2021.1.2,MacIntel,59.99880002,,,,,,,,,,,,,,,,,,,,,o,1,1.4161,33,FALSE,FALSE,8,0,32,1,1,,,,,,,
,,,,,,0,2.24467949,#f3af84,,left_orange.png,q,,,,,,w,left_blue.png,left_orange.png,q,left,60fde665fa8ed91a1c462c3e,001,2021-08-01_12h32.51.717,arrow_simon_norep,2021.1.2,MacIntel,59.99880002,,,,,,,,,,,,,,,,,,,,,q,1,1.6189,34,TRUE,FALSE,8,1,33,2,1,,,,,,,
,,,,,,0,2.462455761,#a3d0fb,,left_blue.png,w,,,,,,w,left_blue.png,left_orange.png,q,left,60fde665fa8ed91a1c462c3e,001,2021-08-01_12h32.51.717,arrow_simon_norep,2021.1.2,MacIntel,59.99880002,,,,,,,,,,,,,,,,,,,,,w,1,1.7902,35,TRUE,FALSE,8,2,34,2,1,,,,,,,
,,,,,,0,1.791020027,#f3af84,,right_orange.png,p,,,,,,o,right_blue.png,right_orange.png,p,left,60fde665fa8ed91a1c462c3e,001,2021-08-01_12h32.51.717,arrow_simon_norep,2021.1.2,MacIntel,59.99880002,,,,,,,,,,,,,,,,,,,,,p,1,1.7524,36,TRUE,FALSE,8,3,35,0,1,,,,,,,
,,,,,,0,2.049427654,#a3d0fb,,left_blue.png,w,,,,,,w,left_blue.png,left_orange.png,q,left,60fde665fa8ed91a1c462c3e,001,2021-08-01_12h32.51.717,arrow_simon_norep,2021.1.2,MacIntel,59.99880002,,,,,,,,,,,,,,,,,,,,,w,1,1.3614,37,FALSE,TRUE,9,0,36,2,1,,,,,,,
,,,,,,0,2.068342442,#f3af84,,right_orange.png,p,,,,,,o,right_blue.png,right_orange.png,p,left,60fde665fa8ed91a1c462c3e,001,2021-08-01_12h32.51.717,arrow_simon_norep,2021.1.2,MacIntel,59.99880002,,,,,,,,,,,,,,,,,,,,,p,1,1.7225,38,TRUE,FALSE,9,1,37,0,1,,,,,,,
,,,,,,0,1.682066411,#a3d0fb,,right_blue.png,o,,,,,,o,right_blue.png,right_orange.png,p,right,60fde665fa8ed91a1c462c3e,001,2021-08-01_12h32.51.717,arrow_simon_norep,2021.1.2,MacIntel,59.99880002,,,,,,,,,,,,,,,,,,,,,o,1,1.4002,39,FALSE,FALSE,9,2,38,1,1,,,,,,,
,,,,,,0,2.169230481,#f3af84,,right_orange.png,p,,,,,,o,right_blue.png,right_orange.png,p,right,60fde665fa8ed91a1c462c3e,001,2021-08-01_12h32.51.717,arrow_simon_norep,2021.1.2,MacIntel,59.99880002,,,,,,,,,,,,,,,,,,,,,p,1,1.6507,40,TRUE,FALSE,9,3,39,1,1,,,,,,,
,,,,,,0,1.512333683,#a3d0fb,,left_blue.png,w,,,,,,w,left_blue.png,left_orange.png,q,right,60fde665fa8ed91a1c462c3e,001,2021-08-01_12h32.51.717,arrow_simon_norep,2021.1.2,MacIntel,59.99880002,,,,,,,,,,,,,,,,,,,,,w,1,1.646,41,TRUE,FALSE,10,0,40,3,1,,,,,,,
,,,,,,0,1.686902067,#f3af84,,left_orange.png,q,,,,,,w,left_blue.png,left_orange.png,q,right,60fde665fa8ed91a1c462c3e,001,2021-08-01_12h32.51.717,arrow_simon_norep,2021.1.2,MacIntel,59.99880002,,,,,,,,,,,,,,,,,,,,,q,1,1.417,42,FALSE,FALSE,10,1,41,3,1,,,,,,,
,,,,,,0,1.979259844,#a3d0fb,,left_blue.png,w,,,,,,w,left_blue.png,left_orange.png,q,left,60fde665fa8ed91a1c462c3e,001,2021-08-01_12h32.51.717,arrow_simon_norep,2021.1.2,MacIntel,59.99880002,,,,,,,,,,,,,,,,,,,,,w,1,1.6839,43,TRUE,FALSE,10,2,42,2,1,,,,,,,
,,,,,,0,2.104557535,#f3af84,,left_orange.png,q,,,,,,w,left_blue.png,left_orange.png,q,left,60fde665fa8ed91a1c462c3e,001,2021-08-01_12h32.51.717,arrow_simon_norep,2021.1.2,MacIntel,59.99880002,,,,,,,,,,,,,,,,,,,,,q,1,1.6099,44,TRUE,FALSE,10,3,43,2,1,,,,,,,
,,,,,,0,1.567825146,#a3d0fb,,left_blue.png,w,,,,,,w,left_blue.png,left_orange.png,q,right,60fde665fa8ed91a1c462c3e,001,2021-08-01_12h32.51.717,arrow_simon_norep,2021.1.2,MacIntel,59.99880002,,,,,,,,,,,,,,,,,,,,,w,1,1.2161,45,FALSE,TRUE,11,0,44,3,1,,,,,,,
,,,,,,0,1.556949133,#f3af84,,right_orange.png,p,,,,,,o,right_blue.png,right_orange.png,p,right,60fde665fa8ed91a1c462c3e,001,2021-08-01_12h32.51.717,arrow_simon_norep,2021.1.2,MacIntel,59.99880002,,,,,,,,,,,,,,,,,,,,,p,1,1.4342,46,FALSE,FALSE,11,1,45,1,1,,,,,,,
