instruct_resp_simon.keys,instruct_resp_simon.corr,instruct_resp_simon.rt,trial_resp_simon.keys,trial_resp_simon.corr,trial_resp_simon.rt,kerr,target_onset,target_color,target_pos,target_file,target_resp,trials_train_simon.thisRepN,trials_train_simon.thisTrialN,trials_train_simon.thisN,trials_train_simon.thisIndex,trials_train_simon.ran,odd_target_resp,odd_target_file,even_target_file,even_target_resp,target_side,participant,session,date,expName,psychopyVersion,OS,frameRate,train_block_note_resp.keys,train_block_note_resp.rt,blocks_train.thisRepN,blocks_train.thisTrialN,blocks_train.thisN,blocks_train.thisIndex,blocks_train.ran,instruct_resp_timing.keys,instruct_resp_timing.corr,instruct_resp_timing.rt,trial_resp_timing.keys,trial_resp_timing.rt,trials_train_timing.thisRepN,trials_train_timing.thisTrialN,trials_train_timing.thisN,trials_train_timing.thisIndex,trials_train_timing.ran,instruct_resp.keys,instruct_resp.corr,instruct_resp.rt,trial_resp.keys,trial_resp.corr,trial_resp.rt,trial_num,too_slow,too_soon,trials.thisRepN,trials.thisTrialN,trials.thisN,trials.thisIndex,trials.ran,block_note_resp.keys,block_note_resp.rt,blocks.thisRepN,blocks.thisTrialN,blocks.thisN,blocks.thisIndex,blocks.ran
space,0,28.5388,q,0,3.8754,1,0.445377934,#a3d0fb,,left_blue.png,w,0,0,0,3,1,w,left_blue.png,left_orange.png,q,right,60fd978c77223cb3d24d6618,001,2021-08-01_13h24.39.361,arrow_simon_norep,2021.1.2,MacIntel,60.0024001,,,,,,,,,,,,,,,,,,,,,,,,,,,,,,,,,,,,,,
,,,o,0,2.6702,1,0.694396809,#f3af84,,right_orange.png,p,0,1,1,0,1,o,right_blue.png,right_orange.png,p,left,60fd978c77223cb3d24d6618,001,2021-08-01_13h24.39.361,arrow_simon_norep,2021.1.2,MacIntel,60.0024001,,,,,,,,,,,,,,,,,,,,,,,,,,,,,,,,,,,,,,
,,,w,1,1.3416,0,0.435492399,#a3d0fb,,left_blue.png,w,0,2,2,3,1,w,left_blue.png,left_orange.png,q,right,60fd978c77223cb3d24d6618,001,2021-08-01_13h24.39.361,arrow_simon_norep,2021.1.2,MacIntel,60.0024001,,,,,,,,,,,,,,,,,,,,,,,,,,,,,,,,,,,,,,
,,,q,1,2.1234,0,0.923616034,#f3af84,,left_orange.png,q,0,3,3,2,1,w,left_blue.png,left_orange.png,q,left,60fd978c77223cb3d24d6618,001,2021-08-01_13h24.39.361,arrow_simon_norep,2021.1.2,MacIntel,60.0024001,,,,,,,,,,,,,,,,,,,,,,,,,,,,,,,,,,,,,,
,,,p,0,1.4256,1,0.481198476,#a3d0fb,,right_blue.png,o,1,0,4,1,1,o,right_blue.png,right_orange.png,p,right,60fd978c77223cb3d24d6618,001,2021-08-01_13h24.39.361,arrow_simon_norep,2021.1.2,MacIntel,60.0024001,,,,,,,,,,,,,,,,,,,,,,,,,,,,,,,,,,,,,,
,,,p,1,1.6242,0,0.617049749,#f3af84,,right_orange.png,p,1,1,5,1,1,o,right_blue.png,right_orange.png,p,right,60fd978c77223cb3d24d6618,001,2021-08-01_13h24.39.361,arrow_simon_norep,2021.1.2,MacIntel,60.0024001,,,,,,,,,,,,,,,,,,,,,,,,,,,,,,,,,,,,,,
,,,o,0,1.4913,1,0.861807457,#a3d0fb,,left_blue.png,w,1,2,6,3,1,w,left_blue.png,left_orange.png,q,right,60fd978c77223cb3d24d6618,001,2021-08-01_13h24.39.361,arrow_simon_norep,2021.1.2,MacIntel,60.0024001,,,,,,,,,,,,,,,,,,,,,,,,,,,,,,,,,,,,,,
,,,q,1,2.1871,0,0.953023361,#f3af84,,left_orange.png,q,1,3,7,2,1,w,left_blue.png,left_orange.png,q,left,60fd978c77223cb3d24d6618,001,2021-08-01_13h24.39.361,arrow_simon_norep,2021.1.2,MacIntel,60.0024001,,,,,,,,,,,,,,,,,,,,,,,,,,,,,,,,,,,,,,
,,,p,0,1.0672,1,0.229895851,#a3d0fb,,right_blue.png,o,2,0,8,1,1,o,right_blue.png,right_orange.png,p,right,60fd978c77223cb3d24d6618,001,2021-08-01_13h24.39.361,arrow_simon_norep,2021.1.2,MacIntel,60.0024001,,,,,,,,,,,,,,,,,,,,,,,,,,,,,,,,,,,,,,
,,,w,0,1.1705,1,0.340792483,#f3af84,,left_orange.png,q,2,1,9,2,1,w,left_blue.png,left_orange.png,q,left,60fd978c77223cb3d24d6618,001,2021-08-01_13h24.39.361,arrow_simon_norep,2021.1.2,MacIntel,60.0024001,,,,,,,,,,,,,,,,,,,,,,,,,,,,,,,,,,,,,,
,,,o,0,1.049,1,0.242735879,#a3d0fb,,left_blue.png,w,2,2,10,3,1,w,left_blue.png,left_orange.png,q,right,60fd978c77223cb3d24d6618,001,2021-08-01_13h24.39.361,arrow_simon_norep,2021.1.2,MacIntel,60.0024001,,,,,,,,,,,,,,,,,,,,,,,,,,,,,,,,,,,,,,
,,,p,1,1.5039,0,0.829052916,#f3af84,,right_orange.png,p,2,3,11,1,1,o,right_blue.png,right_orange.png,p,right,60fd978c77223cb3d24d6618,001,2021-08-01_13h24.39.361,arrow_simon_norep,2021.1.2,MacIntel,60.0024001,,,,,,,,,,,,,,,,,,,,,,,,,,,,,,,,,,,,,,
,,,w,0,3.9582,1,0.538962449,#a3d0fb,,right_blue.png,o,3,0,12,0,1,o,right_blue.png,right_orange.png,p,left,60fd978c77223cb3d24d6618,001,2021-08-01_13h24.39.361,arrow_simon_norep,2021.1.2,MacIntel,60.0024001,,,,,,,,,,,,,,,,,,,,,,,,,,,,,,,,,,,,,,
,,,q,1,1.0898,0,0.416571003,#f3af84,,left_orange.png,q,3,1,13,2,1,w,left_blue.png,left_orange.png,q,left,60fd978c77223cb3d24d6618,001,2021-08-01_13h24.39.361,arrow_simon_norep,2021.1.2,MacIntel,60.0024001,,,,,,,,,,,,,,,,,,,,,,,,,,,,,,,,,,,,,,
,,,w,0,1.3468,1,0.125442992,#a3d0fb,,right_blue.png,o,3,2,14,1,1,o,right_blue.png,right_orange.png,p,right,60fd978c77223cb3d24d6618,001,2021-08-01_13h24.39.361,arrow_simon_norep,2021.1.2,MacIntel,60.0024001,,,,,,,,,,,,,,,,,,,,,,,,,,,,,,,,,,,,,,
,,,q,1,1.4104,0,0.794681922,#f3af84,,left_orange.png,q,3,3,15,2,1,w,left_blue.png,left_orange.png,q,left,60fd978c77223cb3d24d6618,001,2021-08-01_13h24.39.361,arrow_simon_norep,2021.1.2,MacIntel,60.0024001,,,,,,,,,,,,,,,,,,,,,,,,,,,,,,,,,,,,,,
,,,o,0,1.1583,1,0.511010115,#a3d0fb,,left_blue.png,w,4,0,16,3,1,w,left_blue.png,left_orange.png,q,right,60fd978c77223cb3d24d6618,001,2021-08-01_13h24.39.361,arrow_simon_norep,2021.1.2,MacIntel,60.0024001,,,,,,,,,,,,,,,,,,,,,,,,,,,,,,,,,,,,,,
,,,q,1,3.205,0,0.600808624,#f3af84,,left_orange.png,q,4,1,17,2,1,w,left_blue.png,left_orange.png,q,left,60fd978c77223cb3d24d6618,001,2021-08-01_13h24.39.361,arrow_simon_norep,2021.1.2,MacIntel,60.0024001,,,,,,,,,,,,,,,,,,,,,,,,,,,,,,,,,,,,,,
,,,o,1,1.9534,0,0.311799868,#a3d0fb,,right_blue.png,o,4,2,18,0,1,o,right_blue.png,right_orange.png,p,left,60fd978c77223cb3d24d6618,001,2021-08-01_13h24.39.361,arrow_simon_norep,2021.1.2,MacIntel,60.0024001,,,,,,,,,,,,,,,,,,,,,,,,,,,,,,,,,,,,,,
,,,q,1,1.5815,0,0.078406098,#f3af84,,left_orange.png,q,4,3,19,2,1,w,left_blue.png,left_orange.png,q,left,60fd978c77223cb3d24d6618,001,2021-08-01_13h24.39.361,arrow_simon_norep,2021.1.2,MacIntel,60.0024001,,,,,,,,,,,,,,,,,,,,,,,,,,,,,,,,,,,,,,
,,,o,0,1.3328,1,0.692183409,#a3d0fb,,left_blue.png,w,5,0,20,3,1,w,left_blue.png,left_orange.png,q,right,60fd978c77223cb3d24d6618,001,2021-08-01_13h24.39.361,arrow_simon_norep,2021.1.2,MacIntel,60.0024001,,,,,,,,,,,,,,,,,,,,,,,,,,,,,,,,,,,,,,
,,,q,1,2.2138,0,0.848856626,#f3af84,,left_orange.png,q,5,1,21,3,1,w,left_blue.png,left_orange.png,q,right,60fd978c77223cb3d24d6618,001,2021-08-01_13h24.39.361,arrow_simon_norep,2021.1.2,MacIntel,60.0024001,,,,,,,,,,,,,,,,,,,,,,,,,,,,,,,,,,,,,,
,,,w,1,1.6866,0,0.886174397,#a3d0fb,,left_blue.png,w,5,2,22,2,1,w,left_blue.png,left_orange.png,q,left,60fd978c77223cb3d24d6618,001,2021-08-01_13h24.39.361,arrow_simon_norep,2021.1.2,MacIntel,60.0024001,,,,,,,,,,,,,,,,,,,,,,,,,,,,,,,,,,,,,,
,,,p,1,1.9664,0,0.721694689,#f3af84,,right_orange.png,p,5,3,23,0,1,o,right_blue.png,right_orange.png,p,left,60fd978c77223cb3d24d6618,001,2021-08-01_13h24.39.361,arrow_simon_norep,2021.1.2,MacIntel,60.0024001,,,,,,,,,,,,,,,,,,,,,,,,,,,,,,,,,,,,,,
,,,w,1,2.6299,0,0.75402289,#a3d0fb,,left_blue.png,w,6,0,24,3,1,w,left_blue.png,left_orange.png,q,right,60fd978c77223cb3d24d6618,001,2021-08-01_13h24.39.361,arrow_simon_norep,2021.1.2,MacIntel,60.0024001,,,,,,,,,,,,,,,,,,,,,,,,,,,,,,,,,,,,,,
,,,p,1,1.9315,0,0.248872192,#f3af84,,right_orange.png,p,6,1,25,0,1,o,right_blue.png,right_orange.png,p,left,60fd978c77223cb3d24d6618,001,2021-08-01_13h24.39.361,arrow_simon_norep,2021.1.2,MacIntel,60.0024001,,,,,,,,,,,,,,,,,,,,,,,,,,,,,,,,,,,,,,
,,,q,0,1.6101,1,0.088767102,#a3d0fb,,left_blue.png,w,6,2,26,3,1,w,left_blue.png,left_orange.png,q,right,60fd978c77223cb3d24d6618,001,2021-08-01_13h24.39.361,arrow_simon_norep,2021.1.2,MacIntel,60.0024001,,,,,,,,,,,,,,,,,,,,,,,,,,,,,,,,,,,,,,
,,,q,1,1.5289,0,0.03936325,#f3af84,,left_orange.png,q,6,3,27,2,1,w,left_blue.png,left_orange.png,q,left,60fd978c77223cb3d24d6618,001,2021-08-01_13h24.39.361,arrow_simon_norep,2021.1.2,MacIntel,60.0024001,,,,,,,,,,,,,,,,,,,,,,,,,,,,,,,,,,,,,,
,,,w,1,1.5853,0,0.845282277,#a3d0fb,,left_blue.png,w,7,0,28,3,1,w,left_blue.png,left_orange.png,q,right,60fd978c77223cb3d24d6618,001,2021-08-01_13h24.39.361,arrow_simon_norep,2021.1.2,MacIntel,60.0024001,,,,,,,,,,,,,,,,,,,,,,,,,,,,,,,,,,,,,,
,,,p,1,1.2252,0,0.186902166,#f3af84,,right_orange.png,p,7,1,29,1,1,o,right_blue.png,right_orange.png,p,right,60fd978c77223cb3d24d6618,001,2021-08-01_13h24.39.361,arrow_simon_norep,2021.1.2,MacIntel,60.0024001,,,,,,,,,,,,,,,,,,,,,,,,,,,,,,,,,,,,,,
,,,w,1,1.5118,0,0.25697346,#a3d0fb,,left_blue.png,w,7,2,30,2,1,w,left_blue.png,left_orange.png,q,left,60fd978c77223cb3d24d6618,001,2021-08-01_13h24.39.361,arrow_simon_norep,2021.1.2,MacIntel,60.0024001,,,,,,,,,,,,,,,,,,,,,,,,,,,,,,,,,,,,,,
,,,q,1,1.703,0,0.957218186,#f3af84,,left_orange.png,q,7,3,31,2,1,w,left_blue.png,left_orange.png,q,left,60fd978c77223cb3d24d6618,001,2021-08-01_13h24.39.361,arrow_simon_norep,2021.1.2,MacIntel,60.0024001,,,,,,,,,,,,,,,,,,,,,,,,,,,,,,,,,,,,,,
,,,o,1,1.4631,0,0.84026942,#a3d0fb,,right_blue.png,o,8,0,32,1,1,o,right_blue.png,right_orange.png,p,right,60fd978c77223cb3d24d6618,001,2021-08-01_13h24.39.361,arrow_simon_norep,2021.1.2,MacIntel,60.0024001,,,,,,,,,,,,,,,,,,,,,,,,,,,,,,,,,,,,,,
,,,q,1,2.1165,0,0.853900391,#f3af84,,left_orange.png,q,8,1,33,2,1,w,left_blue.png,left_orange.png,q,left,60fd978c77223cb3d24d6618,001,2021-08-01_13h24.39.361,arrow_simon_norep,2021.1.2,MacIntel,60.0024001,,,,,,,,,,,,,,,,,,,,,,,,,,,,,,,,,,,,,,
,,,w,0,2.2155,1,0.779052095,#a3d0fb,,right_blue.png,o,8,2,34,0,1,o,right_blue.png,right_orange.png,p,left,60fd978c77223cb3d24d6618,001,2021-08-01_13h24.39.361,arrow_simon_norep,2021.1.2,MacIntel,60.0024001,,,,,,,,,,,,,,,,,,,,,,,,,,,,,,,,,,,,,,
,,,q,1,1.2425,0,0.569989618,#f3af84,,left_orange.png,q,8,3,35,3,1,w,left_blue.png,left_orange.png,q,right,60fd978c77223cb3d24d6618,001,2021-08-01_13h24.39.361,arrow_simon_norep,2021.1.2,MacIntel,60.0024001,,,,,,,,,,,,,,,,,,,,,,,,,,,,,,,,,,,,,,
,,,o,1,1.7072,0,0.955438089,#a3d0fb,,right_blue.png,o,9,0,36,1,1,o,right_blue.png,right_orange.png,p,right,60fd978c77223cb3d24d6618,001,2021-08-01_13h24.39.361,arrow_simon_norep,2021.1.2,MacIntel,60.0024001,,,,,,,,,,,,,,,,,,,,,,,,,,,,,,,,,,,,,,
,,,q,1,1.0644,0,0.153306099,#f3af84,,left_orange.png,q,9,1,37,3,1,w,left_blue.png,left_orange.png,q,right,60fd978c77223cb3d24d6618,001,2021-08-01_13h24.39.361,arrow_simon_norep,2021.1.2,MacIntel,60.0024001,,,,,,,,,,,,,,,,,,,,,,,,,,,,,,,,,,,,,,
,,,o,1,1.6383,0,0.347692381,#a3d0fb,,right_blue.png,o,9,2,38,0,1,o,right_blue.png,right_orange.png,p,left,60fd978c77223cb3d24d6618,001,2021-08-01_13h24.39.361,arrow_simon_norep,2021.1.2,MacIntel,60.0024001,,,,,,,,,,,,,,,,,,,,,,,,,,,,,,,,,,,,,,
,,,p,1,1.7866,0,0.620820862,#f3af84,,right_orange.png,p,9,3,39,0,1,o,right_blue.png,right_orange.png,p,left,60fd978c77223cb3d24d6618,001,2021-08-01_13h24.39.361,arrow_simon_norep,2021.1.2,MacIntel,60.0024001,,,,,,,,,,,,,,,,,,,,,,,,,,,,,,,,,,,,,,
,,,w,1,1.6086,0,0.057465496,#a3d0fb,,left_blue.png,w,10,0,40,3,1,w,left_blue.png,left_orange.png,q,right,60fd978c77223cb3d24d6618,001,2021-08-01_13h24.39.361,arrow_simon_norep,2021.1.2,MacIntel,60.0024001,,,,,,,,,,,,,,,,,,,,,,,,,,,,,,,,,,,,,,
,,,p,1,1.518,0,0.77068624,#f3af84,,right_orange.png,p,10,1,41,0,1,o,right_blue.png,right_orange.png,p,left,60fd978c77223cb3d24d6618,001,2021-08-01_13h24.39.361,arrow_simon_norep,2021.1.2,MacIntel,60.0024001,,,,,,,,,,,,,,,,,,,,,,,,,,,,,,,,,,,,,,
,,,o,1,1.6135,0,0.850254078,#a3d0fb,,right_blue.png,o,10,2,42,1,1,o,right_blue.png,right_orange.png,p,right,60fd978c77223cb3d24d6618,001,2021-08-01_13h24.39.361,arrow_simon_norep,2021.1.2,MacIntel,60.0024001,,,,,,,,,,,,,,,,,,,,,,,,,,,,,,,,,,,,,,
,,,p,1,1.6337,0,0.931123766,#f3af84,,right_orange.png,p,10,3,43,1,1,o,right_blue.png,right_orange.png,p,right,60fd978c77223cb3d24d6618,001,2021-08-01_13h24.39.361,arrow_simon_norep,2021.1.2,MacIntel,60.0024001,,,,,,,,,,,,,,,,,,,,,,,,,,,,,,,,,,,,,,
,,,o,1,1.613,0,0.915656422,#a3d0fb,,right_blue.png,o,11,0,44,1,1,o,right_blue.png,right_orange.png,p,right,60fd978c77223cb3d24d6618,001,2021-08-01_13h24.39.361,arrow_simon_norep,2021.1.2,MacIntel,60.0024001,,,,,,,,,,,,,,,,,,,,,,,,,,,,,,,,,,,,,,
,,,p,1,1.2772,0,0.711298325,#f3af84,,right_orange.png,p,11,1,45,1,1,o,right_blue.png,right_orange.png,p,right,60fd978c77223cb3d24d6618,001,2021-08-01_13h24.39.361,arrow_simon_norep,2021.1.2,MacIntel,60.0024001,,,,,,,,,,,,,,,,,,,,,,,,,,,,,,,,,,,,,,
,,,w,1,1.6335,0,0.807480576,#a3d0fb,,left_blue.png,w,11,2,46,2,1,w,left_blue.png,left_orange.png,q,left,60fd978c77223cb3d24d6618,001,2021-08-01_13h24.39.361,arrow_simon_norep,2021.1.2,MacIntel,60.0024001,,,,,,,,,,,,,,,,,,,,,,,,,,,,,,,,,,,,,,
,,,q,1,1.3205,0,0.251628804,#f3af84,,left_orange.png,q,11,3,47,3,1,w,left_blue.png,left_orange.png,q,right,60fd978c77223cb3d24d6618,001,2021-08-01_13h24.39.361,arrow_simon_norep,2021.1.2,MacIntel,60.0024001,,,,,,,,,,,,,,,,,,,,,,,,,,,,,,,,,,,,,,
,,,w,1,0.7604,0,0.009685196,#a3d0fb,,left_blue.png,w,12,0,48,3,1,w,left_blue.png,left_orange.png,q,right,60fd978c77223cb3d24d6618,001,2021-08-01_13h24.39.361,arrow_simon_norep,2021.1.2,MacIntel,60.0024001,,,,,,,,,,,,,,,,,,,,,,,,,,,,,,,,,,,,,,
,,,o,0,1.2412,1,0.571748984,#f3af84,,right_orange.png,p,12,1,49,0,1,o,right_blue.png,right_orange.png,p,left,60fd978c77223cb3d24d6618,001,2021-08-01_13h24.39.361,arrow_simon_norep,2021.1.2,MacIntel,60.0024001,,,,,,,,,,,,,,,,,,,,,,,,,,,,,,,,,,,,,,
,,,q,0,1.5712,1,0.48636112,#a3d0fb,,left_blue.png,w,12,2,50,2,1,w,left_blue.png,left_orange.png,q,left,60fd978c77223cb3d24d6618,001,2021-08-01_13h24.39.361,arrow_simon_norep,2021.1.2,MacIntel,60.0024001,,,,,,,,,,,,,,,,,,,,,,,,,,,,,,,,,,,,,,
,,,p,1,1.5903,0,0.062121565,#f3af84,,right_orange.png,p,12,3,51,0,1,o,right_blue.png,right_orange.png,p,left,60fd978c77223cb3d24d6618,001,2021-08-01_13h24.39.361,arrow_simon_norep,2021.1.2,MacIntel,60.0024001,,,,,,,,,,,,,,,,,,,,,,,,,,,,,,,,,,,,,,
,,,q,0,1.2556,1,0.553702765,#a3d0fb,,left_blue.png,w,13,0,52,2,1,w,left_blue.png,left_orange.png,q,left,60fd978c77223cb3d24d6618,001,2021-08-01_13h24.39.361,arrow_simon_norep,2021.1.2,MacIntel,60.0024001,,,,,,,,,,,,,,,,,,,,,,,,,,,,,,,,,,,,,,
,,,p,1,1.0809,0,0.428214653,#f3af84,,right_orange.png,p,13,1,53,1,1,o,right_blue.png,right_orange.png,p,right,60fd978c77223cb3d24d6618,001,2021-08-01_13h24.39.361,arrow_simon_norep,2021.1.2,MacIntel,60.0024001,,,,,,,,,,,,,,,,,,,,,,,,,,,,,,,,,,,,,,
,,,o,1,1.5849,0,0.573582812,#a3d0fb,,right_blue.png,o,13,2,54,0,1,o,right_blue.png,right_orange.png,p,left,60fd978c77223cb3d24d6618,001,2021-08-01_13h24.39.361,arrow_simon_norep,2021.1.2,MacIntel,60.0024001,,,,,,,,,,,,,,,,,,,,,,,,,,,,,,,,,,,,,,
,,,p,1,0.7699,0,0.2092063,#f3af84,,right_orange.png,p,13,3,55,1,1,o,right_blue.png,right_orange.png,p,right,60fd978c77223cb3d24d6618,001,2021-08-01_13h24.39.361,arrow_simon_norep,2021.1.2,MacIntel,60.0024001,,,,,,,,,,,,,,,,,,,,,,,,,,,,,,,,,,,,,,
,,,o,1,1.7915,0,0.967469449,#a3d0fb,,right_blue.png,o,14,0,56,1,1,o,right_blue.png,right_orange.png,p,right,60fd978c77223cb3d24d6618,001,2021-08-01_13h24.39.361,arrow_simon_norep,2021.1.2,MacIntel,60.0024001,,,,,,,,,,,,,,,,,,,,,,,,,,,,,,,,,,,,,,
,,,p,1,1.8742,0,0.736638261,#f3af84,,right_orange.png,p,14,1,57,0,1,o,right_blue.png,right_orange.png,p,left,60fd978c77223cb3d24d6618,001,2021-08-01_13h24.39.361,arrow_simon_norep,2021.1.2,MacIntel,60.0024001,,,,,,,,,,,,,,,,,,,,,,,,,,,,,,,,,,,,,,
,,,o,1,1.4472,0,0.536339257,#a3d0fb,,right_blue.png,o,14,2,58,0,1,o,right_blue.png,right_orange.png,p,left,60fd978c77223cb3d24d6618,001,2021-08-01_13h24.39.361,arrow_simon_norep,2021.1.2,MacIntel,60.0024001,,,,,,,,,,,,,,,,,,,,,,,,,,,,,,,,,,,,,,
,,,p,1,1.4839,0,0.758604172,#f3af84,,right_orange.png,p,14,3,59,0,1,o,right_blue.png,right_orange.png,p,left,60fd978c77223cb3d24d6618,001,2021-08-01_13h24.39.361,arrow_simon_norep,2021.1.2,MacIntel,60.0024001,,,,,,,,,,,,,,,,,,,,,,,,,,,,,,,,,,,,,,
,,,,,,,,,,,,,,,,,,,,,,60fd978c77223cb3d24d6618,001,2021-08-01_13h24.39.361,arrow_simon_norep,2021.1.2,MacIntel,60.0024001,space,6.5242,0,0,0,0,1,,,,,,,,,,,,,,,,,,,,,,,,,,,,,,,
,,,q,0,2.0018,1,0.919648682,#a3d0fb,,left_blue.png,w,0,0,0,3,1,w,left_blue.png,left_orange.png,q,right,60fd978c77223cb3d24d6618,001,2021-08-01_13h24.39.361,arrow_simon_norep,2021.1.2,MacIntel,60.0024001,,,,,,,,,,,,,,,,,,,,,,,,,,,,,,,,,,,,,,
,,,q,1,1.1029,0,0.248993872,#f3af84,,left_orange.png,q,0,1,1,2,1,w,left_blue.png,left_orange.png,q,left,60fd978c77223cb3d24d6618,001,2021-08-01_13h24.39.361,arrow_simon_norep,2021.1.2,MacIntel,60.0024001,,,,,,,,,,,,,,,,,,,,,,,,,,,,,,,,,,,,,,
,,,w,1,2.9792,0,0.81531578,#a3d0fb,,left_blue.png,w,0,2,2,3,1,w,left_blue.png,left_orange.png,q,right,60fd978c77223cb3d24d6618,001,2021-08-01_13h24.39.361,arrow_simon_norep,2021.1.2,MacIntel,60.0024001,,,,,,,,,,,,,,,,,,,,,,,,,,,,,,,,,,,,,,
,,,q,1,0.8052,0,0.096334258,#f3af84,,left_orange.png,q,0,3,3,3,1,w,left_blue.png,left_orange.png,q,right,60fd978c77223cb3d24d6618,001,2021-08-01_13h24.39.361,arrow_simon_norep,2021.1.2,MacIntel,60.0024001,,,,,,,,,,,,,,,,,,,,,,,,,,,,,,,,,,,,,,
,,,p,0,1.3881,1,0.71953366,#a3d0fb,,right_blue.png,o,1,0,4,0,1,o,right_blue.png,right_orange.png,p,left,60fd978c77223cb3d24d6618,001,2021-08-01_13h24.39.361,arrow_simon_norep,2021.1.2,MacIntel,60.0024001,,,,,,,,,,,,,,,,,,,,,,,,,,,,,,,,,,,,,,
,,,p,1,0.6615,0,0.096100899,#f3af84,,right_orange.png,p,1,1,5,1,1,o,right_blue.png,right_orange.png,p,right,60fd978c77223cb3d24d6618,001,2021-08-01_13h24.39.361,arrow_simon_norep,2021.1.2,MacIntel,60.0024001,,,,,,,,,,,,,,,,,,,,,,,,,,,,,,,,,,,,,,
,,,q,0,2.2256,1,0.817482398,#a3d0fb,,left_blue.png,w,1,2,6,3,1,w,left_blue.png,left_orange.png,q,right,60fd978c77223cb3d24d6618,001,2021-08-01_13h24.39.361,arrow_simon_norep,2021.1.2,MacIntel,60.0024001,,,,,,,,,,,,,,,,,,,,,,,,,,,,,,,,,,,,,,
,,,q,1,1.399,0,0.72389435,#f3af84,,left_orange.png,q,1,3,7,2,1,w,left_blue.png,left_orange.png,q,left,60fd978c77223cb3d24d6618,001,2021-08-01_13h24.39.361,arrow_simon_norep,2021.1.2,MacIntel,60.0024001,,,,,,,,,,,,,,,,,,,,,,,,,,,,,,,,,,,,,,
,,,w,0,1.309,1,0.453583152,#a3d0fb,,right_blue.png,o,2,0,8,1,1,o,right_blue.png,right_orange.png,p,right,60fd978c77223cb3d24d6618,001,2021-08-01_13h24.39.361,arrow_simon_norep,2021.1.2,MacIntel,60.0024001,,,,,,,,,,,,,,,,,,,,,,,,,,,,,,,,,,,,,,
,,,p,1,0.9776,0,0.252208703,#f3af84,,right_orange.png,p,2,1,9,1,1,o,right_blue.png,right_orange.png,p,right,60fd978c77223cb3d24d6618,001,2021-08-01_13h24.39.361,arrow_simon_norep,2021.1.2,MacIntel,60.0024001,,,,,,,,,,,,,,,,,,,,,,,,,,,,,,,,,,,,,,
,,,w,1,1.2734,0,0.375656474,#a3d0fb,,left_blue.png,w,2,2,10,2,1,w,left_blue.png,left_orange.png,q,left,60fd978c77223cb3d24d6618,001,2021-08-01_13h24.39.361,arrow_simon_norep,2021.1.2,MacIntel,60.0024001,,,,,,,,,,,,,,,,,,,,,,,,,,,,,,,,,,,,,,
,,,q,1,1.5793,0,0.814641681,#f3af84,,left_orange.png,q,2,3,11,2,1,w,left_blue.png,left_orange.png,q,left,60fd978c77223cb3d24d6618,001,2021-08-01_13h24.39.361,arrow_simon_norep,2021.1.2,MacIntel,60.0024001,,,,,,,,,,,,,,,,,,,,,,,,,,,,,,,,,,,,,,
,,,w,1,0.9299,0,0.184742441,#a3d0fb,,left_blue.png,w,3,0,12,2,1,w,left_blue.png,left_orange.png,q,left,60fd978c77223cb3d24d6618,001,2021-08-01_13h24.39.361,arrow_simon_norep,2021.1.2,MacIntel,60.0024001,,,,,,,,,,,,,,,,,,,,,,,,,,,,,,,,,,,,,,
,,,q,1,1.4554,0,0.337365463,#f3af84,,left_orange.png,q,3,1,13,3,1,w,left_blue.png,left_orange.png,q,right,60fd978c77223cb3d24d6618,001,2021-08-01_13h24.39.361,arrow_simon_norep,2021.1.2,MacIntel,60.0024001,,,,,,,,,,,,,,,,,,,,,,,,,,,,,,,,,,,,,,
,,,w,1,0.9483,0,0.149011156,#a3d0fb,,left_blue.png,w,3,2,14,3,1,w,left_blue.png,left_orange.png,q,right,60fd978c77223cb3d24d6618,001,2021-08-01_13h24.39.361,arrow_simon_norep,2021.1.2,MacIntel,60.0024001,,,,,,,,,,,,,,,,,,,,,,,,,,,,,,,,,,,,,,
,,,p,1,1.1595,0,0.283851554,#f3af84,,right_orange.png,p,3,3,15,1,1,o,right_blue.png,right_orange.png,p,right,60fd978c77223cb3d24d6618,001,2021-08-01_13h24.39.361,arrow_simon_norep,2021.1.2,MacIntel,60.0024001,,,,,,,,,,,,,,,,,,,,,,,,,,,,,,,,,,,,,,
,,,o,1,1.0595,0,0.33587312,#a3d0fb,,right_blue.png,o,4,0,16,0,1,o,right_blue.png,right_orange.png,p,left,60fd978c77223cb3d24d6618,001,2021-08-01_13h24.39.361,arrow_simon_norep,2021.1.2,MacIntel,60.0024001,,,,,,,,,,,,,,,,,,,,,,,,,,,,,,,,,,,,,,
,,,p,1,1.5752,0,0.945459298,#f3af84,,right_orange.png,p,4,1,17,1,1,o,right_blue.png,right_orange.png,p,right,60fd978c77223cb3d24d6618,001,2021-08-01_13h24.39.361,arrow_simon_norep,2021.1.2,MacIntel,60.0024001,,,,,,,,,,,,,,,,,,,,,,,,,,,,,,,,,,,,,,
,,,w,1,1.6069,0,0.511135617,#a3d0fb,,left_blue.png,w,4,2,18,2,1,w,left_blue.png,left_orange.png,q,left,60fd978c77223cb3d24d6618,001,2021-08-01_13h24.39.361,arrow_simon_norep,2021.1.2,MacIntel,60.0024001,,,,,,,,,,,,,,,,,,,,,,,,,,,,,,,,,,,,,,
,,,p,1,1.4807,0,0.686058914,#f3af84,,right_orange.png,p,4,3,19,0,1,o,right_blue.png,right_orange.png,p,left,60fd978c77223cb3d24d6618,001,2021-08-01_13h24.39.361,arrow_simon_norep,2021.1.2,MacIntel,60.0024001,,,,,,,,,,,,,,,,,,,,,,,,,,,,,,,,,,,,,,
,,,w,1,1.0559,0,0.018129479,#a3d0fb,,left_blue.png,w,5,0,20,3,1,w,left_blue.png,left_orange.png,q,right,60fd978c77223cb3d24d6618,001,2021-08-01_13h24.39.361,arrow_simon_norep,2021.1.2,MacIntel,60.0024001,,,,,,,,,,,,,,,,,,,,,,,,,,,,,,,,,,,,,,
,,,q,1,1.2747,0,0.341663811,#f3af84,,left_orange.png,q,5,1,21,2,1,w,left_blue.png,left_orange.png,q,left,60fd978c77223cb3d24d6618,001,2021-08-01_13h24.39.361,arrow_simon_norep,2021.1.2,MacIntel,60.0024001,,,,,,,,,,,,,,,,,,,,,,,,,,,,,,,,,,,,,,
,,,w,1,1.5555,0,0.704815405,#a3d0fb,,left_blue.png,w,5,2,22,3,1,w,left_blue.png,left_orange.png,q,right,60fd978c77223cb3d24d6618,001,2021-08-01_13h24.39.361,arrow_simon_norep,2021.1.2,MacIntel,60.0024001,,,,,,,,,,,,,,,,,,,,,,,,,,,,,,,,,,,,,,
,,,p,1,0.9516,0,0.387909274,#f3af84,,right_orange.png,p,5,3,23,0,1,o,right_blue.png,right_orange.png,p,left,60fd978c77223cb3d24d6618,001,2021-08-01_13h24.39.361,arrow_simon_norep,2021.1.2,MacIntel,60.0024001,,,,,,,,,,,,,,,,,,,,,,,,,,,,,,,,,,,,,,
,,,o,1,1.0975,0,0.502452086,#a3d0fb,,right_blue.png,o,6,0,24,1,1,o,right_blue.png,right_orange.png,p,right,60fd978c77223cb3d24d6618,001,2021-08-01_13h24.39.361,arrow_simon_norep,2021.1.2,MacIntel,60.0024001,,,,,,,,,,,,,,,,,,,,,,,,,,,,,,,,,,,,,,
,,,p,1,0.5648,0,0.066779075,#f3af84,,right_orange.png,p,6,1,25,1,1,o,right_blue.png,right_orange.png,p,right,60fd978c77223cb3d24d6618,001,2021-08-01_13h24.39.361,arrow_simon_norep,2021.1.2,MacIntel,60.0024001,,,,,,,,,,,,,,,,,,,,,,,,,,,,,,,,,,,,,,
,,,w,0,0.9014,1,0.257823384,#a3d0fb,,right_blue.png,o,6,2,26,0,1,o,right_blue.png,right_orange.png,p,left,60fd978c77223cb3d24d6618,001,2021-08-01_13h24.39.361,arrow_simon_norep,2021.1.2,MacIntel,60.0024001,,,,,,,,,,,,,,,,,,,,,,,,,,,,,,,,,,,,,,
,,,p,1,1.6287,0,0.89368637,#f3af84,,right_orange.png,p,6,3,27,0,1,o,right_blue.png,right_orange.png,p,left,60fd978c77223cb3d24d6618,001,2021-08-01_13h24.39.361,arrow_simon_norep,2021.1.2,MacIntel,60.0024001,,,,,,,,,,,,,,,,,,,,,,,,,,,,,,,,,,,,,,
,,,w,1,1.1446,0,0.007984106,#a3d0fb,,left_blue.png,w,7,0,28,3,1,w,left_blue.png,left_orange.png,q,right,60fd978c77223cb3d24d6618,001,2021-08-01_13h24.39.361,arrow_simon_norep,2021.1.2,MacIntel,60.0024001,,,,,,,,,,,,,,,,,,,,,,,,,,,,,,,,,,,,,,
,,,p,1,0.7678,0,0.210407593,#f3af84,,right_orange.png,p,7,1,29,0,1,o,right_blue.png,right_orange.png,p,left,60fd978c77223cb3d24d6618,001,2021-08-01_13h24.39.361,arrow_simon_norep,2021.1.2,MacIntel,60.0024001,,,,,,,,,,,,,,,,,,,,,,,,,,,,,,,,,,,,,,
,,,w,1,1.4345,0,0.643895475,#a3d0fb,,left_blue.png,w,7,2,30,2,1,w,left_blue.png,left_orange.png,q,left,60fd978c77223cb3d24d6618,001,2021-08-01_13h24.39.361,arrow_simon_norep,2021.1.2,MacIntel,60.0024001,,,,,,,,,,,,,,,,,,,,,,,,,,,,,,,,,,,,,,
,,,q,1,1.2603,0,0.590947984,#f3af84,,left_orange.png,q,7,3,31,2,1,w,left_blue.png,left_orange.png,q,left,60fd978c77223cb3d24d6618,001,2021-08-01_13h24.39.361,arrow_simon_norep,2021.1.2,MacIntel,60.0024001,,,,,,,,,,,,,,,,,,,,,,,,,,,,,,,,,,,,,,
,,,p,0,1.1873,1,0.469752115,#a3d0fb,,right_blue.png,o,8,0,32,0,1,o,right_blue.png,right_orange.png,p,left,60fd978c77223cb3d24d6618,001,2021-08-01_13h24.39.361,arrow_simon_norep,2021.1.2,MacIntel,60.0024001,,,,,,,,,,,,,,,,,,,,,,,,,,,,,,,,,,,,,,
,,,q,1,0.8108,0,0.02057559,#f3af84,,left_orange.png,q,8,1,33,2,1,w,left_blue.png,left_orange.png,q,left,60fd978c77223cb3d24d6618,001,2021-08-01_13h24.39.361,arrow_simon_norep,2021.1.2,MacIntel,60.0024001,,,,,,,,,,,,,,,,,,,,,,,,,,,,,,,,,,,,,,
,,,o,1,0.9772,0,0.387375161,#a3d0fb,,right_blue.png,o,8,2,34,0,1,o,right_blue.png,right_orange.png,p,left,60fd978c77223cb3d24d6618,001,2021-08-01_13h24.39.361,arrow_simon_norep,2021.1.2,MacIntel,60.0024001,,,,,,,,,,,,,,,,,,,,,,,,,,,,,,,,,,,,,,
,,,q,1,1.6932,0,0.990596215,#f3af84,,left_orange.png,q,8,3,35,3,1,w,left_blue.png,left_orange.png,q,right,60fd978c77223cb3d24d6618,001,2021-08-01_13h24.39.361,arrow_simon_norep,2021.1.2,MacIntel,60.0024001,,,,,,,,,,,,,,,,,,,,,,,,,,,,,,,,,,,,,,
,,,p,0,1.2708,1,0.80358128,#a3d0fb,,right_blue.png,o,9,0,36,1,1,o,right_blue.png,right_orange.png,p,right,60fd978c77223cb3d24d6618,001,2021-08-01_13h24.39.361,arrow_simon_norep,2021.1.2,MacIntel,60.0024001,,,,,,,,,,,,,,,,,,,,,,,,,,,,,,,,,,,,,,
,,,o,0,1.5564,1,0.89777722,#f3af84,,right_orange.png,p,9,1,37,1,1,o,right_blue.png,right_orange.png,p,right,60fd978c77223cb3d24d6618,001,2021-08-01_13h24.39.361,arrow_simon_norep,2021.1.2,MacIntel,60.0024001,,,,,,,,,,,,,,,,,,,,,,,,,,,,,,,,,,,,,,
,,,q,0,1.379,1,0.687014953,#a3d0fb,,left_blue.png,w,9,2,38,2,1,w,left_blue.png,left_orange.png,q,left,60fd978c77223cb3d24d6618,001,2021-08-01_13h24.39.361,arrow_simon_norep,2021.1.2,MacIntel,60.0024001,,,,,,,,,,,,,,,,,,,,,,,,,,,,,,,,,,,,,,
,,,p,1,0.8167,0,0.116417079,#f3af84,,right_orange.png,p,9,3,39,1,1,o,right_blue.png,right_orange.png,p,right,60fd978c77223cb3d24d6618,001,2021-08-01_13h24.39.361,arrow_simon_norep,2021.1.2,MacIntel,60.0024001,,,,,,,,,,,,,,,,,,,,,,,,,,,,,,,,,,,,,,
,,,o,1,0.8339,0,0.208222758,#a3d0fb,,right_blue.png,o,10,0,40,0,1,o,right_blue.png,right_orange.png,p,left,60fd978c77223cb3d24d6618,001,2021-08-01_13h24.39.361,arrow_simon_norep,2021.1.2,MacIntel,60.0024001,,,,,,,,,,,,,,,,,,,,,,,,,,,,,,,,,,,,,,
,,,p,1,1.3027,0,0.677574744,#f3af84,,right_orange.png,p,10,1,41,0,1,o,right_blue.png,right_orange.png,p,left,60fd978c77223cb3d24d6618,001,2021-08-01_13h24.39.361,arrow_simon_norep,2021.1.2,MacIntel,60.0024001,,,,,,,,,,,,,,,,,,,,,,,,,,,,,,,,,,,,,,
,,,o,1,1.499,0,0.401137605,#a3d0fb,,right_blue.png,o,10,2,42,0,1,o,right_blue.png,right_orange.png,p,left,60fd978c77223cb3d24d6618,001,2021-08-01_13h24.39.361,arrow_simon_norep,2021.1.2,MacIntel,60.0024001,,,,,,,,,,,,,,,,,,,,,,,,,,,,,,,,,,,,,,
,,,p,1,1.3326,0,0.566229103,#f3af84,,right_orange.png,p,10,3,43,1,1,o,right_blue.png,right_orange.png,p,right,60fd978c77223cb3d24d6618,001,2021-08-01_13h24.39.361,arrow_simon_norep,2021.1.2,MacIntel,60.0024001,,,,,,,,,,,,,,,,,,,,,,,,,,,,,,,,,,,,,,
,,,o,1,1.4693,0,0.7158635,#a3d0fb,,right_blue.png,o,11,0,44,1,1,o,right_blue.png,right_orange.png,p,right,60fd978c77223cb3d24d6618,001,2021-08-01_13h24.39.361,arrow_simon_norep,2021.1.2,MacIntel,60.0024001,,,,,,,,,,,,,,,,,,,,,,,,,,,,,,,,,,,,,,
,,,q,1,2.0909,0,0.952989663,#f3af84,,left_orange.png,q,11,1,45,2,1,w,left_blue.png,left_orange.png,q,left,60fd978c77223cb3d24d6618,001,2021-08-01_13h24.39.361,arrow_simon_norep,2021.1.2,MacIntel,60.0024001,,,,,,,,,,,,,,,,,,,,,,,,,,,,,,,,,,,,,,
,,,w,0,1.3231,1,0.636233336,#a3d0fb,,right_blue.png,o,11,2,46,0,1,o,right_blue.png,right_orange.png,p,left,60fd978c77223cb3d24d6618,001,2021-08-01_13h24.39.361,arrow_simon_norep,2021.1.2,MacIntel,60.0024001,,,,,,,,,,,,,,,,,,,,,,,,,,,,,,,,,,,,,,
,,,p,1,1.0628,0,0.38200606,#f3af84,,right_orange.png,p,11,3,47,1,1,o,right_blue.png,right_orange.png,p,right,60fd978c77223cb3d24d6618,001,2021-08-01_13h24.39.361,arrow_simon_norep,2021.1.2,MacIntel,60.0024001,,,,,,,,,,,,,,,,,,,,,,,,,,,,,,,,,,,,,,
,,,w,1,1.0958,0,0.304057951,#a3d0fb,,left_blue.png,w,12,0,48,2,1,w,left_blue.png,left_orange.png,q,left,60fd978c77223cb3d24d6618,001,2021-08-01_13h24.39.361,arrow_simon_norep,2021.1.2,MacIntel,60.0024001,,,,,,,,,,,,,,,,,,,,,,,,,,,,,,,,,,,,,,
,,,q,1,1.2185,0,0.411721687,#f3af84,,left_orange.png,q,12,1,49,3,1,w,left_blue.png,left_orange.png,q,right,60fd978c77223cb3d24d6618,001,2021-08-01_13h24.39.361,arrow_simon_norep,2021.1.2,MacIntel,60.0024001,,,,,,,,,,,,,,,,,,,,,,,,,,,,,,,,,,,,,,
,,,w,1,1.5427,0,0.913328234,#a3d0fb,,left_blue.png,w,12,2,50,2,1,w,left_blue.png,left_orange.png,q,left,60fd978c77223cb3d24d6618,001,2021-08-01_13h24.39.361,arrow_simon_norep,2021.1.2,MacIntel,60.0024001,,,,,,,,,,,,,,,,,,,,,,,,,,,,,,,,,,,,,,
,,,p,1,1.7482,0,0.551736822,#f3af84,,right_orange.png,p,12,3,51,0,1,o,right_blue.png,right_orange.png,p,left,60fd978c77223cb3d24d6618,001,2021-08-01_13h24.39.361,arrow_simon_norep,2021.1.2,MacIntel,60.0024001,,,,,,,,,,,,,,,,,,,,,,,,,,,,,,,,,,,,,,
,,,w,1,1.27,0,0.605434929,#a3d0fb,,left_blue.png,w,13,0,52,2,1,w,left_blue.png,left_orange.png,q,left,60fd978c77223cb3d24d6618,001,2021-08-01_13h24.39.361,arrow_simon_norep,2021.1.2,MacIntel,60.0024001,,,,,,,,,,,,,,,,,,,,,,,,,,,,,,,,,,,,,,
,,,q,1,1.4991,0,0.751019487,#f3af84,,left_orange.png,q,13,1,53,3,1,w,left_blue.png,left_orange.png,q,right,60fd978c77223cb3d24d6618,001,2021-08-01_13h24.39.361,arrow_simon_norep,2021.1.2,MacIntel,60.0024001,,,,,,,,,,,,,,,,,,,,,,,,,,,,,,,,,,,,,,
,,,w,1,1.7006,0,0.972411541,#a3d0fb,,left_blue.png,w,13,2,54,3,1,w,left_blue.png,left_orange.png,q,right,60fd978c77223cb3d24d6618,001,2021-08-01_13h24.39.361,arrow_simon_norep,2021.1.2,MacIntel,60.0024001,,,,,,,,,,,,,,,,,,,,,,,,,,,,,,,,,,,,,,
,,,q,1,0.9658,0,0.343704711,#f3af84,,left_orange.png,q,13,3,55,3,1,w,left_blue.png,left_orange.png,q,right,60fd978c77223cb3d24d6618,001,2021-08-01_13h24.39.361,arrow_simon_norep,2021.1.2,MacIntel,60.0024001,,,,,,,,,,,,,,,,,,,,,,,,,,,,,,,,,,,,,,
,,,w,1,1.6258,0,0.837624942,#a3d0fb,,left_blue.png,w,14,0,56,3,1,w,left_blue.png,left_orange.png,q,right,60fd978c77223cb3d24d6618,001,2021-08-01_13h24.39.361,arrow_simon_norep,2021.1.2,MacIntel,60.0024001,,,,,,,,,,,,,,,,,,,,,,,,,,,,,,,,,,,,,,
,,,p,1,1.2044,0,0.503813578,#f3af84,,right_orange.png,p,14,1,57,1,1,o,right_blue.png,right_orange.png,p,right,60fd978c77223cb3d24d6618,001,2021-08-01_13h24.39.361,arrow_simon_norep,2021.1.2,MacIntel,60.0024001,,,,,,,,,,,,,,,,,,,,,,,,,,,,,,,,,,,,,,
,,,o,1,2.0634,0,0.629266754,#a3d0fb,,right_blue.png,o,14,2,58,1,1,o,right_blue.png,right_orange.png,p,right,60fd978c77223cb3d24d6618,001,2021-08-01_13h24.39.361,arrow_simon_norep,2021.1.2,MacIntel,60.0024001,,,,,,,,,,,,,,,,,,,,,,,,,,,,,,,,,,,,,,
,,,p,1,0.9862,0,0.303764593,#f3af84,,right_orange.png,p,14,3,59,0,1,o,right_blue.png,right_orange.png,p,left,60fd978c77223cb3d24d6618,001,2021-08-01_13h24.39.361,arrow_simon_norep,2021.1.2,MacIntel,60.0024001,,,,,,,,,,,,,,,,,,,,,,,,,,,,,,,,,,,,,,
,,,,,,,,,,,,,,,,,,,,,,60fd978c77223cb3d24d6618,001,2021-08-01_13h24.39.361,arrow_simon_norep,2021.1.2,MacIntel,60.0024001,space,11.623,1,0,1,0,1,,,,,,,,,,,,,,,,,,,,,,,,,,,,,,,
,,,,,,,,,,,,,,,,,,,,,,60fd978c77223cb3d24d6618,001,2021-08-01_13h24.39.361,arrow_simon_norep,2021.1.2,MacIntel,60.0024001,,,,,,,,space,0,35.9227,p,2.5399,0,0,0,0,1,,,,,,,,,,,,,,,,,,,,,
,,,,,,,,,,,,,,,,,,,,,,60fd978c77223cb3d24d6618,001,2021-08-01_13h24.39.361,arrow_simon_norep,2021.1.2,MacIntel,60.0024001,,,,,,,,,,,p,2.3948,1,0,1,0,1,,,,,,,,,,,,,,,,,,,,,
,,,,,,,,,,,,,,,,,,,,,,60fd978c77223cb3d24d6618,001,2021-08-01_13h24.39.361,arrow_simon_norep,2021.1.2,MacIntel,60.0024001,,,,,,,,,,,p,2.5797,2,0,2,0,1,,,,,,,,,,,,,,,,,,,,,
,,,,,,,,,,,,,,,,,,,,,,60fd978c77223cb3d24d6618,001,2021-08-01_13h24.39.361,arrow_simon_norep,2021.1.2,MacIntel,60.0024001,,,,,,,,,,,p,2.5596,3,0,3,0,1,,,,,,,,,,,,,,,,,,,,,
,,,,,,,,,,,,,,,,,,,,,,60fd978c77223cb3d24d6618,001,2021-08-01_13h24.39.361,arrow_simon_norep,2021.1.2,MacIntel,60.0024001,,,,,,,,,,,p,2.74,4,0,4,0,1,,,,,,,,,,,,,,,,,,,,,
,,,,,,,,,,,,,,,,,,,,,,60fd978c77223cb3d24d6618,001,2021-08-01_13h24.39.361,arrow_simon_norep,2021.1.2,MacIntel,60.0024001,,,,,,,,,,,p,2.5927,5,0,5,0,1,,,,,,,,,,,,,,,,,,,,,
,,,,,,,,,,,,,,,,,,,,,,60fd978c77223cb3d24d6618,001,2021-08-01_13h24.39.361,arrow_simon_norep,2021.1.2,MacIntel,60.0024001,,,,,,,,,,,p,2.5903,6,0,6,0,1,,,,,,,,,,,,,,,,,,,,,
,,,,,,,,,,,,,,,,,,,,,,60fd978c77223cb3d24d6618,001,2021-08-01_13h24.39.361,arrow_simon_norep,2021.1.2,MacIntel,60.0024001,,,,,,,,,,,p,2.6901,7,0,7,0,1,,,,,,,,,,,,,,,,,,,,,
,,,,,,,,,,,,,,,,,,,,,,60fd978c77223cb3d24d6618,001,2021-08-01_13h24.39.361,arrow_simon_norep,2021.1.2,MacIntel,60.0024001,,,,,,,,,,,p,2.5456,8,0,8,0,1,,,,,,,,,,,,,,,,,,,,,
,,,,,,,,,,,,,,,,,,,,,,60fd978c77223cb3d24d6618,001,2021-08-01_13h24.39.361,arrow_simon_norep,2021.1.2,MacIntel,60.0024001,,,,,,,,,,,p,2.514,9,0,9,0,1,,,,,,,,,,,,,,,,,,,,,
,,,,,,,,,,,,,,,,,,,,,,60fd978c77223cb3d24d6618,001,2021-08-01_13h24.39.361,arrow_simon_norep,2021.1.2,MacIntel,60.0024001,,,,,,,,,,,p,2.4935,10,0,10,0,1,,,,,,,,,,,,,,,,,,,,,
,,,,,,,,,,,,,,,,,,,,,,60fd978c77223cb3d24d6618,001,2021-08-01_13h24.39.361,arrow_simon_norep,2021.1.2,MacIntel,60.0024001,,,,,,,,,,,p,2.6084,11,0,11,0,1,,,,,,,,,,,,,,,,,,,,,
,,,,,,,,,,,,,,,,,,,,,,60fd978c77223cb3d24d6618,001,2021-08-01_13h24.39.361,arrow_simon_norep,2021.1.2,MacIntel,60.0024001,,,,,,,,,,,p,2.6441,12,0,12,0,1,,,,,,,,,,,,,,,,,,,,,
,,,,,,,,,,,,,,,,,,,,,,60fd978c77223cb3d24d6618,001,2021-08-01_13h24.39.361,arrow_simon_norep,2021.1.2,MacIntel,60.0024001,,,,,,,,,,,p,2.4896,13,0,13,0,1,,,,,,,,,,,,,,,,,,,,,
,,,,,,,,,,,,,,,,,,,,,,60fd978c77223cb3d24d6618,001,2021-08-01_13h24.39.361,arrow_simon_norep,2021.1.2,MacIntel,60.0024001,,,,,,,,,,,p,2.3629,14,0,14,0,1,,,,,,,,,,,,,,,,,,,,,
,,,,,,,,,,,,,,,,,,,,,,60fd978c77223cb3d24d6618,001,2021-08-01_13h24.39.361,arrow_simon_norep,2021.1.2,MacIntel,60.0024001,,,,,,,,,,,p,2.5593,15,0,15,0,1,,,,,,,,,,,,,,,,,,,,,
,,,,,,,,,,,,,,,,,,,,,,60fd978c77223cb3d24d6618,001,2021-08-01_13h24.39.361,arrow_simon_norep,2021.1.2,MacIntel,60.0024001,,,,,,,,,,,p,2.3214,16,0,16,0,1,,,,,,,,,,,,,,,,,,,,,
,,,,,,,,,,,,,,,,,,,,,,60fd978c77223cb3d24d6618,001,2021-08-01_13h24.39.361,arrow_simon_norep,2021.1.2,MacIntel,60.0024001,,,,,,,,,,,p,2.5138,17,0,17,0,1,,,,,,,,,,,,,,,,,,,,,
,,,,,,,,,,,,,,,,,,,,,,60fd978c77223cb3d24d6618,001,2021-08-01_13h24.39.361,arrow_simon_norep,2021.1.2,MacIntel,60.0024001,,,,,,,,,,,p,2.5427,18,0,18,0,1,,,,,,,,,,,,,,,,,,,,,
,,,,,,,,,,,,,,,,,,,,,,60fd978c77223cb3d24d6618,001,2021-08-01_13h24.39.361,arrow_simon_norep,2021.1.2,MacIntel,60.0024001,,,,,,,,,,,p,2.6443,19,0,19,0,1,,,,,,,,,,,,,,,,,,,,,
,,,,,,,,,,,,,,,,,,,,,,60fd978c77223cb3d24d6618,001,2021-08-01_13h24.39.361,arrow_simon_norep,2021.1.2,MacIntel,60.0024001,,,,,,,,,,,p,11.1138,20,0,20,0,1,,,,,,,,,,,,,,,,,,,,,
,,,,,,,,,,,,,,,,,,,,,,60fd978c77223cb3d24d6618,001,2021-08-01_13h24.39.361,arrow_simon_norep,2021.1.2,MacIntel,60.0024001,,,,,,,,,,,p,2.4299,21,0,21,0,1,,,,,,,,,,,,,,,,,,,,,
,,,,,,,,,,,,,,,,,,,,,,60fd978c77223cb3d24d6618,001,2021-08-01_13h24.39.361,arrow_simon_norep,2021.1.2,MacIntel,60.0024001,,,,,,,,,,,p,2.965,22,0,22,0,1,,,,,,,,,,,,,,,,,,,,,
,,,,,,,,,,,,,,,,,,,,,,60fd978c77223cb3d24d6618,001,2021-08-01_13h24.39.361,arrow_simon_norep,2021.1.2,MacIntel,60.0024001,,,,,,,,,,,p,2.3569,23,0,23,0,1,,,,,,,,,,,,,,,,,,,,,
,,,,,,,,,,,,,,,,,,,,,,60fd978c77223cb3d24d6618,001,2021-08-01_13h24.39.361,arrow_simon_norep,2021.1.2,MacIntel,60.0024001,,,,,,,,,,,p,2.3757,24,0,24,0,1,,,,,,,,,,,,,,,,,,,,,
,,,,,,,,,,,,,,,,,,,,,,60fd978c77223cb3d24d6618,001,2021-08-01_13h24.39.361,arrow_simon_norep,2021.1.2,MacIntel,60.0024001,,,,,,,,,,,p,2.6138,25,0,25,0,1,,,,,,,,,,,,,,,,,,,,,
,,,,,,,,,,,,,,,,,,,,,,60fd978c77223cb3d24d6618,001,2021-08-01_13h24.39.361,arrow_simon_norep,2021.1.2,MacIntel,60.0024001,,,,,,,,,,,p,2.7469,26,0,26,0,1,,,,,,,,,,,,,,,,,,,,,
,,,,,,,,,,,,,,,,,,,,,,60fd978c77223cb3d24d6618,001,2021-08-01_13h24.39.361,arrow_simon_norep,2021.1.2,MacIntel,60.0024001,,,,,,,,,,,p,9.5227,27,0,27,0,1,,,,,,,,,,,,,,,,,,,,,
,,,,,,,,,,,,,,,,,,,,,,60fd978c77223cb3d24d6618,001,2021-08-01_13h24.39.361,arrow_simon_norep,2021.1.2,MacIntel,60.0024001,,,,,,,,,,,p,2.5238,28,0,28,0,1,,,,,,,,,,,,,,,,,,,,,
,,,,,,,,,,,,,,,,,,,,,,60fd978c77223cb3d24d6618,001,2021-08-01_13h24.39.361,arrow_simon_norep,2021.1.2,MacIntel,60.0024001,,,,,,,,,,,p,2.5101,29,0,29,0,1,,,,,,,,,,,,,,,,,,,,,
,,,,,,,,,,,,,,,,,,,,,,60fd978c77223cb3d24d6618,001,2021-08-01_13h24.39.361,arrow_simon_norep,2021.1.2,MacIntel,60.0024001,,,,,,,,,,,p,2.45,30,0,30,0,1,,,,,,,,,,,,,,,,,,,,,
,,,,,,,,,,,,,,,,,,,,,,60fd978c77223cb3d24d6618,001,2021-08-01_13h24.39.361,arrow_simon_norep,2021.1.2,MacIntel,60.0024001,,,,,,,,,,,p,2.3761,31,0,31,0,1,,,,,,,,,,,,,,,,,,,,,
,,,,,,,,,,,,,,,,,,,,,,60fd978c77223cb3d24d6618,001,2021-08-01_13h24.39.361,arrow_simon_norep,2021.1.2,MacIntel,60.0024001,,,,,,,,,,,p,2.5417,32,0,32,0,1,,,,,,,,,,,,,,,,,,,,,
,,,,,,,,,,,,,,,,,,,,,,60fd978c77223cb3d24d6618,001,2021-08-01_13h24.39.361,arrow_simon_norep,2021.1.2,MacIntel,60.0024001,,,,,,,,,,,p,2.6237,33,0,33,0,1,,,,,,,,,,,,,,,,,,,,,
,,,,,,,,,,,,,,,,,,,,,,60fd978c77223cb3d24d6618,001,2021-08-01_13h24.39.361,arrow_simon_norep,2021.1.2,MacIntel,60.0024001,,,,,,,,,,,p,2.3305,34,0,34,0,1,,,,,,,,,,,,,,,,,,,,,
,,,,,,,,,,,,,,,,,,,,,,60fd978c77223cb3d24d6618,001,2021-08-01_13h24.39.361,arrow_simon_norep,2021.1.2,MacIntel,60.0024001,,,,,,,,,,,p,2.4594,35,0,35,0,1,,,,,,,,,,,,,,,,,,,,,
,,,,,,,,,,,,,,,,,,,,,,60fd978c77223cb3d24d6618,001,2021-08-01_13h24.39.361,arrow_simon_norep,2021.1.2,MacIntel,60.0024001,,,,,,,,,,,p,2.441,36,0,36,0,1,,,,,,,,,,,,,,,,,,,,,
,,,,,,,,,,,,,,,,,,,,,,60fd978c77223cb3d24d6618,001,2021-08-01_13h24.39.361,arrow_simon_norep,2021.1.2,MacIntel,60.0024001,,,,,,,,,,,p,2.5088,37,0,37,0,1,,,,,,,,,,,,,,,,,,,,,
,,,,,,,,,,,,,,,,,,,,,,60fd978c77223cb3d24d6618,001,2021-08-01_13h24.39.361,arrow_simon_norep,2021.1.2,MacIntel,60.0024001,,,,,,,,,,,p,2.5421,38,0,38,0,1,,,,,,,,,,,,,,,,,,,,,
,,,,,,,,,,,,,,,,,,,,,,60fd978c77223cb3d24d6618,001,2021-08-01_13h24.39.361,arrow_simon_norep,2021.1.2,MacIntel,60.0024001,,,,,,,,,,,p,2.6804,39,0,39,0,1,,,,,,,,,,,,,,,,,,,,,
,,,,,,,,,,,,,,,,,,,,,,60fd978c77223cb3d24d6618,001,2021-08-01_13h24.39.361,arrow_simon_norep,2021.1.2,MacIntel,60.0024001,,,,,,,,,,,p,2.4413,40,0,40,0,1,,,,,,,,,,,,,,,,,,,,,
,,,,,,,,,,,,,,,,,,,,,,60fd978c77223cb3d24d6618,001,2021-08-01_13h24.39.361,arrow_simon_norep,2021.1.2,MacIntel,60.0024001,,,,,,,,,,,p,2.4098,41,0,41,0,1,,,,,,,,,,,,,,,,,,,,,
,,,,,,,,,,,,,,,,,,,,,,60fd978c77223cb3d24d6618,001,2021-08-01_13h24.39.361,arrow_simon_norep,2021.1.2,MacIntel,60.0024001,,,,,,,,,,,p,2.2953,42,0,42,0,1,,,,,,,,,,,,,,,,,,,,,
,,,,,,,,,,,,,,,,,,,,,,60fd978c77223cb3d24d6618,001,2021-08-01_13h24.39.361,arrow_simon_norep,2021.1.2,MacIntel,60.0024001,,,,,,,,,,,p,2.5579,43,0,43,0,1,,,,,,,,,,,,,,,,,,,,,
,,,,,,,,,,,,,,,,,,,,,,60fd978c77223cb3d24d6618,001,2021-08-01_13h24.39.361,arrow_simon_norep,2021.1.2,MacIntel,60.0024001,,,,,,,,,,,p,2.6236,44,0,44,0,1,,,,,,,,,,,,,,,,,,,,,
,,,,,,,,,,,,,,,,,,,,,,60fd978c77223cb3d24d6618,001,2021-08-01_13h24.39.361,arrow_simon_norep,2021.1.2,MacIntel,60.0024001,,,,,,,,,,,p,2.593,45,0,45,0,1,,,,,,,,,,,,,,,,,,,,,
,,,,,,,,,,,,,,,,,,,,,,60fd978c77223cb3d24d6618,001,2021-08-01_13h24.39.361,arrow_simon_norep,2021.1.2,MacIntel,60.0024001,,,,,,,,,,,p,2.4549,46,0,46,0,1,,,,,,,,,,,,,,,,,,,,,
,,,,,,,,,,,,,,,,,,,,,,60fd978c77223cb3d24d6618,001,2021-08-01_13h24.39.361,arrow_simon_norep,2021.1.2,MacIntel,60.0024001,,,,,,,,,,,p,2.4893,47,0,47,0,1,,,,,,,,,,,,,,,,,,,,,
,,,,,,,,,,,,,,,,,,,,,,60fd978c77223cb3d24d6618,001,2021-08-01_13h24.39.361,arrow_simon_norep,2021.1.2,MacIntel,60.0024001,,,,,,,,,,,p,2.4768,48,0,48,0,1,,,,,,,,,,,,,,,,,,,,,
,,,,,,,,,,,,,,,,,,,,,,60fd978c77223cb3d24d6618,001,2021-08-01_13h24.39.361,arrow_simon_norep,2021.1.2,MacIntel,60.0024001,,,,,,,,,,,p,2.0909,49,0,49,0,1,,,,,,,,,,,,,,,,,,,,,
,,,,,,,,,,,,,,,,,,,,,,60fd978c77223cb3d24d6618,001,2021-08-01_13h24.39.361,arrow_simon_norep,2021.1.2,MacIntel,60.0024001,,,,,,,,,,,p,2.5514,50,0,50,0,1,,,,,,,,,,,,,,,,,,,,,
,,,,,,,,,,,,,,,,,,,,,,60fd978c77223cb3d24d6618,001,2021-08-01_13h24.39.361,arrow_simon_norep,2021.1.2,MacIntel,60.0024001,,,,,,,,,,,p,2.1068,51,0,51,0,1,,,,,,,,,,,,,,,,,,,,,
,,,,,,,,,,,,,,,,,,,,,,60fd978c77223cb3d24d6618,001,2021-08-01_13h24.39.361,arrow_simon_norep,2021.1.2,MacIntel,60.0024001,,,,,,,,,,,p,2.5463,52,0,52,0,1,,,,,,,,,,,,,,,,,,,,,
,,,,,,,,,,,,,,,,,,,,,,60fd978c77223cb3d24d6618,001,2021-08-01_13h24.39.361,arrow_simon_norep,2021.1.2,MacIntel,60.0024001,,,,,,,,,,,p,2.2451,53,0,53,0,1,,,,,,,,,,,,,,,,,,,,,
,,,,,,,,,,,,,,,,,,,,,,60fd978c77223cb3d24d6618,001,2021-08-01_13h24.39.361,arrow_simon_norep,2021.1.2,MacIntel,60.0024001,,,,,,,,,,,p,2.4434,54,0,54,0,1,,,,,,,,,,,,,,,,,,,,,
,,,,,,,,,,,,,,,,,,,,,,60fd978c77223cb3d24d6618,001,2021-08-01_13h24.39.361,arrow_simon_norep,2021.1.2,MacIntel,60.0024001,,,,,,,,,,,p,2.4408,55,0,55,0,1,,,,,,,,,,,,,,,,,,,,,
,,,,,,,,,,,,,,,,,,,,,,60fd978c77223cb3d24d6618,001,2021-08-01_13h24.39.361,arrow_simon_norep,2021.1.2,MacIntel,60.0024001,,,,,,,,,,,p,2.9364,56,0,56,0,1,,,,,,,,,,,,,,,,,,,,,
,,,,,,,,,,,,,,,,,,,,,,60fd978c77223cb3d24d6618,001,2021-08-01_13h24.39.361,arrow_simon_norep,2021.1.2,MacIntel,60.0024001,,,,,,,,,,,p,2.5253,57,0,57,0,1,,,,,,,,,,,,,,,,,,,,,
,,,,,,,,,,,,,,,,,,,,,,60fd978c77223cb3d24d6618,001,2021-08-01_13h24.39.361,arrow_simon_norep,2021.1.2,MacIntel,60.0024001,,,,,,,,,,,p,2.0603,58,0,58,0,1,,,,,,,,,,,,,,,,,,,,,
,,,,,,,,,,,,,,,,,,,,,,60fd978c77223cb3d24d6618,001,2021-08-01_13h24.39.361,arrow_simon_norep,2021.1.2,MacIntel,60.0024001,,,,,,,,,,,p,2.1972,59,0,59,0,1,,,,,,,,,,,,,,,,,,,,,
,,,,,,0,1.898134386,#a3d0fb,,left_blue.png,w,,,,,,w,left_blue.png,left_orange.png,q,right,60fd978c77223cb3d24d6618,001,2021-08-01_13h24.39.361,arrow_simon_norep,2021.1.2,MacIntel,60.0024001,,,,,,,,,,,,,,,,,,space,0,19.2029,o,0,2.493,1,TRUE,FALSE,0,0,0,3,1,,,,,,,
,,,,,,0,1.862802559,#f3af84,,right_orange.png,p,,,,,,o,right_blue.png,right_orange.png,p,right,60fd978c77223cb3d24d6618,001,2021-08-01_13h24.39.361,arrow_simon_norep,2021.1.2,MacIntel,60.0024001,,,,,,,,,,,,,,,,,,,,,p,1,1.7463,2,TRUE,FALSE,0,1,1,1,1,,,,,,,
,,,,,,0,2.121745176,#a3d0fb,,right_blue.png,o,,,,,,o,right_blue.png,right_orange.png,p,left,60fd978c77223cb3d24d6618,001,2021-08-01_13h24.39.361,arrow_simon_norep,2021.1.2,MacIntel,60.0024001,,,,,,,,,,,,,,,,,,,,,p,0,1.6269,3,TRUE,FALSE,0,2,2,0,1,,,,,,,
,,,,,,0,1.913352675,#f3af84,,left_orange.png,q,,,,,,w,left_blue.png,left_orange.png,q,left,60fd978c77223cb3d24d6618,001,2021-08-01_13h24.39.361,arrow_simon_norep,2021.1.2,MacIntel,60.0024001,,,,,,,,,,,,,,,,,,,,,q,1,1.4628,4,FALSE,FALSE,0,3,3,2,1,,,,,,,
,,,,,,0,2.255700683,#a3d0fb,,right_blue.png,o,,,,,,o,right_blue.png,right_orange.png,p,right,60fd978c77223cb3d24d6618,001,2021-08-01_13h24.39.361,arrow_simon_norep,2021.1.2,MacIntel,60.0024001,,,,,,,,,,,,,,,,,,,,,p,0,1.614,5,TRUE,FALSE,1,0,4,1,1,,,,,,,
,,,,,,0,2.01818457,#f3af84,,left_orange.png,q,,,,,,w,left_blue.png,left_orange.png,q,left,60fd978c77223cb3d24d6618,001,2021-08-01_13h24.39.361,arrow_simon_norep,2021.1.2,MacIntel,60.0024001,,,,,,,,,,,,,,,,,,,,,q,1,1.4767,6,FALSE,FALSE,1,1,5,2,1,,,,,,,
,,,,,,0,2.069550785,#a3d0fb,,right_blue.png,o,,,,,,o,right_blue.png,right_orange.png,p,right,60fd978c77223cb3d24d6618,001,2021-08-01_13h24.39.361,arrow_simon_norep,2021.1.2,MacIntel,60.0024001,,,,,,,,,,,,,,,,,,,,,o,1,1.4278,7,FALSE,FALSE,1,2,6,1,1,,,,,,,
,,,,,,1,2.207342829,#f3af84,,right_orange.png,p,,,,,,o,right_blue.png,right_orange.png,p,left,60fd978c77223cb3d24d6618,001,2021-08-01_13h24.39.361,arrow_simon_norep,2021.1.2,MacIntel,60.0024001,,,,,,,,,,,,,,,,,,,,,q,0,1.4711,8,FALSE,FALSE,1,3,7,0,1,,,,,,,
,,,,,,1,2.227047377,#a3d0fb,,left_blue.png,w,,,,,,w,left_blue.png,left_orange.png,q,left,60fd978c77223cb3d24d6618,001,2021-08-01_13h24.39.361,arrow_simon_norep,2021.1.2,MacIntel,60.0024001,,,,,,,,,,,,,,,,,,,,,w,1,1.7626,9,TRUE,FALSE,2,0,8,2,1,,,,,,,
,,,,,,1,1.936895973,#f3af84,,right_orange.png,p,,,,,,o,right_blue.png,right_orange.png,p,right,60fd978c77223cb3d24d6618,001,2021-08-01_13h24.39.361,arrow_simon_norep,2021.1.2,MacIntel,60.0024001,,,,,,,,,,,,,,,,,,,,,p,1,1.2401,10,FALSE,TRUE,2,1,9,1,1,,,,,,,
,,,,,,1,2.213059235,#a3d0fb,,right_blue.png,o,,,,,,o,right_blue.png,right_orange.png,p,left,60fd978c77223cb3d24d6618,001,2021-08-01_13h24.39.361,arrow_simon_norep,2021.1.2,MacIntel,60.0024001,,,,,,,,,,,,,,,,,,,,,o,1,1.6315,11,TRUE,FALSE,2,2,10,0,1,,,,,,,
,,,,,,1,2.000423425,#f3af84,,right_orange.png,p,,,,,,o,right_blue.png,right_orange.png,p,left,60fd978c77223cb3d24d6618,001,2021-08-01_13h24.39.361,arrow_simon_norep,2021.1.2,MacIntel,60.0024001,,,,,,,,,,,,,,,,,,,,,q,0,1.5293,12,FALSE,FALSE,2,3,11,0,1,,,,,,,
,,,,,,0,2.025112436,#a3d0fb,,left_blue.png,w,,,,,,w,left_blue.png,left_orange.png,q,left,60fd978c77223cb3d24d6618,001,2021-08-01_13h24.39.361,arrow_simon_norep,2021.1.2,MacIntel,60.0024001,,,,,,,,,,,,,,,,,,,,,w,1,1.579,13,FALSE,FALSE,3,0,12,2,1,,,,,,,
,,,,,,0,1.757408033,#f3af84,,left_orange.png,q,,,,,,w,left_blue.png,left_orange.png,q,left,60fd978c77223cb3d24d6618,001,2021-08-01_13h24.39.361,arrow_simon_norep,2021.1.2,MacIntel,60.0024001,,,,,,,,,,,,,,,,,,,,,q,1,1.1444,14,FALSE,TRUE,3,1,13,2,1,,,,,,,
,,,,,,0,2.45283792,#a3d0fb,,left_blue.png,w,,,,,,w,left_blue.png,left_orange.png,q,right,60fd978c77223cb3d24d6618,001,2021-08-01_13h24.39.361,arrow_simon_norep,2021.1.2,MacIntel,60.0024001,,,,,,,,,,,,,,,,,,,,,o,0,2.0281,15,TRUE,FALSE,3,2,14,3,1,,,,,,,
,,,,,,0,1.749819286,#f3af84,,right_orange.png,p,,,,,,o,right_blue.png,right_orange.png,p,right,60fd978c77223cb3d24d6618,001,2021-08-01_13h24.39.361,arrow_simon_norep,2021.1.2,MacIntel,60.0024001,,,,,,,,,,,,,,,,,,,,,p,1,1.138,16,FALSE,TRUE,3,3,15,1,1,,,,,,,
,,,,,,0,1.676838487,#a3d0fb,,left_blue.png,w,,,,,,w,left_blue.png,left_orange.png,q,right,60fd978c77223cb3d24d6618,001,2021-08-01_13h24.39.361,arrow_simon_norep,2021.1.2,MacIntel,60.0024001,,,,,,,,,,,,,,,,,,,,,o,0,1.1472,17,FALSE,TRUE,4,0,16,3,1,,,,,,,
,,,,,,0,1.602907052,#f3af84,,right_orange.png,p,,,,,,o,right_blue.png,right_orange.png,p,left,60fd978c77223cb3d24d6618,001,2021-08-01_13h24.39.361,arrow_simon_norep,2021.1.2,MacIntel,60.0024001,,,,,,,,,,,,,,,,,,,,,p,1,1.8254,18,TRUE,FALSE,4,1,17,0,1,,,,,,,
,,,,,,0,1.605251088,#a3d0fb,,right_blue.png,o,,,,,,o,right_blue.png,right_orange.png,p,right,60fd978c77223cb3d24d6618,001,2021-08-01_13h24.39.361,arrow_simon_norep,2021.1.2,MacIntel,60.0024001,,,,,,,,,,,,,,,,,,,,,o,1,1.8224,19,TRUE,FALSE,4,2,18,1,1,,,,,,,
,,,,,,0,1.657107821,#f3af84,,right_orange.png,p,,,,,,o,right_blue.png,right_orange.png,p,right,60fd978c77223cb3d24d6618,001,2021-08-01_13h24.39.361,arrow_simon_norep,2021.1.2,MacIntel,60.0024001,,,,,,,,,,,,,,,,,,,,,p,1,1.7291,20,TRUE,FALSE,4,3,19,1,1,,,,,,,
,,,,,,0,1.817617007,#a3d0fb,,right_blue.png,o,,,,,,o,right_blue.png,right_orange.png,p,left,60fd978c77223cb3d24d6618,001,2021-08-01_13h24.39.361,arrow_simon_norep,2021.1.2,MacIntel,60.0024001,,,,,,,,,,,,,,,,,,,,,o,1,1.5095,21,FALSE,FALSE,5,0,20,0,1,,,,,,,
,,,,,,0,2.344000616,#f3af84,,right_orange.png,p,,,,,,o,right_blue.png,right_orange.png,p,right,60fd978c77223cb3d24d6618,001,2021-08-01_13h24.39.361,arrow_simon_norep,2021.1.2,MacIntel,60.0024001,,,,,,,,,,,,,,,,,,,,,p,1,1.7095,22,TRUE,FALSE,5,1,21,1,1,,,,,,,
,,,,,,0,1.673856045,#a3d0fb,,left_blue.png,w,,,,,,w,left_blue.png,left_orange.png,q,left,60fd978c77223cb3d24d6618,001,2021-08-01_13h24.39.361,arrow_simon_norep,2021.1.2,MacIntel,60.0024001,,,,,,,,,,,,,,,,,,,,,w,1,1.3979,23,FALSE,TRUE,5,2,22,2,1,,,,,,,
,,,,,,0,1.599508968,#f3af84,,right_orange.png,p,,,,,,o,right_blue.png,right_orange.png,p,right,60fd978c77223cb3d24d6618,001,2021-08-01_13h24.39.361,arrow_simon_norep,2021.1.2,MacIntel,60.0024001,,,,,,,,,,,,,,,,,,,,,p,1,24.2426,24,TRUE,FALSE,5,3,23,1,1,,,,,,,
,,,,,,0,2.328890401,#a3d0fb,,left_blue.png,w,,,,,,w,left_blue.png,left_orange.png,q,left,60fd978c77223cb3d24d6618,001,2021-08-01_13h24.39.361,arrow_simon_norep,2021.1.2,MacIntel,60.0024001,,,,,,,,,,,,,,,,,,,,,w,1,1.9915,25,TRUE,FALSE,6,0,24,2,1,,,,,,,
,,,,,,0,1.66818141,#f3af84,,left_orange.png,q,,,,,,w,left_blue.png,left_orange.png,q,right,60fd978c77223cb3d24d6618,001,2021-08-01_13h24.39.361,arrow_simon_norep,2021.1.2,MacIntel,60.0024001,,,,,,,,,,,,,,,,,,,,,q,1,1.791,26,TRUE,FALSE,6,1,25,3,1,,,,,,,
,,,,,,1,2.113476583,#a3d0fb,,left_blue.png,w,,,,,,w,left_blue.png,left_orange.png,q,right,60fd978c77223cb3d24d6618,001,2021-08-01_13h24.39.361,arrow_simon_norep,2021.1.2,MacIntel,60.0024001,,,,,,,,,,,,,,,,,,,,,o,0,1.5136,27,FALSE,FALSE,6,2,26,3,1,,,,,,,
,,,,,,1,1.615718968,#f3af84,,right_orange.png,p,,,,,,o,right_blue.png,right_orange.png,p,right,60fd978c77223cb3d24d6618,001,2021-08-01_13h24.39.361,arrow_simon_norep,2021.1.2,MacIntel,60.0024001,,,,,,,,,,,,,,,,,,,,,p,1,1.3235,28,FALSE,TRUE,6,3,27,1,1,,,,,,,
,,,,,,1,2.475991864,#a3d0fb,,right_blue.png,o,,,,,,o,right_blue.png,right_orange.png,p,left,60fd978c77223cb3d24d6618,001,2021-08-01_13h24.39.361,arrow_simon_norep,2021.1.2,MacIntel,60.0024001,,,,,,,,,,,,,,,,,,,,,o,1,2.0928,29,TRUE,FALSE,7,0,28,0,1,,,,,,,
,,,,,,1,2.24407086,#f3af84,,right_orange.png,p,,,,,,o,right_blue.png,right_orange.png,p,left,60fd978c77223cb3d24d6618,001,2021-08-01_13h24.39.361,arrow_simon_norep,2021.1.2,MacIntel,60.0024001,,,,,,,,,,,,,,,,,,,,,p,1,1.6933,30,TRUE,FALSE,7,1,29,0,1,,,,,,,
,,,,,,1,1.959210021,#a3d0fb,,left_blue.png,w,,,,,,w,left_blue.png,left_orange.png,q,right,60fd978c77223cb3d24d6618,001,2021-08-01_13h24.39.361,arrow_simon_norep,2021.1.2,MacIntel,60.0024001,,,,,,,,,,,,,,,,,,,,,w,1,1.6799,31,TRUE,FALSE,7,2,30,3,1,,,,,,,
,,,,,,1,2.406573811,#f3af84,,right_orange.png,p,,,,,,o,right_blue.png,right_orange.png,p,right,60fd978c77223cb3d24d6618,001,2021-08-01_13h24.39.361,arrow_simon_norep,2021.1.2,MacIntel,60.0024001,,,,,,,,,,,,,,,,,,,,,p,1,1.7321,32,TRUE,FALSE,7,3,31,1,1,,,,,,,
,,,,,,1,2.339030683,#a3d0fb,,left_blue.png,w,,,,,,w,left_blue.png,left_orange.png,q,right,60fd978c77223cb3d24d6618,001,2021-08-01_13h24.39.361,arrow_simon_norep,2021.1.2,MacIntel,60.0024001,,,,,,,,,,,,,,,,,,,,,q,0,1.9453,33,TRUE,FALSE,8,0,32,3,1,,,,,,,
,,,,,,0,1.897632628,#f3af84,,right_orange.png,p,,,,,,o,right_blue.png,right_orange.png,p,left,60fd978c77223cb3d24d6618,001,2021-08-01_13h24.39.361,arrow_simon_norep,2021.1.2,MacIntel,60.0024001,,,,,,,,,,,,,,,,,,,,,p,1,1.5483,34,FALSE,FALSE,8,1,33,0,1,,,,,,,
,,,,,,0,2.49121996,#a3d0fb,,left_blue.png,w,,,,,,w,left_blue.png,left_orange.png,q,right,60fd978c77223cb3d24d6618,001,2021-08-01_13h24.39.361,arrow_simon_norep,2021.1.2,MacIntel,60.0024001,,,,,,,,,,,,,,,,,,,,,w,1,2.1099,35,TRUE,FALSE,8,2,34,3,1,,,,,,,
,,,,,,0,2.425984848,#f3af84,,left_orange.png,q,,,,,,w,left_blue.png,left_orange.png,q,right,60fd978c77223cb3d24d6618,001,2021-08-01_13h24.39.361,arrow_simon_norep,2021.1.2,MacIntel,60.0024001,,,,,,,,,,,,,,,,,,,,,q,1,2.0813,36,TRUE,FALSE,8,3,35,3,1,,,,,,,
,,,,,,0,2.40314619,#a3d0fb,,left_blue.png,w,,,,,,w,left_blue.png,left_orange.png,q,right,60fd978c77223cb3d24d6618,001,2021-08-01_13h24.39.361,arrow_simon_norep,2021.1.2,MacIntel,60.0024001,,,,,,,,,,,,,,,,,,,,,w,1,2.1257,37,TRUE,FALSE,9,0,36,3,1,,,,,,,
,,,,,,0,2.339431805,#f3af84,,left_orange.png,q,,,,,,w,left_blue.png,left_orange.png,q,right,60fd978c77223cb3d24d6618,001,2021-08-01_13h24.39.361,arrow_simon_norep,2021.1.2,MacIntel,60.0024001,,,,,,,,,,,,,,,,,,,,,q,1,1.9593,38,TRUE,FALSE,9,1,37,3,1,,,,,,,
,,,,,,1,1.813720263,#a3d0fb,,right_blue.png,o,,,,,,o,right_blue.png,right_orange.png,p,left,60fd978c77223cb3d24d6618,001,2021-08-01_13h24.39.361,arrow_simon_norep,2021.1.2,MacIntel,60.0024001,,,,,,,,,,,,,,,,,,,,,p,0,1.4436,39,FALSE,FALSE,9,2,38,0,1,,,,,,,
,,,,,,1,2.237842813,#f3af84,,right_orange.png,p,,,,,,o,right_blue.png,right_orange.png,p,right,60fd978c77223cb3d24d6618,001,2021-08-01_13h24.39.361,arrow_simon_norep,2021.1.2,MacIntel,60.0024001,,,,,,,,,,,,,,,,,,,,,p,1,1.6739,40,TRUE,FALSE,9,3,39,1,1,,,,,,,
,,,,,,1,2.166084667,#a3d0fb,,right_blue.png,o,,,,,,o,right_blue.png,right_orange.png,p,left,60fd978c77223cb3d24d6618,001,2021-08-01_13h24.39.361,arrow_simon_norep,2021.1.2,MacIntel,60.0024001,,,,,,,,,,,,,,,,,,,,,o,1,1.6667,41,TRUE,FALSE,10,0,40,0,1,,,,,,,
,,,,,,1,1.983739529,#f3af84,,left_orange.png,q,,,,,,w,left_blue.png,left_orange.png,q,right,60fd978c77223cb3d24d6618,001,2021-08-01_13h24.39.361,arrow_simon_norep,2021.1.2,MacIntel,60.0024001,,,,,,,,,,,,,,,,,,,,,w,0,1.6799,42,TRUE,FALSE,10,1,41,3,1,,,,,,,
,,,,,,1,2.074382864,#a3d0fb,,right_blue.png,o,,,,,,o,right_blue.png,right_orange.png,p,right,60fd978c77223cb3d24d6618,001,2021-08-01_13h24.39.361,arrow_simon_norep,2021.1.2,MacIntel,60.0024001,,,,,,,,,,,,,,,,,,,,,p,0,1.426,43,FALSE,FALSE,10,2,42,1,1,,,,,,,
,,,,,,1,1.998660294,#f3af84,,right_orange.png,p,,,,,,o,right_blue.png,right_orange.png,p,right,60fd978c77223cb3d24d6618,001,2021-08-01_13h24.39.361,arrow_simon_norep,2021.1.2,MacIntel,60.0024001,,,,,,,,,,,,,,,,,,,,,p,1,1.3922,44,FALSE,TRUE,10,3,43,1,1,,,,,,,
,,,,,,1,1.78747307,#a3d0fb,,left_blue.png,w,,,,,,w,left_blue.png,left_orange.png,q,left,60fd978c77223cb3d24d6618,001,2021-08-01_13h24.39.361,arrow_simon_norep,2021.1.2,MacIntel,60.0024001,,,,,,,,,,,,,,,,,,,,,w,1,1.6416,45,TRUE,FALSE,11,0,44,2,1,,,,,,,
,,,,,,1,1.628012117,#f3af84,,left_orange.png,q,,,,,,w,left_blue.png,left_orange.png,q,right,60fd978c77223cb3d24d6618,001,2021-08-01_13h24.39.361,arrow_simon_norep,2021.1.2,MacIntel,60.0024001,,,,,,,,,,,,,,,,,,,,,q,1,1.8288,46,TRUE,FALSE,11,1,45,3,1,,,,,,,
,,,,,,1,1.824589884,#a3d0fb,,left_blue.png,w,,,,,,w,left_blue.png,left_orange.png,q,left,60fd978c77223cb3d24d6618,001,2021-08-01_13h24.39.361,arrow_simon_norep,2021.1.2,MacIntel,60.0024001,,,,,,,,,,,,,,,,,,,,,w,1,1.2413,47,FALSE,TRUE,11,2,46,2,1,,,,,,,
,,,,,,1,2.376720369,#f3af84,,left_orange.png,q,,,,,,w,left_blue.png,left_orange.png,q,left,60fd978c77223cb3d24d6618,001,2021-08-01_13h24.39.361,arrow_simon_norep,2021.1.2,MacIntel,60.0024001,,,,,,,,,,,,,,,,,,,,,q,1,1.7929,48,TRUE,FALSE,11,3,47,2,1,,,,,,,
,,,,,,1,2.144030654,#a3d0fb,,left_blue.png,w,,,,,,w,left_blue.png,left_orange.png,q,left,60fd978c77223cb3d24d6618,001,2021-08-01_13h24.39.361,arrow_simon_norep,2021.1.2,MacIntel,60.0024001,,,,,,,,,,,,,,,,,,,,,q,0,1.6611,49,TRUE,FALSE,12,0,48,2,1,,,,,,,
,,,,,,1,1.628495764,#f3af84,,right_orange.png,p,,,,,,o,right_blue.png,right_orange.png,p,left,60fd978c77223cb3d24d6618,001,2021-08-01_13h24.39.361,arrow_simon_norep,2021.1.2,MacIntel,60.0024001,,,,,,,,,,,,,,,,,,,,,p,1,1.3733,50,FALSE,TRUE,12,1,49,0,1,,,,,,,
,,,,,,1,1.744484003,#a3d0fb,,left_blue.png,w,,,,,,w,left_blue.png,left_orange.png,q,right,60fd978c77223cb3d24d6618,001,2021-08-01_13h24.39.361,arrow_simon_norep,2021.1.2,MacIntel,60.0024001,,,,,,,,,,,,,,,,,,,,,w,1,1.7288,51,TRUE,FALSE,12,2,50,3,1,,,,,,,
,,,,,,1,2.106496483,#f3af84,,right_orange.png,p,,,,,,o,right_blue.png,right_orange.png,p,right,60fd978c77223cb3d24d6618,001,2021-08-01_13h24.39.361,arrow_simon_norep,2021.1.2,MacIntel,60.0024001,,,,,,,,,,,,,,,,,,,,,p,1,1.926,52,TRUE,FALSE,12,3,51,1,1,,,,,,,
,,,,,,0,1.894764067,#a3d0fb,,left_blue.png,w,,,,,,w,left_blue.png,left_orange.png,q,right,60fd978c77223cb3d24d6618,001,2021-08-01_13h24.39.361,arrow_simon_norep,2021.1.2,MacIntel,60.0024001,,,,,,,,,,,,,,,,,,,,,w,1,1.4713,53,FALSE,FALSE,13,0,52,3,1,,,,,,,
,,,,,,0,1.733668003,#f3af84,,right_orange.png,p,,,,,,o,right_blue.png,right_orange.png,p,left,60fd978c77223cb3d24d6618,001,2021-08-01_13h24.39.361,arrow_simon_norep,2021.1.2,MacIntel,60.0024001,,,,,,,,,,,,,,,,,,,,,p,1,1.5316,54,FALSE,FALSE,13,1,53,0,1,,,,,,,
,,,,,,0,2.00180587,#a3d0fb,,left_blue.png,w,,,,,,w,left_blue.png,left_orange.png,q,left,60fd978c77223cb3d24d6618,001,2021-08-01_13h24.39.361,arrow_simon_norep,2021.1.2,MacIntel,60.0024001,,,,,,,,,,,,,,,,,,,,,w,1,1.7916,55,TRUE,FALSE,13,2,54,2,1,,,,,,,
,,,,,,0,1.768564624,#f3af84,,left_orange.png,q,,,,,,w,left_blue.png,left_orange.png,q,left,60fd978c77223cb3d24d6618,001,2021-08-01_13h24.39.361,arrow_simon_norep,2021.1.2,MacIntel,60.0024001,,,,,,,,,,,,,,,,,,,,,q,1,1.688,56,TRUE,FALSE,13,3,55,2,1,,,,,,,
,,,,,,0,1.665189608,#a3d0fb,,right_blue.png,o,,,,,,o,right_blue.png,right_orange.png,p,left,60fd978c77223cb3d24d6618,001,2021-08-01_13h24.39.361,arrow_simon_norep,2021.1.2,MacIntel,60.0024001,,,,,,,,,,,,,,,,,,,,,o,1,1.762,57,TRUE,FALSE,14,0,56,0,1,,,,,,,
,,,,,,0,1.85892365,#f3af84,,left_orange.png,q,,,,,,w,left_blue.png,left_orange.png,q,left,60fd978c77223cb3d24d6618,001,2021-08-01_13h24.39.361,arrow_simon_norep,2021.1.2,MacIntel,60.0024001,,,,,,,,,,,,,,,,,,,,,q,1,1.4329,58,FALSE,FALSE,14,1,57,2,1,,,,,,,
,,,,,,0,2.074500715,#a3d0fb,,left_blue.png,w,,,,,,w,left_blue.png,left_orange.png,q,left,60fd978c77223cb3d24d6618,001,2021-08-01_13h24.39.361,arrow_simon_norep,2021.1.2,MacIntel,60.0024001,,,,,,,,,,,,,,,,,,,,,w,1,1.4121,59,FALSE,FALSE,14,2,58,2,1,,,,,,,
,,,,,,0,1.961146053,#f3af84,,right_orange.png,p,,,,,,o,right_blue.png,right_orange.png,p,left,60fd978c77223cb3d24d6618,001,2021-08-01_13h24.39.361,arrow_simon_norep,2021.1.2,MacIntel,60.0024001,,,,,,,,,,,,,,,,,,,,,p,1,1.3943,60,FALSE,TRUE,14,3,59,0,1,,,,,,,
,,,,,,,,,,,,,,,,,,,,,,60fd978c77223cb3d24d6618,001,2021-08-01_13h24.39.361,arrow_simon_norep,2021.1.2,MacIntel,60.0024001,,,,,,,,,,,,,,,,,,,,,,,,,,,,,,,,space,491.4909,0,0,0,0,1
,,,,,,0,1.667833642,#a3d0fb,,left_blue.png,w,,,,,,w,left_blue.png,left_orange.png,q,right,60fd978c77223cb3d24d6618,001,2021-08-01_13h24.39.361,arrow_simon_norep,2021.1.2,MacIntel,60.0024001,,,,,,,,,,,,,,,,,,,,,w,1,1.2704,1,FALSE,TRUE,0,0,0,3,1,,,,,,,
,,,,,,0,1.623185591,#f3af84,,left_orange.png,q,,,,,,w,left_blue.png,left_orange.png,q,right,60fd978c77223cb3d24d6618,001,2021-08-01_13h24.39.361,arrow_simon_norep,2021.1.2,MacIntel,60.0024001,,,,,,,,,,,,,,,,,,,,,q,1,1.7182,2,TRUE,FALSE,0,1,1,3,1,,,,,,,
,,,,,,0,2.452928566,#a3d0fb,,right_blue.png,o,,,,,,o,right_blue.png,right_orange.png,p,right,60fd978c77223cb3d24d6618,001,2021-08-01_13h24.39.361,arrow_simon_norep,2021.1.2,MacIntel,60.0024001,,,,,,,,,,,,,,,,,,,,,o,1,1.9338,3,TRUE,FALSE,0,2,2,1,1,,,,,,,
,,,,,,0,1.674936052,#f3af84,,right_orange.png,p,,,,,,o,right_blue.png,right_orange.png,p,left,60fd978c77223cb3d24d6618,001,2021-08-01_13h24.39.361,arrow_simon_norep,2021.1.2,MacIntel,60.0024001,,,,,,,,,,,,,,,,,,,,,p,1,1.3255,4,FALSE,TRUE,0,3,3,0,1,,,,,,,
,,,,,,0,2.469903709,#a3d0fb,,right_blue.png,o,,,,,,o,right_blue.png,right_orange.png,p,right,60fd978c77223cb3d24d6618,001,2021-08-01_13h24.39.361,arrow_simon_norep,2021.1.2,MacIntel,60.0024001,,,,,,,,,,,,,,,,,,,,,o,1,2.0827,5,TRUE,FALSE,1,0,4,1,1,,,,,,,
,,,,,,0,1.777881183,#f3af84,,right_orange.png,p,,,,,,o,right_blue.png,right_orange.png,p,left,60fd978c77223cb3d24d6618,001,2021-08-01_13h24.39.361,arrow_simon_norep,2021.1.2,MacIntel,60.0024001,,,,,,,,,,,,,,,,,,,,,p,1,1.6734,6,TRUE,FALSE,1,1,5,0,1,,,,,,,
,,,,,,0,2.139290607,#a3d0fb,,left_blue.png,w,,,,,,w,left_blue.png,left_orange.png,q,right,60fd978c77223cb3d24d6618,001,2021-08-01_13h24.39.361,arrow_simon_norep,2021.1.2,MacIntel,60.0024001,,,,,,,,,,,,,,,,,,,,,o,0,1.7211,7,TRUE,FALSE,1,2,6,3,1,,,,,,,
,,,,,,0,1.654037143,#f3af84,,left_orange.png,q,,,,,,w,left_blue.png,left_orange.png,q,right,60fd978c77223cb3d24d6618,001,2021-08-01_13h24.39.361,arrow_simon_norep,2021.1.2,MacIntel,60.0024001,,,,,,,,,,,,,,,,,,,,,q,1,1.6092,8,TRUE,FALSE,1,3,7,3,1,,,,,,,
,,,,,,0,2.231088339,#a3d0fb,,left_blue.png,w,,,,,,w,left_blue.png,left_orange.png,q,right,60fd978c77223cb3d24d6618,001,2021-08-01_13h24.39.361,arrow_simon_norep,2021.1.2,MacIntel,60.0024001,,,,,,,,,,,,,,,,,,,,,w,1,1.8392,9,TRUE,FALSE,2,0,8,3,1,,,,,,,
,,,,,,0,1.946962822,#f3af84,,right_orange.png,p,,,,,,o,right_blue.png,right_orange.png,p,left,60fd978c77223cb3d24d6618,001,2021-08-01_13h24.39.361,arrow_simon_norep,2021.1.2,MacIntel,60.0024001,,,,,,,,,,,,,,,,,,,,,p,1,1.3925,10,FALSE,TRUE,2,1,9,0,1,,,,,,,
,,,,,,0,2.483046468,#a3d0fb,,left_blue.png,w,,,,,,w,left_blue.png,left_orange.png,q,right,60fd978c77223cb3d24d6618,001,2021-08-01_13h24.39.361,arrow_simon_norep,2021.1.2,MacIntel,60.0024001,,,,,,,,,,,,,,,,,,,,,q,0,1.9018,11,TRUE,FALSE,2,2,10,3,1,,,,,,,
,,,,,,0,1.690590209,#f3af84,,right_orange.png,p,,,,,,o,right_blue.png,right_orange.png,p,right,60fd978c77223cb3d24d6618,001,2021-08-01_13h24.39.361,arrow_simon_norep,2021.1.2,MacIntel,60.0024001,,,,,,,,,,,,,,,,,,,,,p,1,1.725,12,TRUE,FALSE,2,3,11,1,1,,,,,,,
,,,,,,0,2.078794624,#a3d0fb,,left_blue.png,w,,,,,,w,left_blue.png,left_orange.png,q,right,60fd978c77223cb3d24d6618,001,2021-08-01_13h24.39.361,arrow_simon_norep,2021.1.2,MacIntel,60.0024001,,,,,,,,,,,,,,,,,,,,,q,0,1.919,13,TRUE,FALSE,3,0,12,3,1,,,,,,,
,,,,,,0,1.823236878,#f3af84,,right_orange.png,p,,,,,,o,right_blue.png,right_orange.png,p,right,60fd978c77223cb3d24d6618,001,2021-08-01_13h24.39.361,arrow_simon_norep,2021.1.2,MacIntel,60.0024001,,,,,,,,,,,,,,,,,,,,,p,1,1.1856,14,FALSE,TRUE,3,1,13,1,1,,,,,,,
,,,,,,0,1.655938007,#a3d0fb,,right_blue.png,o,,,,,,o,right_blue.png,right_orange.png,p,left,60fd978c77223cb3d24d6618,001,2021-08-01_13h24.39.361,arrow_simon_norep,2021.1.2,MacIntel,60.0024001,,,,,,,,,,,,,,,,,,,,,o,1,1.8196,15,TRUE,FALSE,3,2,14,0,1,,,,,,,
,,,,,,0,1.975539125,#f3af84,,right_orange.png,p,,,,,,o,right_blue.png,right_orange.png,p,left,60fd978c77223cb3d24d6618,001,2021-08-01_13h24.39.361,arrow_simon_norep,2021.1.2,MacIntel,60.0024001,,,,,,,,,,,,,,,,,,,,,p,1,1.6673,16,TRUE,FALSE,3,3,15,0,1,,,,,,,
,,,,,,0,2.025063365,#a3d0fb,,left_blue.png,w,,,,,,w,left_blue.png,left_orange.png,q,left,60fd978c77223cb3d24d6618,001,2021-08-01_13h24.39.361,arrow_simon_norep,2021.1.2,MacIntel,60.0024001,,,,,,,,,,,,,,,,,,,,,w,1,1.6496,17,TRUE,FALSE,4,0,16,2,1,,,,,,,
,,,,,,0,2.019873656,#f3af84,,right_orange.png,p,,,,,,o,right_blue.png,right_orange.png,p,right,60fd978c77223cb3d24d6618,001,2021-08-01_13h24.39.361,arrow_simon_norep,2021.1.2,MacIntel,60.0024001,,,,,,,,,,,,,,,,,,,,,p,1,1.6971,18,TRUE,FALSE,4,1,17,1,1,,,,,,,
,,,,,,0,2.273005122,#a3d0fb,,right_blue.png,o,,,,,,o,right_blue.png,right_orange.png,p,right,60fd978c77223cb3d24d6618,001,2021-08-01_13h24.39.361,arrow_simon_norep,2021.1.2,MacIntel,60.0024001,,,,,,,,,,,,,,,,,,,,,o,1,1.7425,19,TRUE,FALSE,4,2,18,1,1,,,,,,,
,,,,,,0,1.664042922,#f3af84,,left_orange.png,q,,,,,,w,left_blue.png,left_orange.png,q,left,60fd978c77223cb3d24d6618,001,2021-08-01_13h24.39.361,arrow_simon_norep,2021.1.2,MacIntel,60.0024001,,,,,,,,,,,,,,,,,,,,,q,1,1.8287,20,TRUE,FALSE,4,3,19,2,1,,,,,,,
,,,,,,0,1.857341119,#a3d0fb,,left_blue.png,w,,,,,,w,left_blue.png,left_orange.png,q,right,60fd978c77223cb3d24d6618,001,2021-08-01_13h24.39.361,arrow_simon_norep,2021.1.2,MacIntel,60.0024001,,,,,,,,,,,,,,,,,,,,,w,1,1.7425,21,TRUE,FALSE,5,0,20,3,1,,,,,,,
,,,,,,0,2.364831724,#f3af84,,left_orange.png,q,,,,,,w,left_blue.png,left_orange.png,q,left,60fd978c77223cb3d24d6618,001,2021-08-01_13h24.39.361,arrow_simon_norep,2021.1.2,MacIntel,60.0024001,,,,,,,,,,,,,,,,,,,,,q,1,1.9209,22,TRUE,FALSE,5,1,21,2,1,,,,,,,
,,,,,,0,1.951186296,#a3d0fb,,right_blue.png,o,,,,,,o,right_blue.png,right_orange.png,p,right,60fd978c77223cb3d24d6618,001,2021-08-01_13h24.39.361,arrow_simon_norep,2021.1.2,MacIntel,60.0024001,,,,,,,,,,,,,,,,,,,,,o,1,1.4755,23,FALSE,FALSE,5,2,22,1,1,,,,,,,
,,,,,,0,1.804535275,#f3af84,,left_orange.png,q,,,,,,w,left_blue.png,left_orange.png,q,right,60fd978c77223cb3d24d6618,001,2021-08-01_13h24.39.361,arrow_simon_norep,2021.1.2,MacIntel,60.0024001,,,,,,,,,,,,,,,,,,,,,q,1,1.7307,24,TRUE,FALSE,5,3,23,3,1,,,,,,,
,,,,,,0,2.222959491,#a3d0fb,,left_blue.png,w,,,,,,w,left_blue.png,left_orange.png,q,right,60fd978c77223cb3d24d6618,001,2021-08-01_13h24.39.361,arrow_simon_norep,2021.1.2,MacIntel,60.0024001,,,,,,,,,,,,,,,,,,,,,q,0,1.7671,25,TRUE,FALSE,6,0,24,3,1,,,,,,,
,,,,,,0,1.862543661,#f3af84,,right_orange.png,p,,,,,,o,right_blue.png,right_orange.png,p,right,60fd978c77223cb3d24d6618,001,2021-08-01_13h24.39.361,arrow_simon_norep,2021.1.2,MacIntel,60.0024001,,,,,,,,,,,,,,,,,,,,,p,1,0.8625,26,FALSE,TRUE,6,1,25,1,1,,,,,,,
,,,,,,0,1.954150971,#a3d0fb,,right_blue.png,o,,,,,,o,right_blue.png,right_orange.png,p,right,60fd978c77223cb3d24d6618,001,2021-08-01_13h24.39.361,arrow_simon_norep,2021.1.2,MacIntel,60.0024001,,,,,,,,,,,,,,,,,,,,,o,1,1.338,27,FALSE,TRUE,6,2,26,1,1,,,,,,,
,,,,,,0,2.296084763,#f3af84,,right_orange.png,p,,,,,,o,right_blue.png,right_orange.png,p,left,60fd978c77223cb3d24d6618,001,2021-08-01_13h24.39.361,arrow_simon_norep,2021.1.2,MacIntel,60.0024001,,,,,,,,,,,,,,,,,,,,,p,1,1.8452,28,TRUE,FALSE,6,3,27,0,1,,,,,,,
,,,,,,0,1.63496841,#a3d0fb,,right_blue.png,o,,,,,,o,right_blue.png,right_orange.png,p,right,60fd978c77223cb3d24d6618,001,2021-08-01_13h24.39.361,arrow_simon_norep,2021.1.2,MacIntel,60.0024001,,,,,,,,,,,,,,,,,,,,,o,1,1.3608,29,FALSE,TRUE,7,0,28,1,1,,,,,,,
,,,,,,0,2.08553167,#f3af84,,right_orange.png,p,,,,,,o,right_blue.png,right_orange.png,p,left,60fd978c77223cb3d24d6618,001,2021-08-01_13h24.39.361,arrow_simon_norep,2021.1.2,MacIntel,60.0024001,,,,,,,,,,,,,,,,,,,,,p,1,1.7662,30,TRUE,FALSE,7,1,29,0,1,,,,,,,
,,,,,,0,1.881619437,#a3d0fb,,left_blue.png,w,,,,,,w,left_blue.png,left_orange.png,q,left,60fd978c77223cb3d24d6618,001,2021-08-01_13h24.39.361,arrow_simon_norep,2021.1.2,MacIntel,60.0024001,,,,,,,,,,,,,,,,,,,,,w,1,1.6737,31,TRUE,FALSE,7,2,30,2,1,,,,,,,
,,,,,,0,2.045080152,#f3af84,,right_orange.png,p,,,,,,o,right_blue.png,right_orange.png,p,right,60fd978c77223cb3d24d6618,001,2021-08-01_13h24.39.361,arrow_simon_norep,2021.1.2,MacIntel,60.0024001,,,,,,,,,,,,,,,,,,,,,p,1,1.4573,32,FALSE,FALSE,7,3,31,1,1,,,,,,,
,,,,,,0,2.363090954,#a3d0fb,,left_blue.png,w,,,,,,w,left_blue.png,left_orange.png,q,left,60fd978c77223cb3d24d6618,001,2021-08-01_13h24.39.361,arrow_simon_norep,2021.1.2,MacIntel,60.0024001,,,,,,,,,,,,,,,,,,,,,w,1,1.6811,33,TRUE,FALSE,8,0,32,2,1,,,,,,,
,,,,,,0,2.125632029,#f3af84,,right_orange.png,p,,,,,,o,right_blue.png,right_orange.png,p,right,60fd978c77223cb3d24d6618,001,2021-08-01_13h24.39.361,arrow_simon_norep,2021.1.2,MacIntel,60.0024001,,,,,,,,,,,,,,,,,,,,,p,1,1.5381,34,FALSE,FALSE,8,1,33,1,1,,,,,,,
,,,,,,0,1.999049473,#a3d0fb,,right_blue.png,o,,,,,,o,right_blue.png,right_orange.png,p,right,60fd978c77223cb3d24d6618,001,2021-08-01_13h24.39.361,arrow_simon_norep,2021.1.2,MacIntel,60.0024001,,,,,,,,,,,,,,,,,,,,,o,1,1.6175,35,TRUE,FALSE,8,2,34,1,1,,,,,,,
,,,,,,0,1.754237844,#f3af84,,left_orange.png,q,,,,,,w,left_blue.png,left_orange.png,q,right,60fd978c77223cb3d24d6618,001,2021-08-01_13h24.39.361,arrow_simon_norep,2021.1.2,MacIntel,60.0024001,,,,,,,,,,,,,,,,,,,,,q,1,1.7052,36,TRUE,FALSE,8,3,35,3,1,,,,,,,
,,,,,,0,2.281488935,#a3d0fb,,right_blue.png,o,,,,,,o,right_blue.png,right_orange.png,p,left,60fd978c77223cb3d24d6618,001,2021-08-01_13h24.39.361,arrow_simon_norep,2021.1.2,MacIntel,60.0024001,,,,,,,,,,,,,,,,,,,,,o,1,1.7304,37,TRUE,FALSE,9,0,36,0,1,,,,,,,
,,,,,,0,1.733953508,#f3af84,,left_orange.png,q,,,,,,w,left_blue.png,left_orange.png,q,right,60fd978c77223cb3d24d6618,001,2021-08-01_13h24.39.361,arrow_simon_norep,2021.1.2,MacIntel,60.0024001,,,,,,,,,,,,,,,,,,,,,q,1,1.2354,38,FALSE,TRUE,9,1,37,3,1,,,,,,,
,,,,,,0,2.49217373,#a3d0fb,,right_blue.png,o,,,,,,o,right_blue.png,right_orange.png,p,left,60fd978c77223cb3d24d6618,001,2021-08-01_13h24.39.361,arrow_simon_norep,2021.1.2,MacIntel,60.0024001,,,,,,,,,,,,,,,,,,,,,q,0,1.8519,39,TRUE,FALSE,9,2,38,0,1,,,,,,,
,,,,,,0,2.088139374,#f3af84,,left_orange.png,q,,,,,,w,left_blue.png,left_orange.png,q,right,60fd978c77223cb3d24d6618,001,2021-08-01_13h24.39.361,arrow_simon_norep,2021.1.2,MacIntel,60.0024001,,,,,,,,,,,,,,,,,,,,,q,1,1.5857,40,FALSE,FALSE,9,3,39,3,1,,,,,,,
,,,,,,0,2.100733396,#a3d0fb,,right_blue.png,o,,,,,,o,right_blue.png,right_orange.png,p,left,60fd978c77223cb3d24d6618,001,2021-08-01_13h24.39.361,arrow_simon_norep,2021.1.2,MacIntel,60.0024001,,,,,,,,,,,,,,,,,,,,,p,0,1.9114,41,TRUE,FALSE,10,0,40,0,1,,,,,,,
,,,,,,0,1.881574044,#f3af84,,right_orange.png,p,,,,,,o,right_blue.png,right_orange.png,p,right,60fd978c77223cb3d24d6618,001,2021-08-01_13h24.39.361,arrow_simon_norep,2021.1.2,MacIntel,60.0024001,,,,,,,,,,,,,,,,,,,,,p,1,1.7036,42,TRUE,FALSE,10,1,41,1,1,,,,,,,
,,,,,,0,1.91692584,#a3d0fb,,left_blue.png,w,,,,,,w,left_blue.png,left_orange.png,q,left,60fd978c77223cb3d24d6618,001,2021-08-01_13h24.39.361,arrow_simon_norep,2021.1.2,MacIntel,60.0024001,,,,,,,,,,,,,,,,,,,,,w,1,1.7404,43,TRUE,FALSE,10,2,42,2,1,,,,,,,
,,,,,,0,2.15173528,#f3af84,,left_orange.png,q,,,,,,w,left_blue.png,left_orange.png,q,right,60fd978c77223cb3d24d6618,001,2021-08-01_13h24.39.361,arrow_simon_norep,2021.1.2,MacIntel,60.0024001,,,,,,,,,,,,,,,,,,,,,q,1,1.8506,44,TRUE,FALSE,10,3,43,3,1,,,,,,,
,,,,,,0,2.331158792,#a3d0fb,,right_blue.png,o,,,,,,o,right_blue.png,right_orange.png,p,left,60fd978c77223cb3d24d6618,001,2021-08-01_13h24.39.361,arrow_simon_norep,2021.1.2,MacIntel,60.0024001,,,,,,,,,,,,,,,,,,,,,o,1,1.7922,45,TRUE,FALSE,11,0,44,0,1,,,,,,,
,,,,,,0,2.284230893,#f3af84,,left_orange.png,q,,,,,,w,left_blue.png,left_orange.png,q,left,60fd978c77223cb3d24d6618,001,2021-08-01_13h24.39.361,arrow_simon_norep,2021.1.2,MacIntel,60.0024001,,,,,,,,,,,,,,,,,,,,,q,1,1.7683,46,TRUE,FALSE,11,1,45,2,1,,,,,,,
,,,,,,0,2.337753261,#a3d0fb,,left_blue.png,w,,,,,,w,left_blue.png,left_orange.png,q,left,60fd978c77223cb3d24d6618,001,2021-08-01_13h24.39.361,arrow_simon_norep,2021.1.2,MacIntel,60.0024001,,,,,,,,,,,,,,,,,,,,,w,1,1.8397,47,TRUE,FALSE,11,2,46,2,1,,,,,,,
,,,,,,0,1.925191828,#f3af84,,right_orange.png,p,,,,,,o,right_blue.png,right_orange.png,p,left,60fd978c77223cb3d24d6618,001,2021-08-01_13h24.39.361,arrow_simon_norep,2021.1.2,MacIntel,60.0024001,,,,,,,,,,,,,,,,,,,,,p,1,1.4773,48,FALSE,FALSE,11,3,47,0,1,,,,,,,
,,,,,,0,2.213034402,#a3d0fb,,right_blue.png,o,,,,,,o,right_blue.png,right_orange.png,p,left,60fd978c77223cb3d24d6618,001,2021-08-01_13h24.39.361,arrow_simon_norep,2021.1.2,MacIntel,60.0024001,,,,,,,,,,,,,,,,,,,,,o,1,1.5544,49,FALSE,FALSE,12,0,48,0,1,,,,,,,
,,,,,,0,1.772294244,#f3af84,,right_orange.png,p,,,,,,o,right_blue.png,right_orange.png,p,left,60fd978c77223cb3d24d6618,001,2021-08-01_13h24.39.361,arrow_simon_norep,2021.1.2,MacIntel,60.0024001,,,,,,,,,,,,,,,,,,,,,p,1,1.4652,50,FALSE,FALSE,12,1,49,0,1,,,,,,,
,,,,,,0,1.923678078,#a3d0fb,,left_blue.png,w,,,,,,w,left_blue.png,left_orange.png,q,right,60fd978c77223cb3d24d6618,001,2021-08-01_13h24.39.361,arrow_simon_norep,2021.1.2,MacIntel,60.0024001,,,,,,,,,,,,,,,,,,,,,w,1,1.3788,51,FALSE,TRUE,12,2,50,3,1,,,,,,,
,,,,,,0,1.925599311,#f3af84,,left_orange.png,q,,,,,,w,left_blue.png,left_orange.png,q,left,60fd978c77223cb3d24d6618,001,2021-08-01_13h24.39.361,arrow_simon_norep,2021.1.2,MacIntel,60.0024001,,,,,,,,,,,,,,,,,,,,,q,1,1.6103,52,TRUE,FALSE,12,3,51,2,1,,,,,,,
,,,,,,0,2.035392743,#a3d0fb,,left_blue.png,w,,,,,,w,left_blue.png,left_orange.png,q,left,60fd978c77223cb3d24d6618,001,2021-08-01_13h24.39.361,arrow_simon_norep,2021.1.2,MacIntel,60.0024001,,,,,,,,,,,,,,,,,,,,,w,1,1.5145,53,FALSE,FALSE,13,0,52,2,1,,,,,,,
,,,,,,0,2.261135487,#f3af84,,left_orange.png,q,,,,,,w,left_blue.png,left_orange.png,q,left,60fd978c77223cb3d24d6618,001,2021-08-01_13h24.39.361,arrow_simon_norep,2021.1.2,MacIntel,60.0024001,,,,,,,,,,,,,,,,,,,,,q,1,1.619,54,TRUE,FALSE,13,1,53,2,1,,,,,,,
,,,,,,0,1.573898156,#a3d0fb,,left_blue.png,w,,,,,,w,left_blue.png,left_orange.png,q,left,60fd978c77223cb3d24d6618,001,2021-08-01_13h24.39.361,arrow_simon_norep,2021.1.2,MacIntel,60.0024001,,,,,,,,,,,,,,,,,,,,,w,1,1.2501,55,FALSE,TRUE,13,2,54,2,1,,,,,,,
,,,,,,0,2.390328919,#f3af84,,right_orange.png,p,,,,,,o,right_blue.png,right_orange.png,p,right,60fd978c77223cb3d24d6618,001,2021-08-01_13h24.39.361,arrow_simon_norep,2021.1.2,MacIntel,60.0024001,,,,,,,,,,,,,,,,,,,,,p,1,1.8796,56,TRUE,FALSE,13,3,55,1,1,,,,,,,
,,,,,,0,2.039638425,#a3d0fb,,left_blue.png,w,,,,,,w,left_blue.png,left_orange.png,q,left,60fd978c77223cb3d24d6618,001,2021-08-01_13h24.39.361,arrow_simon_norep,2021.1.2,MacIntel,60.0024001,,,,,,,,,,,,,,,,,,,,,w,1,1.5555,57,FALSE,FALSE,14,0,56,2,1,,,,,,,
,,,,,,0,1.837687864,#f3af84,,left_orange.png,q,,,,,,w,left_blue.png,left_orange.png,q,left,60fd978c77223cb3d24d6618,001,2021-08-01_13h24.39.361,arrow_simon_norep,2021.1.2,MacIntel,60.0024001,,,,,,,,,,,,,,,,,,,,,q,1,1.4449,58,FALSE,FALSE,14,1,57,2,1,,,,,,,
,,,,,,0,1.816734112,#a3d0fb,,right_blue.png,o,,,,,,o,right_blue.png,right_orange.png,p,left,60fd978c77223cb3d24d6618,001,2021-08-01_13h24.39.361,arrow_simon_norep,2021.1.2,MacIntel,60.0024001,,,,,,,,,,,,,,,,,,,,,o,1,1.7361,59,TRUE,FALSE,14,2,58,0,1,,,,,,,
,,,,,,0,1.728561994,#f3af84,,left_orange.png,q,,,,,,w,left_blue.png,left_orange.png,q,left,60fd978c77223cb3d24d6618,001,2021-08-01_13h24.39.361,arrow_simon_norep,2021.1.2,MacIntel,60.0024001,,,,,,,,,,,,,,,,,,,,,q,1,1.5093,60,FALSE,FALSE,14,3,59,2,1,,,,,,,
,,,,,,,,,,,,,,,,,,,,,,60fd978c77223cb3d24d6618,001,2021-08-01_13h24.39.361,arrow_simon_norep,2021.1.2,MacIntel,60.0024001,,,,,,,,,,,,,,,,,,,,,,,,,,,,,,,,space,123.9935,1,0,1,0,1
,,,,,,0,2.266868128,#a3d0fb,,right_blue.png,o,,,,,,o,right_blue.png,right_orange.png,p,left,60fd978c77223cb3d24d6618,001,2021-08-01_13h24.39.361,arrow_simon_norep,2021.1.2,MacIntel,60.0024001,,,,,,,,,,,,,,,,,,,,,o,1,1.7421,1,TRUE,FALSE,0,0,0,0,1,,,,,,,
,,,,,,0,2.383813137,#f3af84,,right_orange.png,p,,,,,,o,right_blue.png,right_orange.png,p,right,60fd978c77223cb3d24d6618,001,2021-08-01_13h24.39.361,arrow_simon_norep,2021.1.2,MacIntel,60.0024001,,,,,,,,,,,,,,,,,,,,,p,1,1.7659,2,TRUE,FALSE,0,1,1,1,1,,,,,,,
,,,,,,0,2.381682986,#a3d0fb,,left_blue.png,w,,,,,,w,left_blue.png,left_orange.png,q,left,60fd978c77223cb3d24d6618,001,2021-08-01_13h24.39.361,arrow_simon_norep,2021.1.2,MacIntel,60.0024001,,,,,,,,,,,,,,,,,,,,,w,1,1.6835,3,TRUE,FALSE,0,2,2,2,1,,,,,,,
,,,,,,0,2.244211912,#f3af84,,right_orange.png,p,,,,,,o,right_blue.png,right_orange.png,p,right,60fd978c77223cb3d24d6618,001,2021-08-01_13h24.39.361,arrow_simon_norep,2021.1.2,MacIntel,60.0024001,,,,,,,,,,,,,,,,,,,,,p,1,1.5425,4,FALSE,FALSE,0,3,3,1,1,,,,,,,
,,,,,,0,1.692373882,#a3d0fb,,left_blue.png,w,,,,,,w,left_blue.png,left_orange.png,q,left,60fd978c77223cb3d24d6618,001,2021-08-01_13h24.39.361,arrow_simon_norep,2021.1.2,MacIntel,60.0024001,,,,,,,,,,,,,,,,,,,,,w,1,1.4823,5,FALSE,FALSE,1,0,4,2,1,,,,,,,
,,,,,,0,1.828762333,#f3af84,,left_orange.png,q,,,,,,w,left_blue.png,left_orange.png,q,right,60fd978c77223cb3d24d6618,001,2021-08-01_13h24.39.361,arrow_simon_norep,2021.1.2,MacIntel,60.0024001,,,,,,,,,,,,,,,,,,,,,q,1,1.3617,6,FALSE,TRUE,1,1,5,3,1,,,,,,,
,,,,,,0,2.437615435,#a3d0fb,,left_blue.png,w,,,,,,w,left_blue.png,left_orange.png,q,left,60fd978c77223cb3d24d6618,001,2021-08-01_13h24.39.361,arrow_simon_norep,2021.1.2,MacIntel,60.0024001,,,,,,,,,,,,,,,,,,,,,o,0,1.738,7,TRUE,FALSE,1,2,6,2,1,,,,,,,
,,,,,,0,2.071804855,#f3af84,,right_orange.png,p,,,,,,o,right_blue.png,right_orange.png,p,left,60fd978c77223cb3d24d6618,001,2021-08-01_13h24.39.361,arrow_simon_norep,2021.1.2,MacIntel,60.0024001,,,,,,,,,,,,,,,,,,,,,q,0,1.392,8,FALSE,TRUE,1,3,7,0,1,,,,,,,
,,,,,,1,2.272110461,#a3d0fb,,right_blue.png,o,,,,,,o,right_blue.png,right_orange.png,p,left,60fd978c77223cb3d24d6618,001,2021-08-01_13h24.39.361,arrow_simon_norep,2021.1.2,MacIntel,60.0024001,,,,,,,,,,,,,,,,,,,,,w,0,1.5781,9,FALSE,FALSE,2,0,8,0,1,,,,,,,
,,,,,,1,2.449506285,#f3af84,,left_orange.png,q,,,,,,w,left_blue.png,left_orange.png,q,right,60fd978c77223cb3d24d6618,001,2021-08-01_13h24.39.361,arrow_simon_norep,2021.1.2,MacIntel,60.0024001,,,,,,,,,,,,,,,,,,,,,q,1,1.8701,10,TRUE,FALSE,2,1,9,3,1,,,,,,,
,,,,,,0,1.992789645,#a3d0fb,,right_blue.png,o,,,,,,o,right_blue.png,right_orange.png,p,right,60fd978c77223cb3d24d6618,001,2021-08-01_13h24.39.361,arrow_simon_norep,2021.1.2,MacIntel,60.0024001,,,,,,,,,,,,,,,,,,,,,o,1,1.4375,11,FALSE,FALSE,2,2,10,1,1,,,,,,,
,,,,,,0,1.953581365,#f3af84,,left_orange.png,q,,,,,,w,left_blue.png,left_orange.png,q,left,60fd978c77223cb3d24d6618,001,2021-08-01_13h24.39.361,arrow_simon_norep,2021.1.2,MacIntel,60.0024001,,,,,,,,,,,,,,,,,,,,,q,1,1.2093,12,FALSE,TRUE,2,3,11,2,1,,,,,,,
,,,,,,0,1.973142681,#a3d0fb,,right_blue.png,o,,,,,,o,right_blue.png,right_orange.png,p,left,60fd978c77223cb3d24d6618,001,2021-08-01_13h24.39.361,arrow_simon_norep,2021.1.2,MacIntel,60.0024001,,,,,,,,,,,,,,,,,,,,,o,1,1.421,13,FALSE,FALSE,3,0,12,0,1,,,,,,,
,,,,,,0,1.654586245,#f3af84,,left_orange.png,q,,,,,,w,left_blue.png,left_orange.png,q,right,60fd978c77223cb3d24d6618,001,2021-08-01_13h24.39.361,arrow_simon_norep,2021.1.2,MacIntel,60.0024001,,,,,,,,,,,,,,,,,,,,,q,1,1.1985,14,FALSE,TRUE,3,1,13,3,1,,,,,,,
,,,,,,0,2.327178433,#a3d0fb,,right_blue.png,o,,,,,,o,right_blue.png,right_orange.png,p,right,60fd978c77223cb3d24d6618,001,2021-08-01_13h24.39.361,arrow_simon_norep,2021.1.2,MacIntel,60.0024001,,,,,,,,,,,,,,,,,,,,,o,1,1.669,15,TRUE,FALSE,3,2,14,1,1,,,,,,,
,,,,,,0,1.666943435,#f3af84,,right_orange.png,p,,,,,,o,right_blue.png,right_orange.png,p,left,60fd978c77223cb3d24d6618,001,2021-08-01_13h24.39.361,arrow_simon_norep,2021.1.2,MacIntel,60.0024001,,,,,,,,,,,,,,,,,,,,,p,1,1.5746,16,FALSE,FALSE,3,3,15,0,1,,,,,,,
,,,,,,0,1.592290591,#a3d0fb,,left_blue.png,w,,,,,,w,left_blue.png,left_orange.png,q,right,60fd978c77223cb3d24d6618,001,2021-08-01_13h24.39.361,arrow_simon_norep,2021.1.2,MacIntel,60.0024001,,,,,,,,,,,,,,,,,,,,,w,1,1.3279,17,FALSE,TRUE,4,0,16,3,1,,,,,,,
,,,,,,0,2.213143584,#f3af84,,right_orange.png,p,,,,,,o,right_blue.png,right_orange.png,p,right,60fd978c77223cb3d24d6618,001,2021-08-01_13h24.39.361,arrow_simon_norep,2021.1.2,MacIntel,60.0024001,,,,,,,,,,,,,,,,,,,,,p,1,1.8427,18,TRUE,FALSE,4,1,17,1,1,,,,,,,
,,,,,,0,1.622281512,#a3d0fb,,right_blue.png,o,,,,,,o,right_blue.png,right_orange.png,p,right,60fd978c77223cb3d24d6618,001,2021-08-01_13h24.39.361,arrow_simon_norep,2021.1.2,MacIntel,60.0024001,,,,,,,,,,,,,,,,,,,,,o,1,1.7928,19,TRUE,FALSE,4,2,18,1,1,,,,,,,
,,,,,,0,2.034174737,#f3af84,,right_orange.png,p,,,,,,o,right_blue.png,right_orange.png,p,right,60fd978c77223cb3d24d6618,001,2021-08-01_13h24.39.361,arrow_simon_norep,2021.1.2,MacIntel,60.0024001,,,,,,,,,,,,,,,,,,,,,p,1,1.6763,20,TRUE,FALSE,4,3,19,1,1,,,,,,,
,,,,,,0,2.134530231,#a3d0fb,,left_blue.png,w,,,,,,w,left_blue.png,left_orange.png,q,left,60fd978c77223cb3d24d6618,001,2021-08-01_13h24.39.361,arrow_simon_norep,2021.1.2,MacIntel,60.0024001,,,,,,,,,,,,,,,,,,,,,w,1,1.4683,21,FALSE,FALSE,5,0,20,2,1,,,,,,,
,,,,,,0,1.732236368,#f3af84,,left_orange.png,q,,,,,,w,left_blue.png,left_orange.png,q,left,60fd978c77223cb3d24d6618,001,2021-08-01_13h24.39.361,arrow_simon_norep,2021.1.2,MacIntel,60.0024001,,,,,,,,,,,,,,,,,,,,,q,1,1.3225,22,FALSE,TRUE,5,1,21,2,1,,,,,,,
,,,,,,0,1.555481432,#a3d0fb,,right_blue.png,o,,,,,,o,right_blue.png,right_orange.png,p,left,60fd978c77223cb3d24d6618,001,2021-08-01_13h24.39.361,arrow_simon_norep,2021.1.2,MacIntel,60.0024001,,,,,,,,,,,,,,,,,,,,,o,1,1.633,23,TRUE,FALSE,5,2,22,0,1,,,,,,,
,,,,,,0,2.402925932,#f3af84,,right_orange.png,p,,,,,,o,right_blue.png,right_orange.png,p,left,60fd978c77223cb3d24d6618,001,2021-08-01_13h24.39.361,arrow_simon_norep,2021.1.2,MacIntel,60.0024001,,,,,,,,,,,,,,,,,,,,,p,1,1.9738,24,TRUE,FALSE,5,3,23,0,1,,,,,,,
,,,,,,0,1.769315563,#a3d0fb,,left_blue.png,w,,,,,,w,left_blue.png,left_orange.png,q,right,60fd978c77223cb3d24d6618,001,2021-08-01_13h24.39.361,arrow_simon_norep,2021.1.2,MacIntel,60.0024001,,,,,,,,,,,,,,,,,,,,,w,1,1.4967,25,FALSE,FALSE,6,0,24,3,1,,,,,,,
,,,,,,0,2.337744005,#f3af84,,left_orange.png,q,,,,,,w,left_blue.png,left_orange.png,q,right,60fd978c77223cb3d24d6618,001,2021-08-01_13h24.39.361,arrow_simon_norep,2021.1.2,MacIntel,60.0024001,,,,,,,,,,,,,,,,,,,,,q,1,1.9756,26,TRUE,FALSE,6,1,25,3,1,,,,,,,
,,,,,,0,2.377369057,#a3d0fb,,right_blue.png,o,,,,,,o,right_blue.png,right_orange.png,p,left,60fd978c77223cb3d24d6618,001,2021-08-01_13h24.39.361,arrow_simon_norep,2021.1.2,MacIntel,60.0024001,,,,,,,,,,,,,,,,,,,,,o,1,1.7557,27,TRUE,FALSE,6,2,26,0,1,,,,,,,
,,,,,,0,2.418694774,#f3af84,,left_orange.png,q,,,,,,w,left_blue.png,left_orange.png,q,left,60fd978c77223cb3d24d6618,001,2021-08-01_13h24.39.361,arrow_simon_norep,2021.1.2,MacIntel,60.0024001,,,,,,,,,,,,,,,,,,,,,p,0,1.7996,28,TRUE,FALSE,6,3,27,2,1,,,,,,,
,,,,,,0,1.679523602,#a3d0fb,,right_blue.png,o,,,,,,o,right_blue.png,right_orange.png,p,left,60fd978c77223cb3d24d6618,001,2021-08-01_13h24.39.361,arrow_simon_norep,2021.1.2,MacIntel,60.0024001,,,,,,,,,,,,,,,,,,,,,o,1,1.533,29,FALSE,FALSE,7,0,28,0,1,,,,,,,
,,,,,,0,1.646346726,#f3af84,,left_orange.png,q,,,,,,w,left_blue.png,left_orange.png,q,right,60fd978c77223cb3d24d6618,001,2021-08-01_13h24.39.361,arrow_simon_norep,2021.1.2,MacIntel,60.0024001,,,,,,,,,,,,,,,,,,,,,q,1,1.3013,30,FALSE,TRUE,7,1,29,3,1,,,,,,,
,,,,,,0,2.054129055,#a3d0fb,,right_blue.png,o,,,,,,o,right_blue.png,right_orange.png,p,left,60fd978c77223cb3d24d6618,001,2021-08-01_13h24.39.361,arrow_simon_norep,2021.1.2,MacIntel,60.0024001,,,,,,,,,,,,,,,,,,,,,o,1,1.5069,31,FALSE,FALSE,7,2,30,0,1,,,,,,,
,,,,,,0,1.566874171,#f3af84,,right_orange.png,p,,,,,,o,right_blue.png,right_orange.png,p,left,60fd978c77223cb3d24d6618,001,2021-08-01_13h24.39.361,arrow_simon_norep,2021.1.2,MacIntel,60.0024001,,,,,,,,,,,,,,,,,,,,,p,1,1.9163,32,TRUE,FALSE,7,3,31,0,1,,,,,,,
,,,,,,0,1.515508463,#a3d0fb,,left_blue.png,w,,,,,,w,left_blue.png,left_orange.png,q,left,60fd978c77223cb3d24d6618,001,2021-08-01_13h24.39.361,arrow_simon_norep,2021.1.2,MacIntel,60.0024001,,,,,,,,,,,,,,,,,,,,,w,1,1.3262,33,FALSE,TRUE,8,0,32,2,1,,,,,,,
,,,,,,0,2.418063632,#f3af84,,right_orange.png,p,,,,,,o,right_blue.png,right_orange.png,p,right,60fd978c77223cb3d24d6618,001,2021-08-01_13h24.39.361,arrow_simon_norep,2021.1.2,MacIntel,60.0024001,,,,,,,,,,,,,,,,,,,,,p,1,1.7857,34,TRUE,FALSE,8,1,33,1,1,,,,,,,
,,,,,,0,1.867335793,#a3d0fb,,left_blue.png,w,,,,,,w,left_blue.png,left_orange.png,q,right,60fd978c77223cb3d24d6618,001,2021-08-01_13h24.39.361,arrow_simon_norep,2021.1.2,MacIntel,60.0024001,,,,,,,,,,,,,,,,,,,,,w,1,1.3844,35,FALSE,TRUE,8,2,34,3,1,,,,,,,
,,,,,,0,2.206789385,#f3af84,,right_orange.png,p,,,,,,o,right_blue.png,right_orange.png,p,right,60fd978c77223cb3d24d6618,001,2021-08-01_13h24.39.361,arrow_simon_norep,2021.1.2,MacIntel,60.0024001,,,,,,,,,,,,,,,,,,,,,p,1,1.624,36,TRUE,FALSE,8,3,35,1,1,,,,,,,
,,,,,,0,2.480859241,#a3d0fb,,left_blue.png,w,,,,,,w,left_blue.png,left_orange.png,q,right,60fd978c77223cb3d24d6618,001,2021-08-01_13h24.39.361,arrow_simon_norep,2021.1.2,MacIntel,60.0024001,,,,,,,,,,,,,,,,,,,,,w,1,1.4454,37,FALSE,FALSE,9,0,36,3,1,,,,,,,
,,,,,,0,2.004278666,#f3af84,,left_orange.png,q,,,,,,w,left_blue.png,left_orange.png,q,left,60fd978c77223cb3d24d6618,001,2021-08-01_13h24.39.361,arrow_simon_norep,2021.1.2,MacIntel,60.0024001,,,,,,,,,,,,,,,,,,,,,q,1,1.6484,38,TRUE,FALSE,9,1,37,2,1,,,,,,,
,,,,,,0,1.833454986,#a3d0fb,,right_blue.png,o,,,,,,o,right_blue.png,right_orange.png,p,right,60fd978c77223cb3d24d6618,001,2021-08-01_13h24.39.361,arrow_simon_norep,2021.1.2,MacIntel,60.0024001,,,,,,,,,,,,,,,,,,,,,p,0,1.3167,39,FALSE,TRUE,9,2,38,1,1,,,,,,,
,,,,,,1,2.152072479,#f3af84,,right_orange.png,p,,,,,,o,right_blue.png,right_orange.png,p,right,60fd978c77223cb3d24d6618,001,2021-08-01_13h24.39.361,arrow_simon_norep,2021.1.2,MacIntel,60.0024001,,,,,,,,,,,,,,,,,,,,,o,0,1.5082,40,FALSE,FALSE,9,3,39,1,1,,,,,,,
,,,,,,1,1.69420852,#a3d0fb,,left_blue.png,w,,,,,,w,left_blue.png,left_orange.png,q,left,60fd978c77223cb3d24d6618,001,2021-08-01_13h24.39.361,arrow_simon_norep,2021.1.2,MacIntel,60.0024001,,,,,,,,,,,,,,,,,,,,,w,1,1.6801,41,TRUE,FALSE,10,0,40,2,1,,,,,,,
,,,,,,0,1.861517648,#f3af84,,right_orange.png,p,,,,,,o,right_blue.png,right_orange.png,p,right,60fd978c77223cb3d24d6618,001,2021-08-01_13h24.39.361,arrow_simon_norep,2021.1.2,MacIntel,60.0024001,,,,,,,,,,,,,,,,,,,,,p,1,1.4277,42,FALSE,FALSE,10,1,41,1,1,,,,,,,
,,,,,,0,1.719375951,#a3d0fb,,right_blue.png,o,,,,,,o,right_blue.png,right_orange.png,p,left,60fd978c77223cb3d24d6618,001,2021-08-01_13h24.39.361,arrow_simon_norep,2021.1.2,MacIntel,60.0024001,,,,,,,,,,,,,,,,,,,,,w,0,1.6503,43,TRUE,FALSE,10,2,42,0,1,,,,,,,
,,,,,,1,2.215205736,#f3af84,,left_orange.png,q,,,,,,w,left_blue.png,left_orange.png,q,right,60fd978c77223cb3d24d6618,001,2021-08-01_13h24.39.361,arrow_simon_norep,2021.1.2,MacIntel,60.0024001,,,,,,,,,,,,,,,,,,,,,p,0,1.5986,44,FALSE,FALSE,10,3,43,3,1,,,,,,,
,,,,,,1,1.603180635,#a3d0fb,,right_blue.png,o,,,,,,o,right_blue.png,right_orange.png,p,left,60fd978c77223cb3d24d6618,001,2021-08-01_13h24.39.361,arrow_simon_norep,2021.1.2,MacIntel,60.0024001,,,,,,,,,,,,,,,,,,,,,o,1,1.0364,45,FALSE,TRUE,11,0,44,0,1,,,,,,,
,,,,,,1,2.014229722,#f3af84,,left_orange.png,q,,,,,,w,left_blue.png,left_orange.png,q,right,60fd978c77223cb3d24d6618,001,2021-08-01_13h24.39.361,arrow_simon_norep,2021.1.2,MacIntel,60.0024001,,,,,,,,,,,,,,,,,,,,,q,1,1.8315,46,TRUE,FALSE,11,1,45,3,1,,,,,,,
,,,,,,1,1.680360724,#a3d0fb,,left_blue.png,w,,,,,,w,left_blue.png,left_orange.png,q,right,60fd978c77223cb3d24d6618,001,2021-08-01_13h24.39.361,arrow_simon_norep,2021.1.2,MacIntel,60.0024001,,,,,,,,,,,,,,,,,,,,,w,1,1.2683,47,FALSE,TRUE,11,2,46,3,1,,,,,,,
,,,,,,1,2.266873689,#f3af84,,left_orange.png,q,,,,,,w,left_blue.png,left_orange.png,q,right,60fd978c77223cb3d24d6618,001,2021-08-01_13h24.39.361,arrow_simon_norep,2021.1.2,MacIntel,60.0024001,,,,,,,,,,,,,,,,,,,,,w,0,1.8914,48,TRUE,FALSE,11,3,47,3,1,,,,,,,
,,,,,,1,1.851685962,#a3d0fb,,left_blue.png,w,,,,,,w,left_blue.png,left_orange.png,q,left,60fd978c77223cb3d24d6618,001,2021-08-01_13h24.39.361,arrow_simon_norep,2021.1.2,MacIntel,60.0024001,,,,,,,,,,,,,,,,,,,,,w,1,1.7751,49,TRUE,FALSE,12,0,48,2,1,,,,,,,
,,,,,,1,1.529772036,#f3af84,,right_orange.png,p,,,,,,o,right_blue.png,right_orange.png,p,right,60fd978c77223cb3d24d6618,001,2021-08-01_13h24.39.361,arrow_simon_norep,2021.1.2,MacIntel,60.0024001,,,,,,,,,,,,,,,,,,,,,p,1,1.1121,50,FALSE,TRUE,12,1,49,1,1,,,,,,,
,,,,,,1,1.805418971,#a3d0fb,,right_blue.png,o,,,,,,o,right_blue.png,right_orange.png,p,right,60fd978c77223cb3d24d6618,001,2021-08-01_13h24.39.361,arrow_simon_norep,2021.1.2,MacIntel,60.0024001,,,,,,,,,,,,,,,,,,,,,o,1,1.6662,51,TRUE,FALSE,12,2,50,1,1,,,,,,,
,,,,,,1,2.141798738,#f3af84,,left_orange.png,q,,,,,,w,left_blue.png,left_orange.png,q,left,60fd978c77223cb3d24d6618,001,2021-08-01_13h24.39.361,arrow_simon_norep,2021.1.2,MacIntel,60.0024001,,,,,,,,,,,,,,,,,,,,,q,1,1.8429,52,TRUE,FALSE,12,3,51,2,1,,,,,,,
,,,,,,0,2.111860076,#a3d0fb,,left_blue.png,w,,,,,,w,left_blue.png,left_orange.png,q,left,60fd978c77223cb3d24d6618,001,2021-08-01_13h24.39.361,arrow_simon_norep,2021.1.2,MacIntel,60.0024001,,,,,,,,,,,,,,,,,,,,,w,1,1.4743,53,FALSE,FALSE,13,0,52,2,1,,,,,,,
,,,,,,0,2.012168916,#f3af84,,left_orange.png,q,,,,,,w,left_blue.png,left_orange.png,q,left,60fd978c77223cb3d24d6618,001,2021-08-01_13h24.39.361,arrow_simon_norep,2021.1.2,MacIntel,60.0024001,,,,,,,,,,,,,,,,,,,,,w,0,1.3952,54,FALSE,TRUE,13,1,53,2,1,,,,,,,
,,,,,,1,1.91588052,#a3d0fb,,left_blue.png,w,,,,,,w,left_blue.png,left_orange.png,q,left,60fd978c77223cb3d24d6618,001,2021-08-01_13h24.39.361,arrow_simon_norep,2021.1.2,MacIntel,60.0024001,,,,,,,,,,,,,,,,,,,,,q,0,1.4643,55,FALSE,FALSE,13,2,54,2,1,,,,,,,
,,,,,,0,2.099635967,#f3af84,,left_orange.png,q,,,,,,w,left_blue.png,left_orange.png,q,right,60fd978c77223cb3d24d6618,001,2021-08-01_13h24.39.361,arrow_simon_norep,2021.1.2,MacIntel,60.0024001,,,,,,,,,,,,,,,,,,,,,q,1,1.5683,56,FALSE,FALSE,13,3,55,3,1,,,,,,,
,,,,,,0,1.635381305,#a3d0fb,,right_blue.png,o,,,,,,o,right_blue.png,right_orange.png,p,right,60fd978c77223cb3d24d6618,001,2021-08-01_13h24.39.361,arrow_simon_norep,2021.1.2,MacIntel,60.0024001,,,,,,,,,,,,,,,,,,,,,o,1,1.6706,57,TRUE,FALSE,14,0,56,1,1,,,,,,,
,,,,,,0,1.984898199,#f3af84,,left_orange.png,q,,,,,,w,left_blue.png,left_orange.png,q,right,60fd978c77223cb3d24d6618,001,2021-08-01_13h24.39.361,arrow_simon_norep,2021.1.2,MacIntel,60.0024001,,,,,,,,,,,,,,,,,,,,,q,1,1.6063,58,TRUE,FALSE,14,1,57,3,1,,,,,,,
,,,,,,0,1.516782987,#a3d0fb,,right_blue.png,o,,,,,,o,right_blue.png,right_orange.png,p,left,60fd978c77223cb3d24d6618,001,2021-08-01_13h24.39.361,arrow_simon_norep,2021.1.2,MacIntel,60.0024001,,,,,,,,,,,,,,,,,,,,,o,1,1.0305,59,FALSE,TRUE,14,2,58,0,1,,,,,,,
,,,,,,0,2.301020936,#f3af84,,right_orange.png,p,,,,,,o,right_blue.png,right_orange.png,p,left,60fd978c77223cb3d24d6618,001,2021-08-01_13h24.39.361,arrow_simon_norep,2021.1.2,MacIntel,60.0024001,,,,,,,,,,,,,,,,,,,,,q,0,1.6414,60,TRUE,FALSE,14,3,59,0,1,,,,,,,
,,,,,,,,,,,,,,,,,,,,,,60fd978c77223cb3d24d6618,001,2021-08-01_13h24.39.361,arrow_simon_norep,2021.1.2,MacIntel,60.0024001,,,,,,,,,,,,,,,,,,,,,,,,,,,,,,,,space,95.975,2,0,2,0,1
,,,,,,0,1.565220433,#a3d0fb,,right_blue.png,o,,,,,,o,right_blue.png,right_orange.png,p,right,60fd978c77223cb3d24d6618,001,2021-08-01_13h24.39.361,arrow_simon_norep,2021.1.2,MacIntel,60.0024001,,,,,,,,,,,,,,,,,,,,,o,1,1.7217,1,TRUE,FALSE,0,0,0,1,1,,,,,,,
,,,,,,0,1.901110807,#f3af84,,right_orange.png,p,,,,,,o,right_blue.png,right_orange.png,p,left,60fd978c77223cb3d24d6618,001,2021-08-01_13h24.39.361,arrow_simon_norep,2021.1.2,MacIntel,60.0024001,,,,,,,,,,,,,,,,,,,,,p,1,1.8402,2,TRUE,FALSE,0,1,1,0,1,,,,,,,
,,,,,,0,2.411590889,#a3d0fb,,left_blue.png,w,,,,,,w,left_blue.png,left_orange.png,q,right,60fd978c77223cb3d24d6618,001,2021-08-01_13h24.39.361,arrow_simon_norep,2021.1.2,MacIntel,60.0024001,,,,,,,,,,,,,,,,,,,,,w,1,1.8283,3,TRUE,FALSE,0,2,2,3,1,,,,,,,
,,,,,,0,2.19447778,#f3af84,,left_orange.png,q,,,,,,w,left_blue.png,left_orange.png,q,right,60fd978c77223cb3d24d6618,001,2021-08-01_13h24.39.361,arrow_simon_norep,2021.1.2,MacIntel,60.0024001,,,,,,,,,,,,,,,,,,,,,q,1,1.6586,4,TRUE,FALSE,0,3,3,3,1,,,,,,,
,,,,,,0,2.106378713,#a3d0fb,,left_blue.png,w,,,,,,w,left_blue.png,left_orange.png,q,right,60fd978c77223cb3d24d6618,001,2021-08-01_13h24.39.361,arrow_simon_norep,2021.1.2,MacIntel,60.0024001,,,,,,,,,,,,,,,,,,,,,w,1,1.5091,5,FALSE,FALSE,1,0,4,3,1,,,,,,,
,,,,,,0,1.891064935,#f3af84,,right_orange.png,p,,,,,,o,right_blue.png,right_orange.png,p,left,60fd978c77223cb3d24d6618,001,2021-08-01_13h24.39.361,arrow_simon_norep,2021.1.2,MacIntel,60.0024001,,,,,,,,,,,,,,,,,,,,,p,1,1.5046,6,FALSE,FALSE,1,1,5,0,1,,,,,,,
,,,,,,0,1.561035928,#a3d0fb,,right_blue.png,o,,,,,,o,right_blue.png,right_orange.png,p,right,60fd978c77223cb3d24d6618,001,2021-08-01_13h24.39.361,arrow_simon_norep,2021.1.2,MacIntel,60.0024001,,,,,,,,,,,,,,,,,,,,,o,1,1.4648,7,FALSE,FALSE,1,2,6,1,1,,,,,,,
,,,,,,0,2.478967272,#f3af84,,right_orange.png,p,,,,,,o,right_blue.png,right_orange.png,p,right,60fd978c77223cb3d24d6618,001,2021-08-01_13h24.39.361,arrow_simon_norep,2021.1.2,MacIntel,60.0024001,,,,,,,,,,,,,,,,,,,,,p,1,1.8002,8,TRUE,FALSE,1,3,7,1,1,,,,,,,
,,,,,,0,1.881000773,#a3d0fb,,left_blue.png,w,,,,,,w,left_blue.png,left_orange.png,q,right,60fd978c77223cb3d24d6618,001,2021-08-01_13h24.39.361,arrow_simon_norep,2021.1.2,MacIntel,60.0024001,,,,,,,,,,,,,,,,,,,,,w,1,1.3877,9,FALSE,TRUE,2,0,8,3,1,,,,,,,
,,,,,,0,1.660785126,#f3af84,,right_orange.png,p,,,,,,o,right_blue.png,right_orange.png,p,right,60fd978c77223cb3d24d6618,001,2021-08-01_13h24.39.361,arrow_simon_norep,2021.1.2,MacIntel,60.0024001,,,,,,,,,,,,,,,,,,,,,p,1,1.0354,10,FALSE,TRUE,2,1,9,1,1,,,,,,,
,,,,,,0,1.607779603,#a3d0fb,,right_blue.png,o,,,,,,o,right_blue.png,right_orange.png,p,left,60fd978c77223cb3d24d6618,001,2021-08-01_13h24.39.361,arrow_simon_norep,2021.1.2,MacIntel,60.0024001,,,,,,,,,,,,,,,,,,,,,o,1,1.274,11,FALSE,TRUE,2,2,10,0,1,,,,,,,
,,,,,,0,2.420523962,#f3af84,,right_orange.png,p,,,,,,o,right_blue.png,right_orange.png,p,left,60fd978c77223cb3d24d6618,001,2021-08-01_13h24.39.361,arrow_simon_norep,2021.1.2,MacIntel,60.0024001,,,,,,,,,,,,,,,,,,,,,p,1,1.9412,12,TRUE,FALSE,2,3,11,0,1,,,,,,,
,,,,,,0,1.828155243,#a3d0fb,,left_blue.png,w,,,,,,w,left_blue.png,left_orange.png,q,left,60fd978c77223cb3d24d6618,001,2021-08-01_13h24.39.361,arrow_simon_norep,2021.1.2,MacIntel,60.0024001,,,,,,,,,,,,,,,,,,,,,w,1,1.303,13,FALSE,TRUE,3,0,12,2,1,,,,,,,
,,,,,,0,2.096359923,#f3af84,,left_orange.png,q,,,,,,w,left_blue.png,left_orange.png,q,left,60fd978c77223cb3d24d6618,001,2021-08-01_13h24.39.361,arrow_simon_norep,2021.1.2,MacIntel,60.0024001,,,,,,,,,,,,,,,,,,,,,q,1,1.601,14,TRUE,FALSE,3,1,13,2,1,,,,,,,
,,,,,,0,1.56077227,#a3d0fb,,right_blue.png,o,,,,,,o,right_blue.png,right_orange.png,p,left,60fd978c77223cb3d24d6618,001,2021-08-01_13h24.39.361,arrow_simon_norep,2021.1.2,MacIntel,60.0024001,,,,,,,,,,,,,,,,,,,,,o,1,2.0538,15,TRUE,FALSE,3,2,14,0,1,,,,,,,
,,,,,,0,2.381838241,#f3af84,,right_orange.png,p,,,,,,o,right_blue.png,right_orange.png,p,left,60fd978c77223cb3d24d6618,001,2021-08-01_13h24.39.361,arrow_simon_norep,2021.1.2,MacIntel,60.0024001,,,,,,,,,,,,,,,,,,,,,p,1,1.7938,16,TRUE,FALSE,3,3,15,0,1,,,,,,,
,,,,,,0,1.830603712,#a3d0fb,,left_blue.png,w,,,,,,w,left_blue.png,left_orange.png,q,left,60fd978c77223cb3d24d6618,001,2021-08-01_13h24.39.361,arrow_simon_norep,2021.1.2,MacIntel,60.0024001,,,,,,,,,,,,,,,,,,,,,w,1,1.1998,17,FALSE,TRUE,4,0,16,2,1,,,,,,,
,,,,,,0,1.50913441,#f3af84,,right_orange.png,p,,,,,,o,right_blue.png,right_orange.png,p,left,60fd978c77223cb3d24d6618,001,2021-08-01_13h24.39.361,arrow_simon_norep,2021.1.2,MacIntel,60.0024001,,,,,,,,,,,,,,,,,,,,,p,1,1.3874,18,FALSE,TRUE,4,1,17,0,1,,,,,,,
,,,,,,0,1.53820197,#a3d0fb,,right_blue.png,o,,,,,,o,right_blue.png,right_orange.png,p,right,60fd978c77223cb3d24d6618,001,2021-08-01_13h24.39.361,arrow_simon_norep,2021.1.2,MacIntel,60.0024001,,,,,,,,,,,,,,,,,,,,,o,1,1.6805,19,TRUE,FALSE,4,2,18,1,1,,,,,,,
,,,,,,0,2.455010316,#f3af84,,left_orange.png,q,,,,,,w,left_blue.png,left_orange.png,q,left,60fd978c77223cb3d24d6618,001,2021-08-01_13h24.39.361,arrow_simon_norep,2021.1.2,MacIntel,60.0024001,,,,,,,,,,,,,,,,,,,,,q,1,1.7837,20,TRUE,FALSE,4,3,19,2,1,,,,,,,
,,,,,,0,1.949579963,#a3d0fb,,right_blue.png,o,,,,,,o,right_blue.png,right_orange.png,p,left,60fd978c77223cb3d24d6618,001,2021-08-01_13h24.39.361,arrow_simon_norep,2021.1.2,MacIntel,60.0024001,,,,,,,,,,,,,,,,,,,,,o,1,1.7638,21,TRUE,FALSE,5,0,20,0,1,,,,,,,
,,,,,,0,1.610253372,#f3af84,,left_orange.png,q,,,,,,w,left_blue.png,left_orange.png,q,left,60fd978c77223cb3d24d6618,001,2021-08-01_13h24.39.361,arrow_simon_norep,2021.1.2,MacIntel,60.0024001,,,,,,,,,,,,,,,,,,,,,q,1,1.7822,22,TRUE,FALSE,5,1,21,2,1,,,,,,,
,,,,,,0,1.701026497,#a3d0fb,,right_blue.png,o,,,,,,o,right_blue.png,right_orange.png,p,right,60fd978c77223cb3d24d6618,001,2021-08-01_13h24.39.361,arrow_simon_norep,2021.1.2,MacIntel,60.0024001,,,,,,,,,,,,,,,,,,,,,o,1,1.0672,23,FALSE,TRUE,5,2,22,1,1,,,,,,,
,,,,,,0,2.409571171,#f3af84,,right_orange.png,p,,,,,,o,right_blue.png,right_orange.png,p,left,60fd978c77223cb3d24d6618,001,2021-08-01_13h24.39.361,arrow_simon_norep,2021.1.2,MacIntel,60.0024001,,,,,,,,,,,,,,,,,,,,,q,0,1.7875,24,TRUE,FALSE,5,3,23,0,1,,,,,,,
,,,,,,0,1.899208265,#a3d0fb,,left_blue.png,w,,,,,,w,left_blue.png,left_orange.png,q,right,60fd978c77223cb3d24d6618,001,2021-08-01_13h24.39.361,arrow_simon_norep,2021.1.2,MacIntel,60.0024001,,,,,,,,,,,,,,,,,,,,,o,0,1.2286,25,FALSE,TRUE,6,0,24,3,1,,,,,,,
,,,,,,0,1.767744548,#f3af84,,left_orange.png,q,,,,,,w,left_blue.png,left_orange.png,q,left,60fd978c77223cb3d24d6618,001,2021-08-01_13h24.39.361,arrow_simon_norep,2021.1.2,MacIntel,60.0024001,,,,,,,,,,,,,,,,,,,,,q,1,1.1326,26,FALSE,TRUE,6,1,25,2,1,,,,,,,
,,,,,,0,1.800755743,#a3d0fb,,left_blue.png,w,,,,,,w,left_blue.png,left_orange.png,q,left,60fd978c77223cb3d24d6618,001,2021-08-01_13h24.39.361,arrow_simon_norep,2021.1.2,MacIntel,60.0024001,,,,,,,,,,,,,,,,,,,,,w,1,1.5611,27,FALSE,FALSE,6,2,26,2,1,,,,,,,
,,,,,,0,2.369021676,#f3af84,,right_orange.png,p,,,,,,o,right_blue.png,right_orange.png,p,left,60fd978c77223cb3d24d6618,001,2021-08-01_13h24.39.361,arrow_simon_norep,2021.1.2,MacIntel,60.0024001,,,,,,,,,,,,,,,,,,,,,p,1,1.6897,28,TRUE,FALSE,6,3,27,0,1,,,,,,,
,,,,,,0,1.982672736,#a3d0fb,,left_blue.png,w,,,,,,w,left_blue.png,left_orange.png,q,left,60fd978c77223cb3d24d6618,001,2021-08-01_13h24.39.361,arrow_simon_norep,2021.1.2,MacIntel,60.0024001,,,,,,,,,,,,,,,,,,,,,w,1,1.3835,29,FALSE,TRUE,7,0,28,2,1,,,,,,,
,,,,,,0,1.815929496,#f3af84,,right_orange.png,p,,,,,,o,right_blue.png,right_orange.png,p,right,60fd978c77223cb3d24d6618,001,2021-08-01_13h24.39.361,arrow_simon_norep,2021.1.2,MacIntel,60.0024001,,,,,,,,,,,,,,,,,,,,,p,1,1.6332,30,TRUE,FALSE,7,1,29,1,1,,,,,,,
,,,,,,0,2.015139826,#a3d0fb,,left_blue.png,w,,,,,,w,left_blue.png,left_orange.png,q,left,60fd978c77223cb3d24d6618,001,2021-08-01_13h24.39.361,arrow_simon_norep,2021.1.2,MacIntel,60.0024001,,,,,,,,,,,,,,,,,,,,,w,1,1.5255,31,FALSE,FALSE,7,2,30,2,1,,,,,,,
,,,,,,0,1.870568031,#f3af84,,right_orange.png,p,,,,,,o,right_blue.png,right_orange.png,p,right,60fd978c77223cb3d24d6618,001,2021-08-01_13h24.39.361,arrow_simon_norep,2021.1.2,MacIntel,60.0024001,,,,,,,,,,,,,,,,,,,,,p,1,1.5207,32,FALSE,FALSE,7,3,31,1,1,,,,,,,
,,,,,,0,2.258401046,#a3d0fb,,left_blue.png,w,,,,,,w,left_blue.png,left_orange.png,q,right,60fd978c77223cb3d24d6618,001,2021-08-01_13h24.39.361,arrow_simon_norep,2021.1.2,MacIntel,60.0024001,,,,,,,,,,,,,,,,,,,,,w,1,1.7551,33,TRUE,FALSE,8,0,32,3,1,,,,,,,
,,,,,,0,1.623447091,#f3af84,,right_orange.png,p,,,,,,o,right_blue.png,right_orange.png,p,left,60fd978c77223cb3d24d6618,001,2021-08-01_13h24.39.361,arrow_simon_norep,2021.1.2,MacIntel,60.0024001,,,,,,,,,,,,,,,,,,,,,p,1,1.7808,34,TRUE,FALSE,8,1,33,0,1,,,,,,,
,,,,,,0,1.653934038,#a3d0fb,,right_blue.png,o,,,,,,o,right_blue.png,right_orange.png,p,right,60fd978c77223cb3d24d6618,001,2021-08-01_13h24.39.361,arrow_simon_norep,2021.1.2,MacIntel,60.0024001,,,,,,,,,,,,,,,,,,,,,o,1,1.5824,35,FALSE,FALSE,8,2,34,1,1,,,,,,,
,,,,,,0,2.466016155,#f3af84,,right_orange.png,p,,,,,,o,right_blue.png,right_orange.png,p,left,60fd978c77223cb3d24d6618,001,2021-08-01_13h24.39.361,arrow_simon_norep,2021.1.2,MacIntel,60.0024001,,,,,,,,,,,,,,,,,,,,,q,0,1.7035,36,TRUE,FALSE,8,3,35,0,1,,,,,,,
,,,,,,1,1.869223378,#a3d0fb,,left_blue.png,w,,,,,,w,left_blue.png,left_orange.png,q,right,60fd978c77223cb3d24d6618,001,2021-08-01_13h24.39.361,arrow_simon_norep,2021.1.2,MacIntel,60.0024001,,,,,,,,,,,,,,,,,,,,,q,0,1.5612,37,FALSE,FALSE,9,0,36,3,1,,,,,,,
,,,,,,0,1.786380358,#f3af84,,right_orange.png,p,,,,,,o,right_blue.png,right_orange.png,p,right,60fd978c77223cb3d24d6618,001,2021-08-01_13h24.39.361,arrow_simon_norep,2021.1.2,MacIntel,60.0024001,,,,,,,,,,,,,,,,,,,,,p,1,1.5903,38,FALSE,FALSE,9,1,37,1,1,,,,,,,
,,,,,,0,1.934296671,#a3d0fb,,left_blue.png,w,,,,,,w,left_blue.png,left_orange.png,q,left,60fd978c77223cb3d24d6618,001,2021-08-01_13h24.39.361,arrow_simon_norep,2021.1.2,MacIntel,60.0024001,,,,,,,,,,,,,,,,,,,,,w,1,1.5182,39,FALSE,FALSE,9,2,38,2,1,,,,,,,
,,,,,,0,1.552850964,#f3af84,,right_orange.png,p,,,,,,o,right_blue.png,right_orange.png,p,right,60fd978c77223cb3d24d6618,001,2021-08-01_13h24.39.361,arrow_simon_norep,2021.1.2,MacIntel,60.0024001,,,,,,,,,,,,,,,,,,,,,p,1,1.342,40,FALSE,TRUE,9,3,39,1,1,,,,,,,
,,,,,,0,2.222852842,#a3d0fb,,left_blue.png,w,,,,,,w,left_blue.png,left_orange.png,q,right,60fd978c77223cb3d24d6618,001,2021-08-01_13h24.39.361,arrow_simon_norep,2021.1.2,MacIntel,60.0024001,,,,,,,,,,,,,,,,,,,,,w,1,1.6201,41,TRUE,FALSE,10,0,40,3,1,,,,,,,
,,,,,,0,1.889612443,#f3af84,,left_orange.png,q,,,,,,w,left_blue.png,left_orange.png,q,right,60fd978c77223cb3d24d6618,001,2021-08-01_13h24.39.361,arrow_simon_norep,2021.1.2,MacIntel,60.0024001,,,,,,,,,,,,,,,,,,,,,p,0,1.2369,42,FALSE,TRUE,10,1,41,3,1,,,,,,,
,,,,,,0,2.022706603,#a3d0fb,,right_blue.png,o,,,,,,o,right_blue.png,right_orange.png,p,right,60fd978c77223cb3d24d6618,001,2021-08-01_13h24.39.361,arrow_simon_norep,2021.1.2,MacIntel,60.0024001,,,,,,,,,,,,,,,,,,,,,o,1,1.5917,43,FALSE,FALSE,10,2,42,1,1,,,,,,,
,,,,,,0,2.263631667,#f3af84,,right_orange.png,p,,,,,,o,right_blue.png,right_orange.png,p,left,60fd978c77223cb3d24d6618,001,2021-08-01_13h24.39.361,arrow_simon_norep,2021.1.2,MacIntel,60.0024001,,,,,,,,,,,,,,,,,,,,,p,1,1.7807,44,TRUE,FALSE,10,3,43,0,1,,,,,,,
,,,,,,0,2.386568945,#a3d0fb,,left_blue.png,w,,,,,,w,left_blue.png,left_orange.png,q,left,60fd978c77223cb3d24d6618,001,2021-08-01_13h24.39.361,arrow_simon_norep,2021.1.2,MacIntel,60.0024001,,,,,,,,,,,,,,,,,,,,,q,0,1.9651,45,TRUE,FALSE,11,0,44,2,1,,,,,,,
,,,,,,1,1.786655046,#f3af84,,left_orange.png,q,,,,,,w,left_blue.png,left_orange.png,q,right,60fd978c77223cb3d24d6618,001,2021-08-01_13h24.39.361,arrow_simon_norep,2021.1.2,MacIntel,60.0024001,,,,,,,,,,,,,,,,,,,,,w,0,1.4143,46,FALSE,FALSE,11,1,45,3,1,,,,,,,
,,,,,,1,2.141163101,#a3d0fb,,left_blue.png,w,,,,,,w,left_blue.png,left_orange.png,q,left,60fd978c77223cb3d24d6618,001,2021-08-01_13h24.39.361,arrow_simon_norep,2021.1.2,MacIntel,60.0024001,,,,,,,,,,,,,,,,,,,,,w,1,1.9812,47,TRUE,FALSE,11,2,46,2,1,,,,,,,
,,,,,,1,2.179988751,#f3af84,,right_orange.png,p,,,,,,o,right_blue.png,right_orange.png,p,right,60fd978c77223cb3d24d6618,001,2021-08-01_13h24.39.361,arrow_simon_norep,2021.1.2,MacIntel,60.0024001,,,,,,,,,,,,,,,,,,,,,p,1,17.9565,48,TRUE,FALSE,11,3,47,1,1,,,,,,,
