instruct_resp_simon.keys,instruct_resp_simon.corr,instruct_resp_simon.rt,trial_resp_simon.keys,trial_resp_simon.corr,trial_resp_simon.rt,kerr,target_onset,target_color,target_pos,target_file,target_resp,trials_train_simon.thisRepN,trials_train_simon.thisTrialN,trials_train_simon.thisN,trials_train_simon.thisIndex,trials_train_simon.ran,odd_target_resp,odd_target_file,even_target_file,even_target_resp,target_side,participant,session,date,expName,psychopyVersion,OS,frameRate,train_block_note_resp.keys,train_block_note_resp.rt,blocks_train.thisRepN,blocks_train.thisTrialN,blocks_train.thisN,blocks_train.thisIndex,blocks_train.ran,instruct_resp_timing.keys,instruct_resp_timing.corr,instruct_resp_timing.rt,trial_resp_timing.keys,trial_resp_timing.rt,trials_train_timing.thisRepN,trials_train_timing.thisTrialN,trials_train_timing.thisN,trials_train_timing.thisIndex,trials_train_timing.ran,instruct_resp.keys,instruct_resp.corr,instruct_resp.rt,trial_resp.keys,trial_resp.corr,trial_resp.rt,trial_num,too_slow,too_soon,trials.thisRepN,trials.thisTrialN,trials.thisN,trials.thisIndex,trials.ran,block_note_resp.keys,block_note_resp.rt,blocks.thisRepN,blocks.thisTrialN,blocks.thisN,blocks.thisIndex,blocks.ran
space,0,132.68,o,1,3.98,0,0.970531874,#a3d0fb,,right_blue.png,o,0,0,0,1,1,o,right_blue.png,right_orange.png,p,right,60fddaff22a9066eb9975cd9,001,2021-08-01_06h31.36.013,arrow_simon_norep,2021.1.2,MacIntel,62.5,,,,,,,,,,,,,,,,,,,,,,,,,,,,,,,,,,,,,,
,,,p,1,1.389,0,0.213195321,#f3af84,,right_orange.png,p,0,1,1,1,1,o,right_blue.png,right_orange.png,p,right,60fddaff22a9066eb9975cd9,001,2021-08-01_06h31.36.013,arrow_simon_norep,2021.1.2,MacIntel,62.5,,,,,,,,,,,,,,,,,,,,,,,,,,,,,,,,,,,,,,
,,,w,1,0.84,0,0.135241145,#a3d0fb,,left_blue.png,w,0,2,2,2,1,w,left_blue.png,left_orange.png,q,left,60fddaff22a9066eb9975cd9,001,2021-08-01_06h31.36.013,arrow_simon_norep,2021.1.2,MacIntel,62.5,,,,,,,,,,,,,,,,,,,,,,,,,,,,,,,,,,,,,,
,,,p,1,1.669,0,0.997724522,#f3af84,,right_orange.png,p,0,3,3,1,1,o,right_blue.png,right_orange.png,p,right,60fddaff22a9066eb9975cd9,001,2021-08-01_06h31.36.013,arrow_simon_norep,2021.1.2,MacIntel,62.5,,,,,,,,,,,,,,,,,,,,,,,,,,,,,,,,,,,,,,
,,,w,1,1.232,0,0.65020085,#a3d0fb,,left_blue.png,w,1,0,4,2,1,w,left_blue.png,left_orange.png,q,left,60fddaff22a9066eb9975cd9,001,2021-08-01_06h31.36.013,arrow_simon_norep,2021.1.2,MacIntel,62.5,,,,,,,,,,,,,,,,,,,,,,,,,,,,,,,,,,,,,,
,,,w,0,2.418,1,0.641409641,#f3af84,,right_orange.png,p,1,1,5,0,1,o,right_blue.png,right_orange.png,p,left,60fddaff22a9066eb9975cd9,001,2021-08-01_06h31.36.013,arrow_simon_norep,2021.1.2,MacIntel,62.5,,,,,,,,,,,,,,,,,,,,,,,,,,,,,,,,,,,,,,
,,,w,0,1.135,1,0.420332637,#a3d0fb,,right_blue.png,o,1,2,6,0,1,o,right_blue.png,right_orange.png,p,left,60fddaff22a9066eb9975cd9,001,2021-08-01_06h31.36.013,arrow_simon_norep,2021.1.2,MacIntel,62.5,,,,,,,,,,,,,,,,,,,,,,,,,,,,,,,,,,,,,,
,,,q,1,3.178,0,0.193283142,#f3af84,,left_orange.png,q,1,3,7,2,1,w,left_blue.png,left_orange.png,q,left,60fddaff22a9066eb9975cd9,001,2021-08-01_06h31.36.013,arrow_simon_norep,2021.1.2,MacIntel,62.5,,,,,,,,,,,,,,,,,,,,,,,,,,,,,,,,,,,,,,
,,,o,1,1.979,0,0.455280069,#a3d0fb,,right_blue.png,o,2,0,8,0,1,o,right_blue.png,right_orange.png,p,left,60fddaff22a9066eb9975cd9,001,2021-08-01_06h31.36.013,arrow_simon_norep,2021.1.2,MacIntel,62.5,,,,,,,,,,,,,,,,,,,,,,,,,,,,,,,,,,,,,,
,,,p,1,1.349,0,0.208405541,#f3af84,,right_orange.png,p,2,1,9,1,1,o,right_blue.png,right_orange.png,p,right,60fddaff22a9066eb9975cd9,001,2021-08-01_06h31.36.013,arrow_simon_norep,2021.1.2,MacIntel,62.5,,,,,,,,,,,,,,,,,,,,,,,,,,,,,,,,,,,,,,
,,,w,1,1.653,0,0.256962942,#a3d0fb,,left_blue.png,w,2,2,10,2,1,w,left_blue.png,left_orange.png,q,left,60fddaff22a9066eb9975cd9,001,2021-08-01_06h31.36.013,arrow_simon_norep,2021.1.2,MacIntel,62.5,,,,,,,,,,,,,,,,,,,,,,,,,,,,,,,,,,,,,,
,,,q,1,0.883,0,0.277473223,#f3af84,,left_orange.png,q,2,3,11,2,1,w,left_blue.png,left_orange.png,q,left,60fddaff22a9066eb9975cd9,001,2021-08-01_06h31.36.013,arrow_simon_norep,2021.1.2,MacIntel,62.5,,,,,,,,,,,,,,,,,,,,,,,,,,,,,,,,,,,,,,
,,,o,1,1.285,0,0.54128088,#a3d0fb,,right_blue.png,o,3,0,12,0,1,o,right_blue.png,right_orange.png,p,left,60fddaff22a9066eb9975cd9,001,2021-08-01_06h31.36.013,arrow_simon_norep,2021.1.2,MacIntel,62.5,,,,,,,,,,,,,,,,,,,,,,,,,,,,,,,,,,,,,,
,,,p,1,1.329,0,0.789084584,#f3af84,,right_orange.png,p,3,1,13,1,1,o,right_blue.png,right_orange.png,p,right,60fddaff22a9066eb9975cd9,001,2021-08-01_06h31.36.013,arrow_simon_norep,2021.1.2,MacIntel,62.5,,,,,,,,,,,,,,,,,,,,,,,,,,,,,,,,,,,,,,
,,,w,1,1.956,0,0.35782747,#a3d0fb,,left_blue.png,w,3,2,14,3,1,w,left_blue.png,left_orange.png,q,right,60fddaff22a9066eb9975cd9,001,2021-08-01_06h31.36.013,arrow_simon_norep,2021.1.2,MacIntel,62.5,,,,,,,,,,,,,,,,,,,,,,,,,,,,,,,,,,,,,,
,,,q,1,1.421,0,0.568189422,#f3af84,,left_orange.png,q,3,3,15,2,1,w,left_blue.png,left_orange.png,q,left,60fddaff22a9066eb9975cd9,001,2021-08-01_06h31.36.013,arrow_simon_norep,2021.1.2,MacIntel,62.5,,,,,,,,,,,,,,,,,,,,,,,,,,,,,,,,,,,,,,
,,,q,0,1.569,1,0.793093488,#a3d0fb,,left_blue.png,w,4,0,16,3,1,w,left_blue.png,left_orange.png,q,right,60fddaff22a9066eb9975cd9,001,2021-08-01_06h31.36.013,arrow_simon_norep,2021.1.2,MacIntel,62.5,,,,,,,,,,,,,,,,,,,,,,,,,,,,,,,,,,,,,,
,,,q,1,1.371,0,0.8439193,#f3af84,,left_orange.png,q,4,1,17,2,1,w,left_blue.png,left_orange.png,q,left,60fddaff22a9066eb9975cd9,001,2021-08-01_06h31.36.013,arrow_simon_norep,2021.1.2,MacIntel,62.5,,,,,,,,,,,,,,,,,,,,,,,,,,,,,,,,,,,,,,
,,,w,1,2.412,0,0.716148663,#a3d0fb,,left_blue.png,w,4,2,18,3,1,w,left_blue.png,left_orange.png,q,right,60fddaff22a9066eb9975cd9,001,2021-08-01_06h31.36.013,arrow_simon_norep,2021.1.2,MacIntel,62.5,,,,,,,,,,,,,,,,,,,,,,,,,,,,,,,,,,,,,,
,,,q,1,1.428,0,0.709825893,#f3af84,,left_orange.png,q,4,3,19,3,1,w,left_blue.png,left_orange.png,q,right,60fddaff22a9066eb9975cd9,001,2021-08-01_06h31.36.013,arrow_simon_norep,2021.1.2,MacIntel,62.5,,,,,,,,,,,,,,,,,,,,,,,,,,,,,,,,,,,,,,
,,,w,1,1.712,0,0.534305332,#a3d0fb,,left_blue.png,w,5,0,20,2,1,w,left_blue.png,left_orange.png,q,left,60fddaff22a9066eb9975cd9,001,2021-08-01_06h31.36.013,arrow_simon_norep,2021.1.2,MacIntel,62.5,,,,,,,,,,,,,,,,,,,,,,,,,,,,,,,,,,,,,,
,,,p,1,1.968,0,0.935536743,#f3af84,,right_orange.png,p,5,1,21,1,1,o,right_blue.png,right_orange.png,p,right,60fddaff22a9066eb9975cd9,001,2021-08-01_06h31.36.013,arrow_simon_norep,2021.1.2,MacIntel,62.5,,,,,,,,,,,,,,,,,,,,,,,,,,,,,,,,,,,,,,
,,,o,1,0.733,0,0.11193713,#a3d0fb,,right_blue.png,o,5,2,22,1,1,o,right_blue.png,right_orange.png,p,right,60fddaff22a9066eb9975cd9,001,2021-08-01_06h31.36.013,arrow_simon_norep,2021.1.2,MacIntel,62.5,,,,,,,,,,,,,,,,,,,,,,,,,,,,,,,,,,,,,,
,,,p,1,1.146,0,0.558590751,#f3af84,,right_orange.png,p,5,3,23,0,1,o,right_blue.png,right_orange.png,p,left,60fddaff22a9066eb9975cd9,001,2021-08-01_06h31.36.013,arrow_simon_norep,2021.1.2,MacIntel,62.5,,,,,,,,,,,,,,,,,,,,,,,,,,,,,,,,,,,,,,
,,,o,1,1.002,0,0.134862468,#a3d0fb,,right_blue.png,o,6,0,24,0,1,o,right_blue.png,right_orange.png,p,left,60fddaff22a9066eb9975cd9,001,2021-08-01_06h31.36.013,arrow_simon_norep,2021.1.2,MacIntel,62.5,,,,,,,,,,,,,,,,,,,,,,,,,,,,,,,,,,,,,,
,,,p,1,1.646,0,0.7898804,#f3af84,,right_orange.png,p,6,1,25,1,1,o,right_blue.png,right_orange.png,p,right,60fddaff22a9066eb9975cd9,001,2021-08-01_06h31.36.013,arrow_simon_norep,2021.1.2,MacIntel,62.5,,,,,,,,,,,,,,,,,,,,,,,,,,,,,,,,,,,,,,
,,,o,0,0.928,1,0.106508593,#a3d0fb,,left_blue.png,w,6,2,26,3,1,w,left_blue.png,left_orange.png,q,right,60fddaff22a9066eb9975cd9,001,2021-08-01_06h31.36.013,arrow_simon_norep,2021.1.2,MacIntel,62.5,,,,,,,,,,,,,,,,,,,,,,,,,,,,,,,,,,,,,,
,,,p,1,1.418,0,0.731244276,#f3af84,,right_orange.png,p,6,3,27,1,1,o,right_blue.png,right_orange.png,p,right,60fddaff22a9066eb9975cd9,001,2021-08-01_06h31.36.013,arrow_simon_norep,2021.1.2,MacIntel,62.5,,,,,,,,,,,,,,,,,,,,,,,,,,,,,,,,,,,,,,
,,,o,1,0.722,0,0.0838257,#a3d0fb,,right_blue.png,o,7,0,28,1,1,o,right_blue.png,right_orange.png,p,right,60fddaff22a9066eb9975cd9,001,2021-08-01_06h31.36.013,arrow_simon_norep,2021.1.2,MacIntel,62.5,,,,,,,,,,,,,,,,,,,,,,,,,,,,,,,,,,,,,,
,,,q,1,1.415,0,0.222873095,#f3af84,,left_orange.png,q,7,1,29,3,1,w,left_blue.png,left_orange.png,q,right,60fddaff22a9066eb9975cd9,001,2021-08-01_06h31.36.013,arrow_simon_norep,2021.1.2,MacIntel,62.5,,,,,,,,,,,,,,,,,,,,,,,,,,,,,,,,,,,,,,
,,,o,1,2.104,0,0.734979236,#a3d0fb,,right_blue.png,o,7,2,30,0,1,o,right_blue.png,right_orange.png,p,left,60fddaff22a9066eb9975cd9,001,2021-08-01_06h31.36.013,arrow_simon_norep,2021.1.2,MacIntel,62.5,,,,,,,,,,,,,,,,,,,,,,,,,,,,,,,,,,,,,,
,,,q,1,0.921,0,0.100888613,#f3af84,,left_orange.png,q,7,3,31,2,1,w,left_blue.png,left_orange.png,q,left,60fddaff22a9066eb9975cd9,001,2021-08-01_06h31.36.013,arrow_simon_norep,2021.1.2,MacIntel,62.5,,,,,,,,,,,,,,,,,,,,,,,,,,,,,,,,,,,,,,
,,,p,0,1.196,1,0.500403167,#a3d0fb,,right_blue.png,o,8,0,32,1,1,o,right_blue.png,right_orange.png,p,right,60fddaff22a9066eb9975cd9,001,2021-08-01_06h31.36.013,arrow_simon_norep,2021.1.2,MacIntel,62.5,,,,,,,,,,,,,,,,,,,,,,,,,,,,,,,,,,,,,,
,,,p,1,1.635,0,0.399108609,#f3af84,,right_orange.png,p,8,1,33,1,1,o,right_blue.png,right_orange.png,p,right,60fddaff22a9066eb9975cd9,001,2021-08-01_06h31.36.013,arrow_simon_norep,2021.1.2,MacIntel,62.5,,,,,,,,,,,,,,,,,,,,,,,,,,,,,,,,,,,,,,
,,,w,1,1.88,0,0.785661992,#a3d0fb,,left_blue.png,w,8,2,34,2,1,w,left_blue.png,left_orange.png,q,left,60fddaff22a9066eb9975cd9,001,2021-08-01_06h31.36.013,arrow_simon_norep,2021.1.2,MacIntel,62.5,,,,,,,,,,,,,,,,,,,,,,,,,,,,,,,,,,,,,,
,,,p,1,1.735,0,0.19874986,#f3af84,,right_orange.png,p,8,3,35,0,1,o,right_blue.png,right_orange.png,p,left,60fddaff22a9066eb9975cd9,001,2021-08-01_06h31.36.013,arrow_simon_norep,2021.1.2,MacIntel,62.5,,,,,,,,,,,,,,,,,,,,,,,,,,,,,,,,,,,,,,
,,,w,1,1.787,0,0.555017772,#a3d0fb,,left_blue.png,w,9,0,36,3,1,w,left_blue.png,left_orange.png,q,right,60fddaff22a9066eb9975cd9,001,2021-08-01_06h31.36.013,arrow_simon_norep,2021.1.2,MacIntel,62.5,,,,,,,,,,,,,,,,,,,,,,,,,,,,,,,,,,,,,,
,,,q,1,1.642,0,0.978600035,#f3af84,,left_orange.png,q,9,1,37,3,1,w,left_blue.png,left_orange.png,q,right,60fddaff22a9066eb9975cd9,001,2021-08-01_06h31.36.013,arrow_simon_norep,2021.1.2,MacIntel,62.5,,,,,,,,,,,,,,,,,,,,,,,,,,,,,,,,,,,,,,
,,,w,1,1.565,0,0.561447441,#a3d0fb,,left_blue.png,w,9,2,38,2,1,w,left_blue.png,left_orange.png,q,left,60fddaff22a9066eb9975cd9,001,2021-08-01_06h31.36.013,arrow_simon_norep,2021.1.2,MacIntel,62.5,,,,,,,,,,,,,,,,,,,,,,,,,,,,,,,,,,,,,,
,,,p,1,2.02,0,0.976997846,#f3af84,,right_orange.png,p,9,3,39,0,1,o,right_blue.png,right_orange.png,p,left,60fddaff22a9066eb9975cd9,001,2021-08-01_06h31.36.013,arrow_simon_norep,2021.1.2,MacIntel,62.5,,,,,,,,,,,,,,,,,,,,,,,,,,,,,,,,,,,,,,
,,,w,1,1.082,0,0.285700094,#a3d0fb,,left_blue.png,w,10,0,40,2,1,w,left_blue.png,left_orange.png,q,left,60fddaff22a9066eb9975cd9,001,2021-08-01_06h31.36.013,arrow_simon_norep,2021.1.2,MacIntel,62.5,,,,,,,,,,,,,,,,,,,,,,,,,,,,,,,,,,,,,,
,,,q,1,1.645,0,0.671015757,#f3af84,,left_orange.png,q,10,1,41,3,1,w,left_blue.png,left_orange.png,q,right,60fddaff22a9066eb9975cd9,001,2021-08-01_06h31.36.013,arrow_simon_norep,2021.1.2,MacIntel,62.5,,,,,,,,,,,,,,,,,,,,,,,,,,,,,,,,,,,,,,
,,,p,0,2.339,1,0.725181471,#a3d0fb,,right_blue.png,o,10,2,42,0,1,o,right_blue.png,right_orange.png,p,left,60fddaff22a9066eb9975cd9,001,2021-08-01_06h31.36.013,arrow_simon_norep,2021.1.2,MacIntel,62.5,,,,,,,,,,,,,,,,,,,,,,,,,,,,,,,,,,,,,,
,,,w,0,1.924,1,0.975255957,#f3af84,,left_orange.png,q,10,3,43,3,1,w,left_blue.png,left_orange.png,q,right,60fddaff22a9066eb9975cd9,001,2021-08-01_06h31.36.013,arrow_simon_norep,2021.1.2,MacIntel,62.5,,,,,,,,,,,,,,,,,,,,,,,,,,,,,,,,,,,,,,
,,,o,1,3.057,0,0.497127096,#a3d0fb,,right_blue.png,o,11,0,44,1,1,o,right_blue.png,right_orange.png,p,right,60fddaff22a9066eb9975cd9,001,2021-08-01_06h31.36.013,arrow_simon_norep,2021.1.2,MacIntel,62.5,,,,,,,,,,,,,,,,,,,,,,,,,,,,,,,,,,,,,,
,,,q,1,1.979,0,0.972006764,#f3af84,,left_orange.png,q,11,1,45,2,1,w,left_blue.png,left_orange.png,q,left,60fddaff22a9066eb9975cd9,001,2021-08-01_06h31.36.013,arrow_simon_norep,2021.1.2,MacIntel,62.5,,,,,,,,,,,,,,,,,,,,,,,,,,,,,,,,,,,,,,
,,,o,1,2.268,0,0.656790432,#a3d0fb,,right_blue.png,o,11,2,46,0,1,o,right_blue.png,right_orange.png,p,left,60fddaff22a9066eb9975cd9,001,2021-08-01_06h31.36.013,arrow_simon_norep,2021.1.2,MacIntel,62.5,,,,,,,,,,,,,,,,,,,,,,,,,,,,,,,,,,,,,,
,,,w,0,1.873,1,0.676255386,#f3af84,,right_orange.png,p,11,3,47,0,1,o,right_blue.png,right_orange.png,p,left,60fddaff22a9066eb9975cd9,001,2021-08-01_06h31.36.013,arrow_simon_norep,2021.1.2,MacIntel,62.5,,,,,,,,,,,,,,,,,,,,,,,,,,,,,,,,,,,,,,
,,,o,1,1.097,0,0.355072098,#a3d0fb,,right_blue.png,o,12,0,48,0,1,o,right_blue.png,right_orange.png,p,left,60fddaff22a9066eb9975cd9,001,2021-08-01_06h31.36.013,arrow_simon_norep,2021.1.2,MacIntel,62.5,,,,,,,,,,,,,,,,,,,,,,,,,,,,,,,,,,,,,,
,,,p,1,1.163,0,0.482115526,#f3af84,,right_orange.png,p,12,1,49,0,1,o,right_blue.png,right_orange.png,p,left,60fddaff22a9066eb9975cd9,001,2021-08-01_06h31.36.013,arrow_simon_norep,2021.1.2,MacIntel,62.5,,,,,,,,,,,,,,,,,,,,,,,,,,,,,,,,,,,,,,
,,,o,1,1.401,0,0.729343211,#a3d0fb,,right_blue.png,o,12,2,50,1,1,o,right_blue.png,right_orange.png,p,right,60fddaff22a9066eb9975cd9,001,2021-08-01_06h31.36.013,arrow_simon_norep,2021.1.2,MacIntel,62.5,,,,,,,,,,,,,,,,,,,,,,,,,,,,,,,,,,,,,,
,,,w,0,1.77,1,0.256064367,#f3af84,,left_orange.png,q,12,3,51,3,1,w,left_blue.png,left_orange.png,q,right,60fddaff22a9066eb9975cd9,001,2021-08-01_06h31.36.013,arrow_simon_norep,2021.1.2,MacIntel,62.5,,,,,,,,,,,,,,,,,,,,,,,,,,,,,,,,,,,,,,
,,,w,1,1.616,0,0.839039085,#a3d0fb,,left_blue.png,w,13,0,52,3,1,w,left_blue.png,left_orange.png,q,right,60fddaff22a9066eb9975cd9,001,2021-08-01_06h31.36.013,arrow_simon_norep,2021.1.2,MacIntel,62.5,,,,,,,,,,,,,,,,,,,,,,,,,,,,,,,,,,,,,,
,,,q,1,1.84,0,0.974419593,#f3af84,,left_orange.png,q,13,1,53,3,1,w,left_blue.png,left_orange.png,q,right,60fddaff22a9066eb9975cd9,001,2021-08-01_06h31.36.013,arrow_simon_norep,2021.1.2,MacIntel,62.5,,,,,,,,,,,,,,,,,,,,,,,,,,,,,,,,,,,,,,
,,,w,1,1.18,0,0.318058697,#a3d0fb,,left_blue.png,w,13,2,54,2,1,w,left_blue.png,left_orange.png,q,left,60fddaff22a9066eb9975cd9,001,2021-08-01_06h31.36.013,arrow_simon_norep,2021.1.2,MacIntel,62.5,,,,,,,,,,,,,,,,,,,,,,,,,,,,,,,,,,,,,,
,,,q,1,1.431,0,0.707203624,#f3af84,,left_orange.png,q,13,3,55,2,1,w,left_blue.png,left_orange.png,q,left,60fddaff22a9066eb9975cd9,001,2021-08-01_06h31.36.013,arrow_simon_norep,2021.1.2,MacIntel,62.5,,,,,,,,,,,,,,,,,,,,,,,,,,,,,,,,,,,,,,
,,,o,1,2.03,0,0.856059474,#a3d0fb,,right_blue.png,o,14,0,56,0,1,o,right_blue.png,right_orange.png,p,left,60fddaff22a9066eb9975cd9,001,2021-08-01_06h31.36.013,arrow_simon_norep,2021.1.2,MacIntel,62.5,,,,,,,,,,,,,,,,,,,,,,,,,,,,,,,,,,,,,,
,,,q,1,1.029,0,0.116493786,#f3af84,,left_orange.png,q,14,1,57,3,1,w,left_blue.png,left_orange.png,q,right,60fddaff22a9066eb9975cd9,001,2021-08-01_06h31.36.013,arrow_simon_norep,2021.1.2,MacIntel,62.5,,,,,,,,,,,,,,,,,,,,,,,,,,,,,,,,,,,,,,
,,,w,1,1.524,0,0.748459258,#a3d0fb,,left_blue.png,w,14,2,58,3,1,w,left_blue.png,left_orange.png,q,right,60fddaff22a9066eb9975cd9,001,2021-08-01_06h31.36.013,arrow_simon_norep,2021.1.2,MacIntel,62.5,,,,,,,,,,,,,,,,,,,,,,,,,,,,,,,,,,,,,,
,,,o,0,1.217,1,0.433301588,#f3af84,,right_orange.png,p,14,3,59,1,1,o,right_blue.png,right_orange.png,p,right,60fddaff22a9066eb9975cd9,001,2021-08-01_06h31.36.013,arrow_simon_norep,2021.1.2,MacIntel,62.5,,,,,,,,,,,,,,,,,,,,,,,,,,,,,,,,,,,,,,
,,,,,,,,,,,,,,,,,,,,,,60fddaff22a9066eb9975cd9,001,2021-08-01_06h31.36.013,arrow_simon_norep,2021.1.2,MacIntel,62.5,space,174.016,0,0,0,0,1,,,,,,,,,,,,,,,,,,,,,,,,,,,,,,,
,,,w,1,2.191,0,0.403626349,#a3d0fb,,left_blue.png,w,0,0,0,3,1,w,left_blue.png,left_orange.png,q,right,60fddaff22a9066eb9975cd9,001,2021-08-01_06h31.36.013,arrow_simon_norep,2021.1.2,MacIntel,62.5,,,,,,,,,,,,,,,,,,,,,,,,,,,,,,,,,,,,,,
,,,p,1,1.296,0,0.274395372,#f3af84,,right_orange.png,p,0,1,1,0,1,o,right_blue.png,right_orange.png,p,left,60fddaff22a9066eb9975cd9,001,2021-08-01_06h31.36.013,arrow_simon_norep,2021.1.2,MacIntel,62.5,,,,,,,,,,,,,,,,,,,,,,,,,,,,,,,,,,,,,,
,,,w,1,0.812,0,0.140776945,#a3d0fb,,left_blue.png,w,0,2,2,3,1,w,left_blue.png,left_orange.png,q,right,60fddaff22a9066eb9975cd9,001,2021-08-01_06h31.36.013,arrow_simon_norep,2021.1.2,MacIntel,62.5,,,,,,,,,,,,,,,,,,,,,,,,,,,,,,,,,,,,,,
,,,q,1,1.038,0,0.279433832,#f3af84,,left_orange.png,q,0,3,3,2,1,w,left_blue.png,left_orange.png,q,left,60fddaff22a9066eb9975cd9,001,2021-08-01_06h31.36.013,arrow_simon_norep,2021.1.2,MacIntel,62.5,,,,,,,,,,,,,,,,,,,,,,,,,,,,,,,,,,,,,,
,,,o,1,1.535,0,0.727820247,#a3d0fb,,right_blue.png,o,1,0,4,0,1,o,right_blue.png,right_orange.png,p,left,60fddaff22a9066eb9975cd9,001,2021-08-01_06h31.36.013,arrow_simon_norep,2021.1.2,MacIntel,62.5,,,,,,,,,,,,,,,,,,,,,,,,,,,,,,,,,,,,,,
,,,p,1,0.864,0,0.049624269,#f3af84,,right_orange.png,p,1,1,5,1,1,o,right_blue.png,right_orange.png,p,right,60fddaff22a9066eb9975cd9,001,2021-08-01_06h31.36.013,arrow_simon_norep,2021.1.2,MacIntel,62.5,,,,,,,,,,,,,,,,,,,,,,,,,,,,,,,,,,,,,,
,,,o,1,0.754,0,0.113425613,#a3d0fb,,right_blue.png,o,1,2,6,1,1,o,right_blue.png,right_orange.png,p,right,60fddaff22a9066eb9975cd9,001,2021-08-01_06h31.36.013,arrow_simon_norep,2021.1.2,MacIntel,62.5,,,,,,,,,,,,,,,,,,,,,,,,,,,,,,,,,,,,,,
,,,q,1,0.951,0,0.25768068,#f3af84,,left_orange.png,q,1,3,7,2,1,w,left_blue.png,left_orange.png,q,left,60fddaff22a9066eb9975cd9,001,2021-08-01_06h31.36.013,arrow_simon_norep,2021.1.2,MacIntel,62.5,,,,,,,,,,,,,,,,,,,,,,,,,,,,,,,,,,,,,,
,,,o,1,1.113,0,0.278822534,#a3d0fb,,right_blue.png,o,2,0,8,0,1,o,right_blue.png,right_orange.png,p,left,60fddaff22a9066eb9975cd9,001,2021-08-01_06h31.36.013,arrow_simon_norep,2021.1.2,MacIntel,62.5,,,,,,,,,,,,,,,,,,,,,,,,,,,,,,,,,,,,,,
,,,q,1,0.816,0,0.155151082,#f3af84,,left_orange.png,q,2,1,9,2,1,w,left_blue.png,left_orange.png,q,left,60fddaff22a9066eb9975cd9,001,2021-08-01_06h31.36.013,arrow_simon_norep,2021.1.2,MacIntel,62.5,,,,,,,,,,,,,,,,,,,,,,,,,,,,,,,,,,,,,,
,,,q,0,1.891,1,0.796823462,#a3d0fb,,left_blue.png,w,2,2,10,2,1,w,left_blue.png,left_orange.png,q,left,60fddaff22a9066eb9975cd9,001,2021-08-01_06h31.36.013,arrow_simon_norep,2021.1.2,MacIntel,62.5,,,,,,,,,,,,,,,,,,,,,,,,,,,,,,,,,,,,,,
,,,q,1,0.797,0,0.029742218,#f3af84,,left_orange.png,q,2,3,11,2,1,w,left_blue.png,left_orange.png,q,left,60fddaff22a9066eb9975cd9,001,2021-08-01_06h31.36.013,arrow_simon_norep,2021.1.2,MacIntel,62.5,,,,,,,,,,,,,,,,,,,,,,,,,,,,,,,,,,,,,,
,,,o,1,0.699,0,0.041277572,#a3d0fb,,right_blue.png,o,3,0,12,0,1,o,right_blue.png,right_orange.png,p,left,60fddaff22a9066eb9975cd9,001,2021-08-01_06h31.36.013,arrow_simon_norep,2021.1.2,MacIntel,62.5,,,,,,,,,,,,,,,,,,,,,,,,,,,,,,,,,,,,,,
,,,q,1,1.481,0,0.648667005,#f3af84,,left_orange.png,q,3,1,13,2,1,w,left_blue.png,left_orange.png,q,left,60fddaff22a9066eb9975cd9,001,2021-08-01_06h31.36.013,arrow_simon_norep,2021.1.2,MacIntel,62.5,,,,,,,,,,,,,,,,,,,,,,,,,,,,,,,,,,,,,,
,,,o,1,1.582,0,0.920013034,#a3d0fb,,right_blue.png,o,3,2,14,1,1,o,right_blue.png,right_orange.png,p,right,60fddaff22a9066eb9975cd9,001,2021-08-01_06h31.36.013,arrow_simon_norep,2021.1.2,MacIntel,62.5,,,,,,,,,,,,,,,,,,,,,,,,,,,,,,,,,,,,,,
,,,p,1,1.148,0,0.460375638,#f3af84,,right_orange.png,p,3,3,15,0,1,o,right_blue.png,right_orange.png,p,left,60fddaff22a9066eb9975cd9,001,2021-08-01_06h31.36.013,arrow_simon_norep,2021.1.2,MacIntel,62.5,,,,,,,,,,,,,,,,,,,,,,,,,,,,,,,,,,,,,,
,,,w,1,1.128,0,0.072713911,#a3d0fb,,left_blue.png,w,4,0,16,3,1,w,left_blue.png,left_orange.png,q,right,60fddaff22a9066eb9975cd9,001,2021-08-01_06h31.36.013,arrow_simon_norep,2021.1.2,MacIntel,62.5,,,,,,,,,,,,,,,,,,,,,,,,,,,,,,,,,,,,,,
,,,o,0,1.429,1,0.723151719,#f3af84,,right_orange.png,p,4,1,17,0,1,o,right_blue.png,right_orange.png,p,left,60fddaff22a9066eb9975cd9,001,2021-08-01_06h31.36.013,arrow_simon_norep,2021.1.2,MacIntel,62.5,,,,,,,,,,,,,,,,,,,,,,,,,,,,,,,,,,,,,,
,,,o,1,1.419,0,0.683444482,#a3d0fb,,right_blue.png,o,4,2,18,1,1,o,right_blue.png,right_orange.png,p,right,60fddaff22a9066eb9975cd9,001,2021-08-01_06h31.36.013,arrow_simon_norep,2021.1.2,MacIntel,62.5,,,,,,,,,,,,,,,,,,,,,,,,,,,,,,,,,,,,,,
,,,p,1,0.756,0,0.179215013,#f3af84,,right_orange.png,p,4,3,19,0,1,o,right_blue.png,right_orange.png,p,left,60fddaff22a9066eb9975cd9,001,2021-08-01_06h31.36.013,arrow_simon_norep,2021.1.2,MacIntel,62.5,,,,,,,,,,,,,,,,,,,,,,,,,,,,,,,,,,,,,,
,,,w,1,1.391,0,0.540494169,#a3d0fb,,left_blue.png,w,5,0,20,3,1,w,left_blue.png,left_orange.png,q,right,60fddaff22a9066eb9975cd9,001,2021-08-01_06h31.36.013,arrow_simon_norep,2021.1.2,MacIntel,62.5,,,,,,,,,,,,,,,,,,,,,,,,,,,,,,,,,,,,,,
,,,p,1,1.099,0,0.259002267,#f3af84,,right_orange.png,p,5,1,21,0,1,o,right_blue.png,right_orange.png,p,left,60fddaff22a9066eb9975cd9,001,2021-08-01_06h31.36.013,arrow_simon_norep,2021.1.2,MacIntel,62.5,,,,,,,,,,,,,,,,,,,,,,,,,,,,,,,,,,,,,,
,,,w,1,1.517,0,0.448133278,#a3d0fb,,left_blue.png,w,5,2,22,3,1,w,left_blue.png,left_orange.png,q,right,60fddaff22a9066eb9975cd9,001,2021-08-01_06h31.36.013,arrow_simon_norep,2021.1.2,MacIntel,62.5,,,,,,,,,,,,,,,,,,,,,,,,,,,,,,,,,,,,,,
,,,q,1,1.862,0,0.933913709,#f3af84,,left_orange.png,q,5,3,23,3,1,w,left_blue.png,left_orange.png,q,right,60fddaff22a9066eb9975cd9,001,2021-08-01_06h31.36.013,arrow_simon_norep,2021.1.2,MacIntel,62.5,,,,,,,,,,,,,,,,,,,,,,,,,,,,,,,,,,,,,,
,,,o,1,1.213,0,0.178597398,#a3d0fb,,right_blue.png,o,6,0,24,1,1,o,right_blue.png,right_orange.png,p,right,60fddaff22a9066eb9975cd9,001,2021-08-01_06h31.36.013,arrow_simon_norep,2021.1.2,MacIntel,62.5,,,,,,,,,,,,,,,,,,,,,,,,,,,,,,,,,,,,,,
,,,q,1,1.464,0,0.641965654,#f3af84,,left_orange.png,q,6,1,25,3,1,w,left_blue.png,left_orange.png,q,right,60fddaff22a9066eb9975cd9,001,2021-08-01_06h31.36.013,arrow_simon_norep,2021.1.2,MacIntel,62.5,,,,,,,,,,,,,,,,,,,,,,,,,,,,,,,,,,,,,,
,,,w,1,1.563,0,0.780714286,#a3d0fb,,left_blue.png,w,6,2,26,2,1,w,left_blue.png,left_orange.png,q,left,60fddaff22a9066eb9975cd9,001,2021-08-01_06h31.36.013,arrow_simon_norep,2021.1.2,MacIntel,62.5,,,,,,,,,,,,,,,,,,,,,,,,,,,,,,,,,,,,,,
,,,q,1,0.88,0,0.083021976,#f3af84,,left_orange.png,q,6,3,27,3,1,w,left_blue.png,left_orange.png,q,right,60fddaff22a9066eb9975cd9,001,2021-08-01_06h31.36.013,arrow_simon_norep,2021.1.2,MacIntel,62.5,,,,,,,,,,,,,,,,,,,,,,,,,,,,,,,,,,,,,,
,,,o,1,1.085,0,0.076757943,#a3d0fb,,right_blue.png,o,7,0,28,1,1,o,right_blue.png,right_orange.png,p,right,60fddaff22a9066eb9975cd9,001,2021-08-01_06h31.36.013,arrow_simon_norep,2021.1.2,MacIntel,62.5,,,,,,,,,,,,,,,,,,,,,,,,,,,,,,,,,,,,,,
,,,p,1,1.016,0,0.115832196,#f3af84,,right_orange.png,p,7,1,29,0,1,o,right_blue.png,right_orange.png,p,left,60fddaff22a9066eb9975cd9,001,2021-08-01_06h31.36.013,arrow_simon_norep,2021.1.2,MacIntel,62.5,,,,,,,,,,,,,,,,,,,,,,,,,,,,,,,,,,,,,,
,,,o,1,1.252,0,0.323040524,#a3d0fb,,right_blue.png,o,7,2,30,1,1,o,right_blue.png,right_orange.png,p,right,60fddaff22a9066eb9975cd9,001,2021-08-01_06h31.36.013,arrow_simon_norep,2021.1.2,MacIntel,62.5,,,,,,,,,,,,,,,,,,,,,,,,,,,,,,,,,,,,,,
,,,p,1,0.862,0,0.088497372,#f3af84,,right_orange.png,p,7,3,31,0,1,o,right_blue.png,right_orange.png,p,left,60fddaff22a9066eb9975cd9,001,2021-08-01_06h31.36.013,arrow_simon_norep,2021.1.2,MacIntel,62.5,,,,,,,,,,,,,,,,,,,,,,,,,,,,,,,,,,,,,,
,,,w,1,1.747,0,0.673988251,#a3d0fb,,left_blue.png,w,8,0,32,2,1,w,left_blue.png,left_orange.png,q,left,60fddaff22a9066eb9975cd9,001,2021-08-01_06h31.36.013,arrow_simon_norep,2021.1.2,MacIntel,62.5,,,,,,,,,,,,,,,,,,,,,,,,,,,,,,,,,,,,,,
,,,q,1,1.155,0,0.533525436,#f3af84,,left_orange.png,q,8,1,33,2,1,w,left_blue.png,left_orange.png,q,left,60fddaff22a9066eb9975cd9,001,2021-08-01_06h31.36.013,arrow_simon_norep,2021.1.2,MacIntel,62.5,,,,,,,,,,,,,,,,,,,,,,,,,,,,,,,,,,,,,,
,,,o,1,0.961,0,0.242107872,#a3d0fb,,right_blue.png,o,8,2,34,1,1,o,right_blue.png,right_orange.png,p,right,60fddaff22a9066eb9975cd9,001,2021-08-01_06h31.36.013,arrow_simon_norep,2021.1.2,MacIntel,62.5,,,,,,,,,,,,,,,,,,,,,,,,,,,,,,,,,,,,,,
,,,q,1,1.232,0,0.483536495,#f3af84,,left_orange.png,q,8,3,35,2,1,w,left_blue.png,left_orange.png,q,left,60fddaff22a9066eb9975cd9,001,2021-08-01_06h31.36.013,arrow_simon_norep,2021.1.2,MacIntel,62.5,,,,,,,,,,,,,,,,,,,,,,,,,,,,,,,,,,,,,,
,,,o,1,1.252,0,0.723141063,#a3d0fb,,right_blue.png,o,9,0,36,1,1,o,right_blue.png,right_orange.png,p,right,60fddaff22a9066eb9975cd9,001,2021-08-01_06h31.36.013,arrow_simon_norep,2021.1.2,MacIntel,62.5,,,,,,,,,,,,,,,,,,,,,,,,,,,,,,,,,,,,,,
,,,q,1,1.436,0,0.833997984,#f3af84,,left_orange.png,q,9,1,37,3,1,w,left_blue.png,left_orange.png,q,right,60fddaff22a9066eb9975cd9,001,2021-08-01_06h31.36.013,arrow_simon_norep,2021.1.2,MacIntel,62.5,,,,,,,,,,,,,,,,,,,,,,,,,,,,,,,,,,,,,,
,,,w,1,0.847,0,0.172635181,#a3d0fb,,left_blue.png,w,9,2,38,3,1,w,left_blue.png,left_orange.png,q,right,60fddaff22a9066eb9975cd9,001,2021-08-01_06h31.36.013,arrow_simon_norep,2021.1.2,MacIntel,62.5,,,,,,,,,,,,,,,,,,,,,,,,,,,,,,,,,,,,,,
,,,o,0,1.529,1,0.95854305,#f3af84,,right_orange.png,p,9,3,39,1,1,o,right_blue.png,right_orange.png,p,right,60fddaff22a9066eb9975cd9,001,2021-08-01_06h31.36.013,arrow_simon_norep,2021.1.2,MacIntel,62.5,,,,,,,,,,,,,,,,,,,,,,,,,,,,,,,,,,,,,,
,,,o,1,1.18,0,0.523250477,#a3d0fb,,right_blue.png,o,10,0,40,1,1,o,right_blue.png,right_orange.png,p,right,60fddaff22a9066eb9975cd9,001,2021-08-01_06h31.36.013,arrow_simon_norep,2021.1.2,MacIntel,62.5,,,,,,,,,,,,,,,,,,,,,,,,,,,,,,,,,,,,,,
,,,p,1,1.267,0,0.893113821,#f3af84,,right_orange.png,p,10,1,41,1,1,o,right_blue.png,right_orange.png,p,right,60fddaff22a9066eb9975cd9,001,2021-08-01_06h31.36.013,arrow_simon_norep,2021.1.2,MacIntel,62.5,,,,,,,,,,,,,,,,,,,,,,,,,,,,,,,,,,,,,,
,,,w,0,1.195,1,0.458785757,#a3d0fb,,right_blue.png,o,10,2,42,0,1,o,right_blue.png,right_orange.png,p,left,60fddaff22a9066eb9975cd9,001,2021-08-01_06h31.36.013,arrow_simon_norep,2021.1.2,MacIntel,62.5,,,,,,,,,,,,,,,,,,,,,,,,,,,,,,,,,,,,,,
,,,o,0,1.23,1,0.425065626,#f3af84,,right_orange.png,p,10,3,43,0,1,o,right_blue.png,right_orange.png,p,left,60fddaff22a9066eb9975cd9,001,2021-08-01_06h31.36.013,arrow_simon_norep,2021.1.2,MacIntel,62.5,,,,,,,,,,,,,,,,,,,,,,,,,,,,,,,,,,,,,,
,,,w,1,1.248,0,0.264724086,#a3d0fb,,left_blue.png,w,11,0,44,2,1,w,left_blue.png,left_orange.png,q,left,60fddaff22a9066eb9975cd9,001,2021-08-01_06h31.36.013,arrow_simon_norep,2021.1.2,MacIntel,62.5,,,,,,,,,,,,,,,,,,,,,,,,,,,,,,,,,,,,,,
,,,q,1,0.963,0,0.445988827,#f3af84,,left_orange.png,q,11,1,45,2,1,w,left_blue.png,left_orange.png,q,left,60fddaff22a9066eb9975cd9,001,2021-08-01_06h31.36.013,arrow_simon_norep,2021.1.2,MacIntel,62.5,,,,,,,,,,,,,,,,,,,,,,,,,,,,,,,,,,,,,,
,,,w,1,1.147,0,0.174986685,#a3d0fb,,left_blue.png,w,11,2,46,2,1,w,left_blue.png,left_orange.png,q,left,60fddaff22a9066eb9975cd9,001,2021-08-01_06h31.36.013,arrow_simon_norep,2021.1.2,MacIntel,62.5,,,,,,,,,,,,,,,,,,,,,,,,,,,,,,,,,,,,,,
,,,q,1,1.223,0,0.335677192,#f3af84,,left_orange.png,q,11,3,47,2,1,w,left_blue.png,left_orange.png,q,left,60fddaff22a9066eb9975cd9,001,2021-08-01_06h31.36.013,arrow_simon_norep,2021.1.2,MacIntel,62.5,,,,,,,,,,,,,,,,,,,,,,,,,,,,,,,,,,,,,,
,,,w,1,1.014,0,0.073473464,#a3d0fb,,left_blue.png,w,12,0,48,3,1,w,left_blue.png,left_orange.png,q,right,60fddaff22a9066eb9975cd9,001,2021-08-01_06h31.36.013,arrow_simon_norep,2021.1.2,MacIntel,62.5,,,,,,,,,,,,,,,,,,,,,,,,,,,,,,,,,,,,,,
,,,q,1,1.296,0,0.464547239,#f3af84,,left_orange.png,q,12,1,49,3,1,w,left_blue.png,left_orange.png,q,right,60fddaff22a9066eb9975cd9,001,2021-08-01_06h31.36.013,arrow_simon_norep,2021.1.2,MacIntel,62.5,,,,,,,,,,,,,,,,,,,,,,,,,,,,,,,,,,,,,,
,,,o,1,1.297,0,0.117981555,#a3d0fb,,right_blue.png,o,12,2,50,1,1,o,right_blue.png,right_orange.png,p,right,60fddaff22a9066eb9975cd9,001,2021-08-01_06h31.36.013,arrow_simon_norep,2021.1.2,MacIntel,62.5,,,,,,,,,,,,,,,,,,,,,,,,,,,,,,,,,,,,,,
,,,q,1,1.356,0,0.622372364,#f3af84,,left_orange.png,q,12,3,51,3,1,w,left_blue.png,left_orange.png,q,right,60fddaff22a9066eb9975cd9,001,2021-08-01_06h31.36.013,arrow_simon_norep,2021.1.2,MacIntel,62.5,,,,,,,,,,,,,,,,,,,,,,,,,,,,,,,,,,,,,,
,,,w,1,1.157,0,0.067017022,#a3d0fb,,left_blue.png,w,13,0,52,3,1,w,left_blue.png,left_orange.png,q,right,60fddaff22a9066eb9975cd9,001,2021-08-01_06h31.36.013,arrow_simon_norep,2021.1.2,MacIntel,62.5,,,,,,,,,,,,,,,,,,,,,,,,,,,,,,,,,,,,,,
,,,p,1,1.396,0,0.747852334,#f3af84,,right_orange.png,p,13,1,53,1,1,o,right_blue.png,right_orange.png,p,right,60fddaff22a9066eb9975cd9,001,2021-08-01_06h31.36.013,arrow_simon_norep,2021.1.2,MacIntel,62.5,,,,,,,,,,,,,,,,,,,,,,,,,,,,,,,,,,,,,,
,,,w,1,1.18,0,0.434361048,#a3d0fb,,left_blue.png,w,13,2,54,3,1,w,left_blue.png,left_orange.png,q,right,60fddaff22a9066eb9975cd9,001,2021-08-01_06h31.36.013,arrow_simon_norep,2021.1.2,MacIntel,62.5,,,,,,,,,,,,,,,,,,,,,,,,,,,,,,,,,,,,,,
,,,p,1,1.082,0,0.446247452,#f3af84,,right_orange.png,p,13,3,55,0,1,o,right_blue.png,right_orange.png,p,left,60fddaff22a9066eb9975cd9,001,2021-08-01_06h31.36.013,arrow_simon_norep,2021.1.2,MacIntel,62.5,,,,,,,,,,,,,,,,,,,,,,,,,,,,,,,,,,,,,,
,,,o,1,1.047,0,0.197152185,#a3d0fb,,right_blue.png,o,14,0,56,1,1,o,right_blue.png,right_orange.png,p,right,60fddaff22a9066eb9975cd9,001,2021-08-01_06h31.36.013,arrow_simon_norep,2021.1.2,MacIntel,62.5,,,,,,,,,,,,,,,,,,,,,,,,,,,,,,,,,,,,,,
,,,p,1,0.757,0,0.100818766,#f3af84,,right_orange.png,p,14,1,57,0,1,o,right_blue.png,right_orange.png,p,left,60fddaff22a9066eb9975cd9,001,2021-08-01_06h31.36.013,arrow_simon_norep,2021.1.2,MacIntel,62.5,,,,,,,,,,,,,,,,,,,,,,,,,,,,,,,,,,,,,,
,,,w,1,1.952,0,0.880035147,#a3d0fb,,left_blue.png,w,14,2,58,2,1,w,left_blue.png,left_orange.png,q,left,60fddaff22a9066eb9975cd9,001,2021-08-01_06h31.36.013,arrow_simon_norep,2021.1.2,MacIntel,62.5,,,,,,,,,,,,,,,,,,,,,,,,,,,,,,,,,,,,,,
,,,p,1,1.681,0,0.928441737,#f3af84,,right_orange.png,p,14,3,59,0,1,o,right_blue.png,right_orange.png,p,left,60fddaff22a9066eb9975cd9,001,2021-08-01_06h31.36.013,arrow_simon_norep,2021.1.2,MacIntel,62.5,,,,,,,,,,,,,,,,,,,,,,,,,,,,,,,,,,,,,,
,,,,,,,,,,,,,,,,,,,,,,60fddaff22a9066eb9975cd9,001,2021-08-01_06h31.36.013,arrow_simon_norep,2021.1.2,MacIntel,62.5,space,1.739,1,0,1,0,1,,,,,,,,,,,,,,,,,,,,,,,,,,,,,,,
,,,,,,,,,,,,,,,,,,,,,,60fddaff22a9066eb9975cd9,001,2021-08-01_06h31.36.013,arrow_simon_norep,2021.1.2,MacIntel,62.5,,,,,,,,space,0,57.775,o,5.755,0,0,0,0,1,,,,,,,,,,,,,,,,,,,,,
,,,,,,,,,,,,,,,,,,,,,,60fddaff22a9066eb9975cd9,001,2021-08-01_06h31.36.013,arrow_simon_norep,2021.1.2,MacIntel,62.5,,,,,,,,,,,w,2.915,1,0,1,0,1,,,,,,,,,,,,,,,,,,,,,
,,,,,,,,,,,,,,,,,,,,,,60fddaff22a9066eb9975cd9,001,2021-08-01_06h31.36.013,arrow_simon_norep,2021.1.2,MacIntel,62.5,,,,,,,,,,,p,2.245,2,0,2,0,1,,,,,,,,,,,,,,,,,,,,,
,,,,,,,,,,,,,,,,,,,,,,60fddaff22a9066eb9975cd9,001,2021-08-01_06h31.36.013,arrow_simon_norep,2021.1.2,MacIntel,62.5,,,,,,,,,,,o,1.835,3,0,3,0,1,,,,,,,,,,,,,,,,,,,,,
,,,,,,,,,,,,,,,,,,,,,,60fddaff22a9066eb9975cd9,001,2021-08-01_06h31.36.013,arrow_simon_norep,2021.1.2,MacIntel,62.5,,,,,,,,,,,o,2.221,4,0,4,0,1,,,,,,,,,,,,,,,,,,,,,
,,,,,,,,,,,,,,,,,,,,,,60fddaff22a9066eb9975cd9,001,2021-08-01_06h31.36.013,arrow_simon_norep,2021.1.2,MacIntel,62.5,,,,,,,,,,,o,2.581,5,0,5,0,1,,,,,,,,,,,,,,,,,,,,,
,,,,,,,,,,,,,,,,,,,,,,60fddaff22a9066eb9975cd9,001,2021-08-01_06h31.36.013,arrow_simon_norep,2021.1.2,MacIntel,62.5,,,,,,,,,,,o,2.573,6,0,6,0,1,,,,,,,,,,,,,,,,,,,,,
,,,,,,,,,,,,,,,,,,,,,,60fddaff22a9066eb9975cd9,001,2021-08-01_06h31.36.013,arrow_simon_norep,2021.1.2,MacIntel,62.5,,,,,,,,,,,p,2.738,7,0,7,0,1,,,,,,,,,,,,,,,,,,,,,
,,,,,,,,,,,,,,,,,,,,,,60fddaff22a9066eb9975cd9,001,2021-08-01_06h31.36.013,arrow_simon_norep,2021.1.2,MacIntel,62.5,,,,,,,,,,,o,2.249,8,0,8,0,1,,,,,,,,,,,,,,,,,,,,,
,,,,,,,,,,,,,,,,,,,,,,60fddaff22a9066eb9975cd9,001,2021-08-01_06h31.36.013,arrow_simon_norep,2021.1.2,MacIntel,62.5,,,,,,,,,,,p,2.698,9,0,9,0,1,,,,,,,,,,,,,,,,,,,,,
,,,,,,,,,,,,,,,,,,,,,,60fddaff22a9066eb9975cd9,001,2021-08-01_06h31.36.013,arrow_simon_norep,2021.1.2,MacIntel,62.5,,,,,,,,,,,o,2.094,10,0,10,0,1,,,,,,,,,,,,,,,,,,,,,
,,,,,,,,,,,,,,,,,,,,,,60fddaff22a9066eb9975cd9,001,2021-08-01_06h31.36.013,arrow_simon_norep,2021.1.2,MacIntel,62.5,,,,,,,,,,,p,2.288,11,0,11,0,1,,,,,,,,,,,,,,,,,,,,,
,,,,,,,,,,,,,,,,,,,,,,60fddaff22a9066eb9975cd9,001,2021-08-01_06h31.36.013,arrow_simon_norep,2021.1.2,MacIntel,62.5,,,,,,,,,,,o,1.946,12,0,12,0,1,,,,,,,,,,,,,,,,,,,,,
,,,,,,,,,,,,,,,,,,,,,,60fddaff22a9066eb9975cd9,001,2021-08-01_06h31.36.013,arrow_simon_norep,2021.1.2,MacIntel,62.5,,,,,,,,,,,p,2.498,13,0,13,0,1,,,,,,,,,,,,,,,,,,,,,
,,,,,,,,,,,,,,,,,,,,,,60fddaff22a9066eb9975cd9,001,2021-08-01_06h31.36.013,arrow_simon_norep,2021.1.2,MacIntel,62.5,,,,,,,,,,,o,2.051,14,0,14,0,1,,,,,,,,,,,,,,,,,,,,,
,,,,,,,,,,,,,,,,,,,,,,60fddaff22a9066eb9975cd9,001,2021-08-01_06h31.36.013,arrow_simon_norep,2021.1.2,MacIntel,62.5,,,,,,,,,,,p,2.264,15,0,15,0,1,,,,,,,,,,,,,,,,,,,,,
,,,,,,,,,,,,,,,,,,,,,,60fddaff22a9066eb9975cd9,001,2021-08-01_06h31.36.013,arrow_simon_norep,2021.1.2,MacIntel,62.5,,,,,,,,,,,o,2.245,16,0,16,0,1,,,,,,,,,,,,,,,,,,,,,
,,,,,,,,,,,,,,,,,,,,,,60fddaff22a9066eb9975cd9,001,2021-08-01_06h31.36.013,arrow_simon_norep,2021.1.2,MacIntel,62.5,,,,,,,,,,,p,2.203,17,0,17,0,1,,,,,,,,,,,,,,,,,,,,,
,,,,,,,,,,,,,,,,,,,,,,60fddaff22a9066eb9975cd9,001,2021-08-01_06h31.36.013,arrow_simon_norep,2021.1.2,MacIntel,62.5,,,,,,,,,,,o,2.721,18,0,18,0,1,,,,,,,,,,,,,,,,,,,,,
,,,,,,,,,,,,,,,,,,,,,,60fddaff22a9066eb9975cd9,001,2021-08-01_06h31.36.013,arrow_simon_norep,2021.1.2,MacIntel,62.5,,,,,,,,,,,p,2.238,19,0,19,0,1,,,,,,,,,,,,,,,,,,,,,
,,,,,,,,,,,,,,,,,,,,,,60fddaff22a9066eb9975cd9,001,2021-08-01_06h31.36.013,arrow_simon_norep,2021.1.2,MacIntel,62.5,,,,,,,,,,,o,2.389,20,0,20,0,1,,,,,,,,,,,,,,,,,,,,,
,,,,,,,,,,,,,,,,,,,,,,60fddaff22a9066eb9975cd9,001,2021-08-01_06h31.36.013,arrow_simon_norep,2021.1.2,MacIntel,62.5,,,,,,,,,,,p,2.367,21,0,21,0,1,,,,,,,,,,,,,,,,,,,,,
,,,,,,,,,,,,,,,,,,,,,,60fddaff22a9066eb9975cd9,001,2021-08-01_06h31.36.013,arrow_simon_norep,2021.1.2,MacIntel,62.5,,,,,,,,,,,o,2.745,22,0,22,0,1,,,,,,,,,,,,,,,,,,,,,
,,,,,,,,,,,,,,,,,,,,,,60fddaff22a9066eb9975cd9,001,2021-08-01_06h31.36.013,arrow_simon_norep,2021.1.2,MacIntel,62.5,,,,,,,,,,,p,2.37,23,0,23,0,1,,,,,,,,,,,,,,,,,,,,,
,,,,,,,,,,,,,,,,,,,,,,60fddaff22a9066eb9975cd9,001,2021-08-01_06h31.36.013,arrow_simon_norep,2021.1.2,MacIntel,62.5,,,,,,,,,,,o,2.367,24,0,24,0,1,,,,,,,,,,,,,,,,,,,,,
,,,,,,,,,,,,,,,,,,,,,,60fddaff22a9066eb9975cd9,001,2021-08-01_06h31.36.013,arrow_simon_norep,2021.1.2,MacIntel,62.5,,,,,,,,,,,p,2.671,25,0,25,0,1,,,,,,,,,,,,,,,,,,,,,
,,,,,,,,,,,,,,,,,,,,,,60fddaff22a9066eb9975cd9,001,2021-08-01_06h31.36.013,arrow_simon_norep,2021.1.2,MacIntel,62.5,,,,,,,,,,,o,2.588,26,0,26,0,1,,,,,,,,,,,,,,,,,,,,,
,,,,,,,,,,,,,,,,,,,,,,60fddaff22a9066eb9975cd9,001,2021-08-01_06h31.36.013,arrow_simon_norep,2021.1.2,MacIntel,62.5,,,,,,,,,,,p,2.397,27,0,27,0,1,,,,,,,,,,,,,,,,,,,,,
,,,,,,,,,,,,,,,,,,,,,,60fddaff22a9066eb9975cd9,001,2021-08-01_06h31.36.013,arrow_simon_norep,2021.1.2,MacIntel,62.5,,,,,,,,,,,o,2.513,28,0,28,0,1,,,,,,,,,,,,,,,,,,,,,
,,,,,,,,,,,,,,,,,,,,,,60fddaff22a9066eb9975cd9,001,2021-08-01_06h31.36.013,arrow_simon_norep,2021.1.2,MacIntel,62.5,,,,,,,,,,,p,2.362,29,0,29,0,1,,,,,,,,,,,,,,,,,,,,,
,,,,,,,,,,,,,,,,,,,,,,60fddaff22a9066eb9975cd9,001,2021-08-01_06h31.36.013,arrow_simon_norep,2021.1.2,MacIntel,62.5,,,,,,,,,,,o,2.448,30,0,30,0,1,,,,,,,,,,,,,,,,,,,,,
,,,,,,,,,,,,,,,,,,,,,,60fddaff22a9066eb9975cd9,001,2021-08-01_06h31.36.013,arrow_simon_norep,2021.1.2,MacIntel,62.5,,,,,,,,,,,p,2.378,31,0,31,0,1,,,,,,,,,,,,,,,,,,,,,
,,,,,,,,,,,,,,,,,,,,,,60fddaff22a9066eb9975cd9,001,2021-08-01_06h31.36.013,arrow_simon_norep,2021.1.2,MacIntel,62.5,,,,,,,,,,,o,2.521,32,0,32,0,1,,,,,,,,,,,,,,,,,,,,,
,,,,,,,,,,,,,,,,,,,,,,60fddaff22a9066eb9975cd9,001,2021-08-01_06h31.36.013,arrow_simon_norep,2021.1.2,MacIntel,62.5,,,,,,,,,,,p,2.618,33,0,33,0,1,,,,,,,,,,,,,,,,,,,,,
,,,,,,,,,,,,,,,,,,,,,,60fddaff22a9066eb9975cd9,001,2021-08-01_06h31.36.013,arrow_simon_norep,2021.1.2,MacIntel,62.5,,,,,,,,,,,o,2.724,34,0,34,0,1,,,,,,,,,,,,,,,,,,,,,
,,,,,,,,,,,,,,,,,,,,,,60fddaff22a9066eb9975cd9,001,2021-08-01_06h31.36.013,arrow_simon_norep,2021.1.2,MacIntel,62.5,,,,,,,,,,,p,2.619,35,0,35,0,1,,,,,,,,,,,,,,,,,,,,,
,,,,,,,,,,,,,,,,,,,,,,60fddaff22a9066eb9975cd9,001,2021-08-01_06h31.36.013,arrow_simon_norep,2021.1.2,MacIntel,62.5,,,,,,,,,,,o,2.238,36,0,36,0,1,,,,,,,,,,,,,,,,,,,,,
,,,,,,,,,,,,,,,,,,,,,,60fddaff22a9066eb9975cd9,001,2021-08-01_06h31.36.013,arrow_simon_norep,2021.1.2,MacIntel,62.5,,,,,,,,,,,p,2.069,37,0,37,0,1,,,,,,,,,,,,,,,,,,,,,
,,,,,,,,,,,,,,,,,,,,,,60fddaff22a9066eb9975cd9,001,2021-08-01_06h31.36.013,arrow_simon_norep,2021.1.2,MacIntel,62.5,,,,,,,,,,,o,2.246,38,0,38,0,1,,,,,,,,,,,,,,,,,,,,,
,,,,,,,,,,,,,,,,,,,,,,60fddaff22a9066eb9975cd9,001,2021-08-01_06h31.36.013,arrow_simon_norep,2021.1.2,MacIntel,62.5,,,,,,,,,,,p,2.298,39,0,39,0,1,,,,,,,,,,,,,,,,,,,,,
,,,,,,,,,,,,,,,,,,,,,,60fddaff22a9066eb9975cd9,001,2021-08-01_06h31.36.013,arrow_simon_norep,2021.1.2,MacIntel,62.5,,,,,,,,,,,o,2.749,40,0,40,0,1,,,,,,,,,,,,,,,,,,,,,
,,,,,,,,,,,,,,,,,,,,,,60fddaff22a9066eb9975cd9,001,2021-08-01_06h31.36.013,arrow_simon_norep,2021.1.2,MacIntel,62.5,,,,,,,,,,,p,2.35,41,0,41,0,1,,,,,,,,,,,,,,,,,,,,,
,,,,,,,,,,,,,,,,,,,,,,60fddaff22a9066eb9975cd9,001,2021-08-01_06h31.36.013,arrow_simon_norep,2021.1.2,MacIntel,62.5,,,,,,,,,,,o,2.437,42,0,42,0,1,,,,,,,,,,,,,,,,,,,,,
,,,,,,,,,,,,,,,,,,,,,,60fddaff22a9066eb9975cd9,001,2021-08-01_06h31.36.013,arrow_simon_norep,2021.1.2,MacIntel,62.5,,,,,,,,,,,p,2.355,43,0,43,0,1,,,,,,,,,,,,,,,,,,,,,
,,,,,,,,,,,,,,,,,,,,,,60fddaff22a9066eb9975cd9,001,2021-08-01_06h31.36.013,arrow_simon_norep,2021.1.2,MacIntel,62.5,,,,,,,,,,,o,2.797,44,0,44,0,1,,,,,,,,,,,,,,,,,,,,,
,,,,,,,,,,,,,,,,,,,,,,60fddaff22a9066eb9975cd9,001,2021-08-01_06h31.36.013,arrow_simon_norep,2021.1.2,MacIntel,62.5,,,,,,,,,,,p,2.152,45,0,45,0,1,,,,,,,,,,,,,,,,,,,,,
,,,,,,,,,,,,,,,,,,,,,,60fddaff22a9066eb9975cd9,001,2021-08-01_06h31.36.013,arrow_simon_norep,2021.1.2,MacIntel,62.5,,,,,,,,,,,o,2.196,46,0,46,0,1,,,,,,,,,,,,,,,,,,,,,
,,,,,,,,,,,,,,,,,,,,,,60fddaff22a9066eb9975cd9,001,2021-08-01_06h31.36.013,arrow_simon_norep,2021.1.2,MacIntel,62.5,,,,,,,,,,,p,2.064,47,0,47,0,1,,,,,,,,,,,,,,,,,,,,,
,,,,,,,,,,,,,,,,,,,,,,60fddaff22a9066eb9975cd9,001,2021-08-01_06h31.36.013,arrow_simon_norep,2021.1.2,MacIntel,62.5,,,,,,,,,,,o,2.387,48,0,48,0,1,,,,,,,,,,,,,,,,,,,,,
,,,,,,,,,,,,,,,,,,,,,,60fddaff22a9066eb9975cd9,001,2021-08-01_06h31.36.013,arrow_simon_norep,2021.1.2,MacIntel,62.5,,,,,,,,,,,p,2.847,49,0,49,0,1,,,,,,,,,,,,,,,,,,,,,
,,,,,,,,,,,,,,,,,,,,,,60fddaff22a9066eb9975cd9,001,2021-08-01_06h31.36.013,arrow_simon_norep,2021.1.2,MacIntel,62.5,,,,,,,,,,,o,2.496,50,0,50,0,1,,,,,,,,,,,,,,,,,,,,,
,,,,,,,,,,,,,,,,,,,,,,60fddaff22a9066eb9975cd9,001,2021-08-01_06h31.36.013,arrow_simon_norep,2021.1.2,MacIntel,62.5,,,,,,,,,,,p,2.381,51,0,51,0,1,,,,,,,,,,,,,,,,,,,,,
,,,,,,,,,,,,,,,,,,,,,,60fddaff22a9066eb9975cd9,001,2021-08-01_06h31.36.013,arrow_simon_norep,2021.1.2,MacIntel,62.5,,,,,,,,,,,o,2.58,52,0,52,0,1,,,,,,,,,,,,,,,,,,,,,
,,,,,,,,,,,,,,,,,,,,,,60fddaff22a9066eb9975cd9,001,2021-08-01_06h31.36.013,arrow_simon_norep,2021.1.2,MacIntel,62.5,,,,,,,,,,,p,2.675,53,0,53,0,1,,,,,,,,,,,,,,,,,,,,,
,,,,,,,,,,,,,,,,,,,,,,60fddaff22a9066eb9975cd9,001,2021-08-01_06h31.36.013,arrow_simon_norep,2021.1.2,MacIntel,62.5,,,,,,,,,,,o,2.247,54,0,54,0,1,,,,,,,,,,,,,,,,,,,,,
,,,,,,,,,,,,,,,,,,,,,,60fddaff22a9066eb9975cd9,001,2021-08-01_06h31.36.013,arrow_simon_norep,2021.1.2,MacIntel,62.5,,,,,,,,,,,p,1.818,55,0,55,0,1,,,,,,,,,,,,,,,,,,,,,
,,,,,,,,,,,,,,,,,,,,,,60fddaff22a9066eb9975cd9,001,2021-08-01_06h31.36.013,arrow_simon_norep,2021.1.2,MacIntel,62.5,,,,,,,,,,,o,2.362,56,0,56,0,1,,,,,,,,,,,,,,,,,,,,,
,,,,,,,,,,,,,,,,,,,,,,60fddaff22a9066eb9975cd9,001,2021-08-01_06h31.36.013,arrow_simon_norep,2021.1.2,MacIntel,62.5,,,,,,,,,,,p,2.431,57,0,57,0,1,,,,,,,,,,,,,,,,,,,,,
,,,,,,,,,,,,,,,,,,,,,,60fddaff22a9066eb9975cd9,001,2021-08-01_06h31.36.013,arrow_simon_norep,2021.1.2,MacIntel,62.5,,,,,,,,,,,o,2.387,58,0,58,0,1,,,,,,,,,,,,,,,,,,,,,
,,,,,,,,,,,,,,,,,,,,,,60fddaff22a9066eb9975cd9,001,2021-08-01_06h31.36.013,arrow_simon_norep,2021.1.2,MacIntel,62.5,,,,,,,,,,,p,2.619,59,0,59,0,1,,,,,,,,,,,,,,,,,,,,,
,,,,,,0,1.74230528,#a3d0fb,,left_blue.png,w,,,,,,w,left_blue.png,left_orange.png,q,right,60fddaff22a9066eb9975cd9,001,2021-08-01_06h31.36.013,arrow_simon_norep,2021.1.2,MacIntel,62.5,,,,,,,,,,,,,,,,,,space,0,50.131,p,0,1.18,1,FALSE,TRUE,0,0,0,3,1,,,,,,,
,,,,,,0,2.34756578,#f3af84,,right_orange.png,p,,,,,,o,right_blue.png,right_orange.png,p,right,60fddaff22a9066eb9975cd9,001,2021-08-01_06h31.36.013,arrow_simon_norep,2021.1.2,MacIntel,62.5,,,,,,,,,,,,,,,,,,,,,o,0,1.743,2,TRUE,FALSE,0,1,1,1,1,,,,,,,
,,,,,,0,1.565361006,#a3d0fb,,left_blue.png,w,,,,,,w,left_blue.png,left_orange.png,q,left,60fddaff22a9066eb9975cd9,001,2021-08-01_06h31.36.013,arrow_simon_norep,2021.1.2,MacIntel,62.5,,,,,,,,,,,,,,,,,,,,,q,0,1.211,3,FALSE,TRUE,0,2,2,2,1,,,,,,,
,,,,,,0,2.308280387,#f3af84,,right_orange.png,p,,,,,,o,right_blue.png,right_orange.png,p,right,60fddaff22a9066eb9975cd9,001,2021-08-01_06h31.36.013,arrow_simon_norep,2021.1.2,MacIntel,62.5,,,,,,,,,,,,,,,,,,,,,o,0,0.65,4,FALSE,TRUE,0,3,3,1,1,,,,,,,
,,,,,,0,1.592428208,#a3d0fb,,left_blue.png,w,,,,,,w,left_blue.png,left_orange.png,q,left,60fddaff22a9066eb9975cd9,001,2021-08-01_06h31.36.013,arrow_simon_norep,2021.1.2,MacIntel,62.5,,,,,,,,,,,,,,,,,,,,,o,0,1.199,5,FALSE,TRUE,1,0,4,2,1,,,,,,,
,,,,,,1,2.305687359,#f3af84,,right_orange.png,p,,,,,,o,right_blue.png,right_orange.png,p,left,60fddaff22a9066eb9975cd9,001,2021-08-01_06h31.36.013,arrow_simon_norep,2021.1.2,MacIntel,62.5,,,,,,,,,,,,,,,,,,,,,w,0,1.575,6,FALSE,FALSE,1,1,5,0,1,,,,,,,
,,,,,,1,1.528415059,#a3d0fb,,left_blue.png,w,,,,,,w,left_blue.png,left_orange.png,q,left,60fddaff22a9066eb9975cd9,001,2021-08-01_06h31.36.013,arrow_simon_norep,2021.1.2,MacIntel,62.5,,,,,,,,,,,,,,,,,,,,,q,0,1.693,7,TRUE,FALSE,1,2,6,2,1,,,,,,,
,,,,,,1,1.687019176,#f3af84,,left_orange.png,q,,,,,,w,left_blue.png,left_orange.png,q,left,60fddaff22a9066eb9975cd9,001,2021-08-01_06h31.36.013,arrow_simon_norep,2021.1.2,MacIntel,62.5,,,,,,,,,,,,,,,,,,,,,q,1,1.357,8,FALSE,TRUE,1,3,7,2,1,,,,,,,
,,,,,,1,2.072543806,#a3d0fb,,right_blue.png,o,,,,,,o,right_blue.png,right_orange.png,p,left,60fddaff22a9066eb9975cd9,001,2021-08-01_06h31.36.013,arrow_simon_norep,2021.1.2,MacIntel,62.5,,,,,,,,,,,,,,,,,,,,,o,1,1.702,9,TRUE,FALSE,2,0,8,0,1,,,,,,,
,,,,,,1,1.512131775,#f3af84,,left_orange.png,q,,,,,,w,left_blue.png,left_orange.png,q,left,60fddaff22a9066eb9975cd9,001,2021-08-01_06h31.36.013,arrow_simon_norep,2021.1.2,MacIntel,62.5,,,,,,,,,,,,,,,,,,,,,q,1,1.622,10,TRUE,FALSE,2,1,9,2,1,,,,,,,
,,,,,,1,2.09681655,#a3d0fb,,right_blue.png,o,,,,,,o,right_blue.png,right_orange.png,p,right,60fddaff22a9066eb9975cd9,001,2021-08-01_06h31.36.013,arrow_simon_norep,2021.1.2,MacIntel,62.5,,,,,,,,,,,,,,,,,,,,,p,0,1.758,11,TRUE,FALSE,2,2,10,1,1,,,,,,,
,,,,,,1,2.464237498,#f3af84,,left_orange.png,q,,,,,,w,left_blue.png,left_orange.png,q,right,60fddaff22a9066eb9975cd9,001,2021-08-01_06h31.36.013,arrow_simon_norep,2021.1.2,MacIntel,62.5,,,,,,,,,,,,,,,,,,,,,o,0,1.659,12,TRUE,FALSE,2,3,11,3,1,,,,,,,
,,,,,,1,1.537629504,#a3d0fb,,right_blue.png,o,,,,,,o,right_blue.png,right_orange.png,p,right,60fddaff22a9066eb9975cd9,001,2021-08-01_06h31.36.013,arrow_simon_norep,2021.1.2,MacIntel,62.5,,,,,,,,,,,,,,,,,,,,,o,1,1.183,13,FALSE,TRUE,3,0,12,1,1,,,,,,,
,,,,,,1,1.581282928,#f3af84,,right_orange.png,p,,,,,,o,right_blue.png,right_orange.png,p,left,60fddaff22a9066eb9975cd9,001,2021-08-01_06h31.36.013,arrow_simon_norep,2021.1.2,MacIntel,62.5,,,,,,,,,,,,,,,,,,,,,q,0,0.873,14,FALSE,TRUE,3,1,13,0,1,,,,,,,
,,,,,,1,1.976624608,#a3d0fb,,left_blue.png,w,,,,,,w,left_blue.png,left_orange.png,q,right,60fddaff22a9066eb9975cd9,001,2021-08-01_06h31.36.013,arrow_simon_norep,2021.1.2,MacIntel,62.5,,,,,,,,,,,,,,,,,,,,,o,0,1.372,15,FALSE,TRUE,3,2,14,3,1,,,,,,,
,,,,,,1,2.13489587,#f3af84,,right_orange.png,p,,,,,,o,right_blue.png,right_orange.png,p,left,60fddaff22a9066eb9975cd9,001,2021-08-01_06h31.36.013,arrow_simon_norep,2021.1.2,MacIntel,62.5,,,,,,,,,,,,,,,,,,,,,o,0,1.584,16,FALSE,FALSE,3,3,15,0,1,,,,,,,
,,,,,,0,2.345632784,#a3d0fb,,right_blue.png,o,,,,,,o,right_blue.png,right_orange.png,p,right,60fddaff22a9066eb9975cd9,001,2021-08-01_06h31.36.013,arrow_simon_norep,2021.1.2,MacIntel,62.5,,,,,,,,,,,,,,,,,,,,,o,1,1.592,17,FALSE,FALSE,4,0,16,1,1,,,,,,,
,,,,,,0,1.755009345,#f3af84,,left_orange.png,q,,,,,,w,left_blue.png,left_orange.png,q,right,60fddaff22a9066eb9975cd9,001,2021-08-01_06h31.36.013,arrow_simon_norep,2021.1.2,MacIntel,62.5,,,,,,,,,,,,,,,,,,,,,p,0,1.106,18,FALSE,TRUE,4,1,17,3,1,,,,,,,
,,,,,,0,1.986002589,#a3d0fb,,left_blue.png,w,,,,,,w,left_blue.png,left_orange.png,q,right,60fddaff22a9066eb9975cd9,001,2021-08-01_06h31.36.013,arrow_simon_norep,2021.1.2,MacIntel,62.5,,,,,,,,,,,,,,,,,,,,,o,0,0.616,19,FALSE,TRUE,4,2,18,3,1,,,,,,,
,,,,,,0,2.483685062,#f3af84,,right_orange.png,p,,,,,,o,right_blue.png,right_orange.png,p,right,60fddaff22a9066eb9975cd9,001,2021-08-01_06h31.36.013,arrow_simon_norep,2021.1.2,MacIntel,62.5,,,,,,,,,,,,,,,,,,,,,o,0,1.772,20,TRUE,FALSE,4,3,19,1,1,,,,,,,
,,,,,,0,1.961071574,#a3d0fb,,right_blue.png,o,,,,,,o,right_blue.png,right_orange.png,p,left,60fddaff22a9066eb9975cd9,001,2021-08-01_06h31.36.013,arrow_simon_norep,2021.1.2,MacIntel,62.5,,,,,,,,,,,,,,,,,,,,,p,0,1.302,21,FALSE,TRUE,5,0,20,0,1,,,,,,,
,,,,,,0,2.380776806,#f3af84,,right_orange.png,p,,,,,,o,right_blue.png,right_orange.png,p,left,60fddaff22a9066eb9975cd9,001,2021-08-01_06h31.36.013,arrow_simon_norep,2021.1.2,MacIntel,62.5,,,,,,,,,,,,,,,,,,,,,w,0,1.604,22,TRUE,FALSE,5,1,21,0,1,,,,,,,
,,,,,,0,1.806915267,#a3d0fb,,left_blue.png,w,,,,,,w,left_blue.png,left_orange.png,q,left,60fddaff22a9066eb9975cd9,001,2021-08-01_06h31.36.013,arrow_simon_norep,2021.1.2,MacIntel,62.5,,,,,,,,,,,,,,,,,,,,,o,0,0.443,23,FALSE,TRUE,5,2,22,2,1,,,,,,,
,,,,,,1,2.406049507,#f3af84,,right_orange.png,p,,,,,,o,right_blue.png,right_orange.png,p,right,60fddaff22a9066eb9975cd9,001,2021-08-01_06h31.36.013,arrow_simon_norep,2021.1.2,MacIntel,62.5,,,,,,,,,,,,,,,,,,,,,o,0,1.466,24,FALSE,FALSE,5,3,23,1,1,,,,,,,
,,,,,,1,1.877700333,#a3d0fb,,left_blue.png,w,,,,,,w,left_blue.png,left_orange.png,q,right,60fddaff22a9066eb9975cd9,001,2021-08-01_06h31.36.013,arrow_simon_norep,2021.1.2,MacIntel,62.5,,,,,,,,,,,,,,,,,,,,,w,1,1.754,25,TRUE,FALSE,6,0,24,3,1,,,,,,,
,,,,,,1,2.136327456,#f3af84,,left_orange.png,q,,,,,,w,left_blue.png,left_orange.png,q,right,60fddaff22a9066eb9975cd9,001,2021-08-01_06h31.36.013,arrow_simon_norep,2021.1.2,MacIntel,62.5,,,,,,,,,,,,,,,,,,,,,o,0,1.601,26,TRUE,FALSE,6,1,25,3,1,,,,,,,
,,,,,,1,1.685288199,#a3d0fb,,left_blue.png,w,,,,,,w,left_blue.png,left_orange.png,q,right,60fddaff22a9066eb9975cd9,001,2021-08-01_06h31.36.013,arrow_simon_norep,2021.1.2,MacIntel,62.5,,,,,,,,,,,,,,,,,,,,,q,0,1.333,27,FALSE,TRUE,6,2,26,3,1,,,,,,,
,,,,,,1,2.030402164,#f3af84,,left_orange.png,q,,,,,,w,left_blue.png,left_orange.png,q,left,60fddaff22a9066eb9975cd9,001,2021-08-01_06h31.36.013,arrow_simon_norep,2021.1.2,MacIntel,62.5,,,,,,,,,,,,,,,,,,,,,w,0,1.117,28,FALSE,TRUE,6,3,27,2,1,,,,,,,
,,,,,,1,2.436378915,#a3d0fb,,right_blue.png,o,,,,,,o,right_blue.png,right_orange.png,p,left,60fddaff22a9066eb9975cd9,001,2021-08-01_06h31.36.013,arrow_simon_norep,2021.1.2,MacIntel,62.5,,,,,,,,,,,,,,,,,,,,,w,0,1.723,29,TRUE,FALSE,7,0,28,0,1,,,,,,,
,,,,,,1,1.757192689,#f3af84,,right_orange.png,p,,,,,,o,right_blue.png,right_orange.png,p,right,60fddaff22a9066eb9975cd9,001,2021-08-01_06h31.36.013,arrow_simon_norep,2021.1.2,MacIntel,62.5,,,,,,,,,,,,,,,,,,,,,o,0,1.316,30,FALSE,TRUE,7,1,29,1,1,,,,,,,
,,,,,,1,1.650177256,#a3d0fb,,left_blue.png,w,,,,,,w,left_blue.png,left_orange.png,q,left,60fddaff22a9066eb9975cd9,001,2021-08-01_06h31.36.013,arrow_simon_norep,2021.1.2,MacIntel,62.5,,,,,,,,,,,,,,,,,,,,,q,0,1.257,31,FALSE,TRUE,7,2,30,2,1,,,,,,,
,,,,,,1,1.56894781,#f3af84,,left_orange.png,q,,,,,,w,left_blue.png,left_orange.png,q,left,60fddaff22a9066eb9975cd9,001,2021-08-01_06h31.36.013,arrow_simon_norep,2021.1.2,MacIntel,62.5,,,,,,,,,,,,,,,,,,,,,w,0,1.149,32,FALSE,TRUE,7,3,31,2,1,,,,,,,
,,,,,,1,1.551551335,#a3d0fb,,right_blue.png,o,,,,,,o,right_blue.png,right_orange.png,p,right,60fddaff22a9066eb9975cd9,001,2021-08-01_06h31.36.013,arrow_simon_norep,2021.1.2,MacIntel,62.5,,,,,,,,,,,,,,,,,,,,,p,0,1.201,33,FALSE,TRUE,8,0,32,1,1,,,,,,,
,,,,,,1,2.188807406,#f3af84,,right_orange.png,p,,,,,,o,right_blue.png,right_orange.png,p,right,60fddaff22a9066eb9975cd9,001,2021-08-01_06h31.36.013,arrow_simon_norep,2021.1.2,MacIntel,62.5,,,,,,,,,,,,,,,,,,,,,o,0,1.588,34,FALSE,FALSE,8,1,33,1,1,,,,,,,
,,,,,,1,2.074706076,#a3d0fb,,left_blue.png,w,,,,,,w,left_blue.png,left_orange.png,q,right,60fddaff22a9066eb9975cd9,001,2021-08-01_06h31.36.013,arrow_simon_norep,2021.1.2,MacIntel,62.5,,,,,,,,,,,,,,,,,,,,,w,1,1.622,35,TRUE,FALSE,8,2,34,3,1,,,,,,,
,,,,,,1,1.993415518,#f3af84,,right_orange.png,p,,,,,,o,right_blue.png,right_orange.png,p,right,60fddaff22a9066eb9975cd9,001,2021-08-01_06h31.36.013,arrow_simon_norep,2021.1.2,MacIntel,62.5,,,,,,,,,,,,,,,,,,,,,p,1,1.369,36,FALSE,TRUE,8,3,35,1,1,,,,,,,
,,,,,,1,2.003090285,#a3d0fb,,right_blue.png,o,,,,,,o,right_blue.png,right_orange.png,p,left,60fddaff22a9066eb9975cd9,001,2021-08-01_06h31.36.013,arrow_simon_norep,2021.1.2,MacIntel,62.5,,,,,,,,,,,,,,,,,,,,,o,1,1.684,37,TRUE,FALSE,9,0,36,0,1,,,,,,,
,,,,,,1,1.548194461,#f3af84,,left_orange.png,q,,,,,,w,left_blue.png,left_orange.png,q,right,60fddaff22a9066eb9975cd9,001,2021-08-01_06h31.36.013,arrow_simon_norep,2021.1.2,MacIntel,62.5,,,,,,,,,,,,,,,,,,,,,q,1,1.366,38,FALSE,TRUE,9,1,37,3,1,,,,,,,
,,,,,,0,1.95197815,#a3d0fb,,right_blue.png,o,,,,,,o,right_blue.png,right_orange.png,p,right,60fddaff22a9066eb9975cd9,001,2021-08-01_06h31.36.013,arrow_simon_norep,2021.1.2,MacIntel,62.5,,,,,,,,,,,,,,,,,,,,,o,1,1.421,39,FALSE,FALSE,9,2,38,1,1,,,,,,,
,,,,,,0,1.991169909,#f3af84,,left_orange.png,q,,,,,,w,left_blue.png,left_orange.png,q,left,60fddaff22a9066eb9975cd9,001,2021-08-01_06h31.36.013,arrow_simon_norep,2021.1.2,MacIntel,62.5,,,,,,,,,,,,,,,,,,,,,q,1,1.509,40,FALSE,FALSE,9,3,39,2,1,,,,,,,
,,,,,,0,2.033174335,#a3d0fb,,left_blue.png,w,,,,,,w,left_blue.png,left_orange.png,q,right,60fddaff22a9066eb9975cd9,001,2021-08-01_06h31.36.013,arrow_simon_norep,2021.1.2,MacIntel,62.5,,,,,,,,,,,,,,,,,,,,,p,0,1.371,41,FALSE,TRUE,10,0,40,3,1,,,,,,,
,,,,,,1,1.868436122,#f3af84,,right_orange.png,p,,,,,,o,right_blue.png,right_orange.png,p,left,60fddaff22a9066eb9975cd9,001,2021-08-01_06h31.36.013,arrow_simon_norep,2021.1.2,MacIntel,62.5,,,,,,,,,,,,,,,,,,,,,o,0,1.588,42,FALSE,FALSE,10,1,41,0,1,,,,,,,
,,,,,,1,1.853249218,#a3d0fb,,left_blue.png,w,,,,,,w,left_blue.png,left_orange.png,q,left,60fddaff22a9066eb9975cd9,001,2021-08-01_06h31.36.013,arrow_simon_norep,2021.1.2,MacIntel,62.5,,,,,,,,,,,,,,,,,,,,,o,0,1.276,43,FALSE,TRUE,10,2,42,2,1,,,,,,,
,,,,,,1,2.241588721,#f3af84,,right_orange.png,p,,,,,,o,right_blue.png,right_orange.png,p,right,60fddaff22a9066eb9975cd9,001,2021-08-01_06h31.36.013,arrow_simon_norep,2021.1.2,MacIntel,62.5,,,,,,,,,,,,,,,,,,,,,q,0,1.742,44,TRUE,FALSE,10,3,43,1,1,,,,,,,
,,,,,,1,1.874571737,#a3d0fb,,right_blue.png,o,,,,,,o,right_blue.png,right_orange.png,p,left,60fddaff22a9066eb9975cd9,001,2021-08-01_06h31.36.013,arrow_simon_norep,2021.1.2,MacIntel,62.5,,,,,,,,,,,,,,,,,,,,,p,0,1.472,45,FALSE,FALSE,11,0,44,0,1,,,,,,,
,,,,,,1,2.319103785,#f3af84,,left_orange.png,q,,,,,,w,left_blue.png,left_orange.png,q,left,60fddaff22a9066eb9975cd9,001,2021-08-01_06h31.36.013,arrow_simon_norep,2021.1.2,MacIntel,62.5,,,,,,,,,,,,,,,,,,,,,q,1,1.868,46,TRUE,FALSE,11,1,45,2,1,,,,,,,
,,,,,,1,2.08034685,#a3d0fb,,left_blue.png,w,,,,,,w,left_blue.png,left_orange.png,q,left,60fddaff22a9066eb9975cd9,001,2021-08-01_06h31.36.013,arrow_simon_norep,2021.1.2,MacIntel,62.5,,,,,,,,,,,,,,,,,,,,,w,1,1.683,47,TRUE,FALSE,11,2,46,2,1,,,,,,,
,,,,,,1,2.449633527,#f3af84,,left_orange.png,q,,,,,,w,left_blue.png,left_orange.png,q,right,60fddaff22a9066eb9975cd9,001,2021-08-01_06h31.36.013,arrow_simon_norep,2021.1.2,MacIntel,62.5,,,,,,,,,,,,,,,,,,,,,p,0,1.717,48,TRUE,FALSE,11,3,47,3,1,,,,,,,
,,,,,,0,1.728424793,#a3d0fb,,right_blue.png,o,,,,,,o,right_blue.png,right_orange.png,p,left,60fddaff22a9066eb9975cd9,001,2021-08-01_06h31.36.013,arrow_simon_norep,2021.1.2,MacIntel,62.5,,,,,,,,,,,,,,,,,,,,,o,1,1.466,49,FALSE,FALSE,12,0,48,0,1,,,,,,,
,,,,,,0,2.19490786,#f3af84,,right_orange.png,p,,,,,,o,right_blue.png,right_orange.png,p,right,60fddaff22a9066eb9975cd9,001,2021-08-01_06h31.36.013,arrow_simon_norep,2021.1.2,MacIntel,62.5,,,,,,,,,,,,,,,,,,,,,p,1,1.733,50,TRUE,FALSE,12,1,49,1,1,,,,,,,
,,,,,,1,1.921027846,#a3d0fb,,right_blue.png,o,,,,,,o,right_blue.png,right_orange.png,p,left,60fddaff22a9066eb9975cd9,001,2021-08-01_06h31.36.013,arrow_simon_norep,2021.1.2,MacIntel,62.5,,,,,,,,,,,,,,,,,,,,,p,0,1.482,51,FALSE,FALSE,12,2,50,0,1,,,,,,,
,,,,,,1,1.693762669,#f3af84,,left_orange.png,q,,,,,,w,left_blue.png,left_orange.png,q,right,60fddaff22a9066eb9975cd9,001,2021-08-01_06h31.36.013,arrow_simon_norep,2021.1.2,MacIntel,62.5,,,,,,,,,,,,,,,,,,,,,q,1,1.109,52,FALSE,TRUE,12,3,51,3,1,,,,,,,
,,,,,,1,2.023242388,#a3d0fb,,right_blue.png,o,,,,,,o,right_blue.png,right_orange.png,p,right,60fddaff22a9066eb9975cd9,001,2021-08-01_06h31.36.013,arrow_simon_norep,2021.1.2,MacIntel,62.5,,,,,,,,,,,,,,,,,,,,,o,1,1.655,53,TRUE,FALSE,13,0,52,1,1,,,,,,,
,,,,,,1,2.406756651,#f3af84,,left_orange.png,q,,,,,,w,left_blue.png,left_orange.png,q,left,60fddaff22a9066eb9975cd9,001,2021-08-01_06h31.36.013,arrow_simon_norep,2021.1.2,MacIntel,62.5,,,,,,,,,,,,,,,,,,,,,q,1,1.85,54,TRUE,FALSE,13,1,53,2,1,,,,,,,
,,,,,,0,1.827650593,#a3d0fb,,left_blue.png,w,,,,,,w,left_blue.png,left_orange.png,q,left,60fddaff22a9066eb9975cd9,001,2021-08-01_06h31.36.013,arrow_simon_norep,2021.1.2,MacIntel,62.5,,,,,,,,,,,,,,,,,,,,,w,1,1.405,55,FALSE,FALSE,13,2,54,2,1,,,,,,,
,,,,,,0,1.887659849,#f3af84,,right_orange.png,p,,,,,,o,right_blue.png,right_orange.png,p,left,60fddaff22a9066eb9975cd9,001,2021-08-01_06h31.36.013,arrow_simon_norep,2021.1.2,MacIntel,62.5,,,,,,,,,,,,,,,,,,,,,p,1,2.195,56,TRUE,FALSE,13,3,55,0,1,,,,,,,
,,,,,,0,1.500346322,#a3d0fb,,left_blue.png,w,,,,,,w,left_blue.png,left_orange.png,q,right,60fddaff22a9066eb9975cd9,001,2021-08-01_06h31.36.013,arrow_simon_norep,2021.1.2,MacIntel,62.5,,,,,,,,,,,,,,,,,,,,,w,1,0.77,57,FALSE,TRUE,14,0,56,3,1,,,,,,,
,,,,,,1,2.47611762,#f3af84,,left_orange.png,q,,,,,,w,left_blue.png,left_orange.png,q,right,60fddaff22a9066eb9975cd9,001,2021-08-01_06h31.36.013,arrow_simon_norep,2021.1.2,MacIntel,62.5,,,,,,,,,,,,,,,,,,,,,p,0,1.542,58,FALSE,FALSE,14,1,57,3,1,,,,,,,
,,,,,,0,2.048212246,#a3d0fb,,right_blue.png,o,,,,,,o,right_blue.png,right_orange.png,p,left,60fddaff22a9066eb9975cd9,001,2021-08-01_06h31.36.013,arrow_simon_norep,2021.1.2,MacIntel,62.5,,,,,,,,,,,,,,,,,,,,,o,1,1.599,59,FALSE,FALSE,14,2,58,0,1,,,,,,,
,,,,,,0,2.283879401,#f3af84,,right_orange.png,p,,,,,,o,right_blue.png,right_orange.png,p,left,60fddaff22a9066eb9975cd9,001,2021-08-01_06h31.36.013,arrow_simon_norep,2021.1.2,MacIntel,62.5,,,,,,,,,,,,,,,,,,,,,o,0,1.726,60,TRUE,FALSE,14,3,59,0,1,,,,,,,
,,,,,,,,,,,,,,,,,,,,,,60fddaff22a9066eb9975cd9,001,2021-08-01_06h31.36.013,arrow_simon_norep,2021.1.2,MacIntel,62.5,,,,,,,,,,,,,,,,,,,,,,,,,,,,,,,,space,13.914,0,0,0,0,1
,,,,,,0,1.823390096,#a3d0fb,,right_blue.png,o,,,,,,o,right_blue.png,right_orange.png,p,right,60fddaff22a9066eb9975cd9,001,2021-08-01_06h31.36.013,arrow_simon_norep,2021.1.2,MacIntel,62.5,,,,,,,,,,,,,,,,,,,,,o,1,1.342,1,FALSE,TRUE,0,0,0,1,1,,,,,,,
,,,,,,0,2.45210444,#f3af84,,right_orange.png,p,,,,,,o,right_blue.png,right_orange.png,p,right,60fddaff22a9066eb9975cd9,001,2021-08-01_06h31.36.013,arrow_simon_norep,2021.1.2,MacIntel,62.5,,,,,,,,,,,,,,,,,,,,,o,0,1.951,2,TRUE,FALSE,0,1,1,1,1,,,,,,,
,,,,,,0,2.405749097,#a3d0fb,,right_blue.png,o,,,,,,o,right_blue.png,right_orange.png,p,left,60fddaff22a9066eb9975cd9,001,2021-08-01_06h31.36.013,arrow_simon_norep,2021.1.2,MacIntel,62.5,,,,,,,,,,,,,,,,,,,,,o,1,1.985,3,TRUE,FALSE,0,2,2,0,1,,,,,,,
,,,,,,0,1.984302374,#f3af84,,left_orange.png,q,,,,,,w,left_blue.png,left_orange.png,q,left,60fddaff22a9066eb9975cd9,001,2021-08-01_06h31.36.013,arrow_simon_norep,2021.1.2,MacIntel,62.5,,,,,,,,,,,,,,,,,,,,,q,1,1.541,4,FALSE,FALSE,0,3,3,2,1,,,,,,,
,,,,,,0,1.682597392,#a3d0fb,,right_blue.png,o,,,,,,o,right_blue.png,right_orange.png,p,right,60fddaff22a9066eb9975cd9,001,2021-08-01_06h31.36.013,arrow_simon_norep,2021.1.2,MacIntel,62.5,,,,,,,,,,,,,,,,,,,,,o,1,1.482,5,FALSE,FALSE,1,0,4,1,1,,,,,,,
,,,,,,0,2.340298125,#f3af84,,right_orange.png,p,,,,,,o,right_blue.png,right_orange.png,p,right,60fddaff22a9066eb9975cd9,001,2021-08-01_06h31.36.013,arrow_simon_norep,2021.1.2,MacIntel,62.5,,,,,,,,,,,,,,,,,,,,,p,1,1.84,6,TRUE,FALSE,1,1,5,1,1,,,,,,,
,,,,,,1,1.945819259,#a3d0fb,,left_blue.png,w,,,,,,w,left_blue.png,left_orange.png,q,left,60fddaff22a9066eb9975cd9,001,2021-08-01_06h31.36.013,arrow_simon_norep,2021.1.2,MacIntel,62.5,,,,,,,,,,,,,,,,,,,,,q,0,1.416,7,FALSE,FALSE,1,2,6,2,1,,,,,,,
,,,,,,1,1.555121581,#f3af84,,left_orange.png,q,,,,,,w,left_blue.png,left_orange.png,q,right,60fddaff22a9066eb9975cd9,001,2021-08-01_06h31.36.013,arrow_simon_norep,2021.1.2,MacIntel,62.5,,,,,,,,,,,,,,,,,,,,,w,0,1.252,8,FALSE,TRUE,1,3,7,3,1,,,,,,,
,,,,,,1,1.576580622,#a3d0fb,,left_blue.png,w,,,,,,w,left_blue.png,left_orange.png,q,left,60fddaff22a9066eb9975cd9,001,2021-08-01_06h31.36.013,arrow_simon_norep,2021.1.2,MacIntel,62.5,,,,,,,,,,,,,,,,,,,,,w,1,1.032,9,FALSE,TRUE,2,0,8,2,1,,,,,,,
,,,,,,1,1.768438699,#f3af84,,right_orange.png,p,,,,,,o,right_blue.png,right_orange.png,p,right,60fddaff22a9066eb9975cd9,001,2021-08-01_06h31.36.013,arrow_simon_norep,2021.1.2,MacIntel,62.5,,,,,,,,,,,,,,,,,,,,,p,1,1.299,10,FALSE,TRUE,2,1,9,1,1,,,,,,,
,,,,,,1,1.709187149,#a3d0fb,,right_blue.png,o,,,,,,o,right_blue.png,right_orange.png,p,right,60fddaff22a9066eb9975cd9,001,2021-08-01_06h31.36.013,arrow_simon_norep,2021.1.2,MacIntel,62.5,,,,,,,,,,,,,,,,,,,,,o,1,1.15,11,FALSE,TRUE,2,2,10,1,1,,,,,,,
,,,,,,0,1.863749762,#f3af84,,right_orange.png,p,,,,,,o,right_blue.png,right_orange.png,p,left,60fddaff22a9066eb9975cd9,001,2021-08-01_06h31.36.013,arrow_simon_norep,2021.1.2,MacIntel,62.5,,,,,,,,,,,,,,,,,,,,,p,1,1.4,12,FALSE,FALSE,2,3,11,0,1,,,,,,,
,,,,,,0,2.175948282,#a3d0fb,,left_blue.png,w,,,,,,w,left_blue.png,left_orange.png,q,left,60fddaff22a9066eb9975cd9,001,2021-08-01_06h31.36.013,arrow_simon_norep,2021.1.2,MacIntel,62.5,,,,,,,,,,,,,,,,,,,,,w,1,1.635,13,TRUE,FALSE,3,0,12,2,1,,,,,,,
,,,,,,0,2.454541017,#f3af84,,left_orange.png,q,,,,,,w,left_blue.png,left_orange.png,q,right,60fddaff22a9066eb9975cd9,001,2021-08-01_06h31.36.013,arrow_simon_norep,2021.1.2,MacIntel,62.5,,,,,,,,,,,,,,,,,,,,,p,0,1.733,14,TRUE,FALSE,3,1,13,3,1,,,,,,,
,,,,,,0,1.950441399,#a3d0fb,,left_blue.png,w,,,,,,w,left_blue.png,left_orange.png,q,right,60fddaff22a9066eb9975cd9,001,2021-08-01_06h31.36.013,arrow_simon_norep,2021.1.2,MacIntel,62.5,,,,,,,,,,,,,,,,,,,,,w,1,1.533,15,FALSE,FALSE,3,2,14,3,1,,,,,,,
,,,,,,0,2.243617045,#f3af84,,right_orange.png,p,,,,,,o,right_blue.png,right_orange.png,p,right,60fddaff22a9066eb9975cd9,001,2021-08-01_06h31.36.013,arrow_simon_norep,2021.1.2,MacIntel,62.5,,,,,,,,,,,,,,,,,,,,,p,1,1.564,16,FALSE,FALSE,3,3,15,1,1,,,,,,,
,,,,,,0,2.119426951,#a3d0fb,,left_blue.png,w,,,,,,w,left_blue.png,left_orange.png,q,right,60fddaff22a9066eb9975cd9,001,2021-08-01_06h31.36.013,arrow_simon_norep,2021.1.2,MacIntel,62.5,,,,,,,,,,,,,,,,,,,,,w,1,1.548,17,FALSE,FALSE,4,0,16,3,1,,,,,,,
,,,,,,0,1.854872928,#f3af84,,right_orange.png,p,,,,,,o,right_blue.png,right_orange.png,p,left,60fddaff22a9066eb9975cd9,001,2021-08-01_06h31.36.013,arrow_simon_norep,2021.1.2,MacIntel,62.5,,,,,,,,,,,,,,,,,,,,,o,0,1.349,18,FALSE,TRUE,4,1,17,0,1,,,,,,,
,,,,,,0,1.839947879,#a3d0fb,,right_blue.png,o,,,,,,o,right_blue.png,right_orange.png,p,left,60fddaff22a9066eb9975cd9,001,2021-08-01_06h31.36.013,arrow_simon_norep,2021.1.2,MacIntel,62.5,,,,,,,,,,,,,,,,,,,,,w,0,1.374,19,FALSE,TRUE,4,2,18,0,1,,,,,,,
,,,,,,0,1.79753764,#f3af84,,left_orange.png,q,,,,,,w,left_blue.png,left_orange.png,q,right,60fddaff22a9066eb9975cd9,001,2021-08-01_06h31.36.013,arrow_simon_norep,2021.1.2,MacIntel,62.5,,,,,,,,,,,,,,,,,,,,,w,0,1.337,20,FALSE,TRUE,4,3,19,3,1,,,,,,,
,,,,,,0,1.671374695,#a3d0fb,,left_blue.png,w,,,,,,w,left_blue.png,left_orange.png,q,left,60fddaff22a9066eb9975cd9,001,2021-08-01_06h31.36.013,arrow_simon_norep,2021.1.2,MacIntel,62.5,,,,,,,,,,,,,,,,,,,,,q,0,1.334,21,FALSE,TRUE,5,0,20,2,1,,,,,,,
,,,,,,1,2.216507581,#f3af84,,right_orange.png,p,,,,,,o,right_blue.png,right_orange.png,p,left,60fddaff22a9066eb9975cd9,001,2021-08-01_06h31.36.013,arrow_simon_norep,2021.1.2,MacIntel,62.5,,,,,,,,,,,,,,,,,,,,,w,0,1.517,22,FALSE,FALSE,5,1,21,0,1,,,,,,,
,,,,,,1,2.451535972,#a3d0fb,,left_blue.png,w,,,,,,w,left_blue.png,left_orange.png,q,right,60fddaff22a9066eb9975cd9,001,2021-08-01_06h31.36.013,arrow_simon_norep,2021.1.2,MacIntel,62.5,,,,,,,,,,,,,,,,,,,,,w,1,2.005,23,TRUE,FALSE,5,2,22,3,1,,,,,,,
,,,,,,1,2.036789784,#f3af84,,right_orange.png,p,,,,,,o,right_blue.png,right_orange.png,p,left,60fddaff22a9066eb9975cd9,001,2021-08-01_06h31.36.013,arrow_simon_norep,2021.1.2,MacIntel,62.5,,,,,,,,,,,,,,,,,,,,,p,1,1.932,24,TRUE,FALSE,5,3,23,0,1,,,,,,,
,,,,,,1,1.671392409,#a3d0fb,,left_blue.png,w,,,,,,w,left_blue.png,left_orange.png,q,left,60fddaff22a9066eb9975cd9,001,2021-08-01_06h31.36.013,arrow_simon_norep,2021.1.2,MacIntel,62.5,,,,,,,,,,,,,,,,,,,,,w,1,1.365,25,FALSE,TRUE,6,0,24,2,1,,,,,,,
,,,,,,1,2.18878408,#f3af84,,right_orange.png,p,,,,,,o,right_blue.png,right_orange.png,p,left,60fddaff22a9066eb9975cd9,001,2021-08-01_06h31.36.013,arrow_simon_norep,2021.1.2,MacIntel,62.5,,,,,,,,,,,,,,,,,,,,,p,1,1.651,26,TRUE,FALSE,6,1,25,0,1,,,,,,,
,,,,,,1,2.090472698,#a3d0fb,,right_blue.png,o,,,,,,o,right_blue.png,right_orange.png,p,left,60fddaff22a9066eb9975cd9,001,2021-08-01_06h31.36.013,arrow_simon_norep,2021.1.2,MacIntel,62.5,,,,,,,,,,,,,,,,,,,,,o,1,1.654,27,TRUE,FALSE,6,2,26,0,1,,,,,,,
,,,,,,1,2.264471128,#f3af84,,left_orange.png,q,,,,,,w,left_blue.png,left_orange.png,q,right,60fddaff22a9066eb9975cd9,001,2021-08-01_06h31.36.013,arrow_simon_norep,2021.1.2,MacIntel,62.5,,,,,,,,,,,,,,,,,,,,,q,1,1.867,28,TRUE,FALSE,6,3,27,3,1,,,,,,,
,,,,,,0,1.815347054,#a3d0fb,,left_blue.png,w,,,,,,w,left_blue.png,left_orange.png,q,right,60fddaff22a9066eb9975cd9,001,2021-08-01_06h31.36.013,arrow_simon_norep,2021.1.2,MacIntel,62.5,,,,,,,,,,,,,,,,,,,,,w,1,1.519,29,FALSE,FALSE,7,0,28,3,1,,,,,,,
,,,,,,0,2.168245454,#f3af84,,left_orange.png,q,,,,,,w,left_blue.png,left_orange.png,q,right,60fddaff22a9066eb9975cd9,001,2021-08-01_06h31.36.013,arrow_simon_norep,2021.1.2,MacIntel,62.5,,,,,,,,,,,,,,,,,,,,,q,1,1.638,30,TRUE,FALSE,7,1,29,3,1,,,,,,,
,,,,,,0,1.903361593,#a3d0fb,,left_blue.png,w,,,,,,w,left_blue.png,left_orange.png,q,right,60fddaff22a9066eb9975cd9,001,2021-08-01_06h31.36.013,arrow_simon_norep,2021.1.2,MacIntel,62.5,,,,,,,,,,,,,,,,,,,,,w,1,1.399,31,FALSE,TRUE,7,2,30,3,1,,,,,,,
,,,,,,0,1.958026118,#f3af84,,right_orange.png,p,,,,,,o,right_blue.png,right_orange.png,p,left,60fddaff22a9066eb9975cd9,001,2021-08-01_06h31.36.013,arrow_simon_norep,2021.1.2,MacIntel,62.5,,,,,,,,,,,,,,,,,,,,,p,1,1.399,32,FALSE,TRUE,7,3,31,0,1,,,,,,,
,,,,,,0,1.548668986,#a3d0fb,,right_blue.png,o,,,,,,o,right_blue.png,right_orange.png,p,right,60fddaff22a9066eb9975cd9,001,2021-08-01_06h31.36.013,arrow_simon_norep,2021.1.2,MacIntel,62.5,,,,,,,,,,,,,,,,,,,,,o,1,1.234,33,FALSE,TRUE,8,0,32,1,1,,,,,,,
,,,,,,0,1.975720461,#f3af84,,right_orange.png,p,,,,,,o,right_blue.png,right_orange.png,p,right,60fddaff22a9066eb9975cd9,001,2021-08-01_06h31.36.013,arrow_simon_norep,2021.1.2,MacIntel,62.5,,,,,,,,,,,,,,,,,,,,,p,1,1.442,34,FALSE,FALSE,8,1,33,1,1,,,,,,,
,,,,,,0,1.526424739,#a3d0fb,,right_blue.png,o,,,,,,o,right_blue.png,right_orange.png,p,left,60fddaff22a9066eb9975cd9,001,2021-08-01_06h31.36.013,arrow_simon_norep,2021.1.2,MacIntel,62.5,,,,,,,,,,,,,,,,,,,,,o,1,1.137,35,FALSE,TRUE,8,2,34,0,1,,,,,,,
,,,,,,0,1.648339878,#f3af84,,left_orange.png,q,,,,,,w,left_blue.png,left_orange.png,q,right,60fddaff22a9066eb9975cd9,001,2021-08-01_06h31.36.013,arrow_simon_norep,2021.1.2,MacIntel,62.5,,,,,,,,,,,,,,,,,,,,,q,1,1.238,36,FALSE,TRUE,8,3,35,3,1,,,,,,,
,,,,,,0,1.983563392,#a3d0fb,,right_blue.png,o,,,,,,o,right_blue.png,right_orange.png,p,left,60fddaff22a9066eb9975cd9,001,2021-08-01_06h31.36.013,arrow_simon_norep,2021.1.2,MacIntel,62.5,,,,,,,,,,,,,,,,,,,,,o,1,1.65,37,TRUE,FALSE,9,0,36,0,1,,,,,,,
,,,,,,0,2.445053023,#f3af84,,left_orange.png,q,,,,,,w,left_blue.png,left_orange.png,q,right,60fddaff22a9066eb9975cd9,001,2021-08-01_06h31.36.013,arrow_simon_norep,2021.1.2,MacIntel,62.5,,,,,,,,,,,,,,,,,,,,,w,0,1.934,38,TRUE,FALSE,9,1,37,3,1,,,,,,,
,,,,,,0,2.384050284,#a3d0fb,,right_blue.png,o,,,,,,o,right_blue.png,right_orange.png,p,right,60fddaff22a9066eb9975cd9,001,2021-08-01_06h31.36.013,arrow_simon_norep,2021.1.2,MacIntel,62.5,,,,,,,,,,,,,,,,,,,,,o,1,1.876,39,TRUE,FALSE,9,2,38,1,1,,,,,,,
,,,,,,0,2.215043366,#f3af84,,left_orange.png,q,,,,,,w,left_blue.png,left_orange.png,q,left,60fddaff22a9066eb9975cd9,001,2021-08-01_06h31.36.013,arrow_simon_norep,2021.1.2,MacIntel,62.5,,,,,,,,,,,,,,,,,,,,,q,1,1.688,40,TRUE,FALSE,9,3,39,2,1,,,,,,,
,,,,,,0,1.703477029,#a3d0fb,,left_blue.png,w,,,,,,w,left_blue.png,left_orange.png,q,left,60fddaff22a9066eb9975cd9,001,2021-08-01_06h31.36.013,arrow_simon_norep,2021.1.2,MacIntel,62.5,,,,,,,,,,,,,,,,,,,,,q,0,1.204,41,FALSE,TRUE,10,0,40,2,1,,,,,,,
,,,,,,0,2.057472878,#f3af84,,left_orange.png,q,,,,,,w,left_blue.png,left_orange.png,q,left,60fddaff22a9066eb9975cd9,001,2021-08-01_06h31.36.013,arrow_simon_norep,2021.1.2,MacIntel,62.5,,,,,,,,,,,,,,,,,,,,,q,1,1.523,42,FALSE,FALSE,10,1,41,2,1,,,,,,,
,,,,,,0,2.309847237,#a3d0fb,,left_blue.png,w,,,,,,w,left_blue.png,left_orange.png,q,left,60fddaff22a9066eb9975cd9,001,2021-08-01_06h31.36.013,arrow_simon_norep,2021.1.2,MacIntel,62.5,,,,,,,,,,,,,,,,,,,,,w,1,1.541,43,FALSE,FALSE,10,2,42,2,1,,,,,,,
,,,,,,0,2.311899177,#f3af84,,left_orange.png,q,,,,,,w,left_blue.png,left_orange.png,q,left,60fddaff22a9066eb9975cd9,001,2021-08-01_06h31.36.013,arrow_simon_norep,2021.1.2,MacIntel,62.5,,,,,,,,,,,,,,,,,,,,,q,1,1.965,44,TRUE,FALSE,10,3,43,2,1,,,,,,,
,,,,,,0,2.406807513,#a3d0fb,,left_blue.png,w,,,,,,w,left_blue.png,left_orange.png,q,left,60fddaff22a9066eb9975cd9,001,2021-08-01_06h31.36.013,arrow_simon_norep,2021.1.2,MacIntel,62.5,,,,,,,,,,,,,,,,,,,,,w,1,1.99,45,TRUE,FALSE,11,0,44,2,1,,,,,,,
,,,,,,0,2.244888477,#f3af84,,left_orange.png,q,,,,,,w,left_blue.png,left_orange.png,q,left,60fddaff22a9066eb9975cd9,001,2021-08-01_06h31.36.013,arrow_simon_norep,2021.1.2,MacIntel,62.5,,,,,,,,,,,,,,,,,,,,,q,1,1.767,46,TRUE,FALSE,11,1,45,2,1,,,,,,,
,,,,,,0,2.084960573,#a3d0fb,,left_blue.png,w,,,,,,w,left_blue.png,left_orange.png,q,right,60fddaff22a9066eb9975cd9,001,2021-08-01_06h31.36.013,arrow_simon_norep,2021.1.2,MacIntel,62.5,,,,,,,,,,,,,,,,,,,,,w,1,1.602,47,TRUE,FALSE,11,2,46,3,1,,,,,,,
,,,,,,0,1.734323572,#f3af84,,right_orange.png,p,,,,,,o,right_blue.png,right_orange.png,p,right,60fddaff22a9066eb9975cd9,001,2021-08-01_06h31.36.013,arrow_simon_norep,2021.1.2,MacIntel,62.5,,,,,,,,,,,,,,,,,,,,,p,1,1.268,48,FALSE,TRUE,11,3,47,1,1,,,,,,,
,,,,,,0,1.52403563,#a3d0fb,,left_blue.png,w,,,,,,w,left_blue.png,left_orange.png,q,left,60fddaff22a9066eb9975cd9,001,2021-08-01_06h31.36.013,arrow_simon_norep,2021.1.2,MacIntel,62.5,,,,,,,,,,,,,,,,,,,,,q,0,0.95,49,FALSE,TRUE,12,0,48,2,1,,,,,,,
,,,,,,0,1.726110775,#f3af84,,right_orange.png,p,,,,,,o,right_blue.png,right_orange.png,p,left,60fddaff22a9066eb9975cd9,001,2021-08-01_06h31.36.013,arrow_simon_norep,2021.1.2,MacIntel,62.5,,,,,,,,,,,,,,,,,,,,,p,1,1.515,50,FALSE,FALSE,12,1,49,0,1,,,,,,,
,,,,,,0,2.047534002,#a3d0fb,,right_blue.png,o,,,,,,o,right_blue.png,right_orange.png,p,left,60fddaff22a9066eb9975cd9,001,2021-08-01_06h31.36.013,arrow_simon_norep,2021.1.2,MacIntel,62.5,,,,,,,,,,,,,,,,,,,,,o,1,1.552,51,FALSE,FALSE,12,2,50,0,1,,,,,,,
,,,,,,0,2.1331504,#f3af84,,right_orange.png,p,,,,,,o,right_blue.png,right_orange.png,p,left,60fddaff22a9066eb9975cd9,001,2021-08-01_06h31.36.013,arrow_simon_norep,2021.1.2,MacIntel,62.5,,,,,,,,,,,,,,,,,,,,,p,1,1.636,52,TRUE,FALSE,12,3,51,0,1,,,,,,,
,,,,,,0,2.278419137,#a3d0fb,,right_blue.png,o,,,,,,o,right_blue.png,right_orange.png,p,left,60fddaff22a9066eb9975cd9,001,2021-08-01_06h31.36.013,arrow_simon_norep,2021.1.2,MacIntel,62.5,,,,,,,,,,,,,,,,,,,,,o,1,1.726,53,TRUE,FALSE,13,0,52,0,1,,,,,,,
,,,,,,0,1.770494744,#f3af84,,right_orange.png,p,,,,,,o,right_blue.png,right_orange.png,p,right,60fddaff22a9066eb9975cd9,001,2021-08-01_06h31.36.013,arrow_simon_norep,2021.1.2,MacIntel,62.5,,,,,,,,,,,,,,,,,,,,,p,1,1.549,54,FALSE,FALSE,13,1,53,1,1,,,,,,,
,,,,,,0,1.652027903,#a3d0fb,,right_blue.png,o,,,,,,o,right_blue.png,right_orange.png,p,right,60fddaff22a9066eb9975cd9,001,2021-08-01_06h31.36.013,arrow_simon_norep,2021.1.2,MacIntel,62.5,,,,,,,,,,,,,,,,,,,,,o,1,1.184,55,FALSE,TRUE,13,2,54,1,1,,,,,,,
,,,,,,0,1.537153401,#f3af84,,right_orange.png,p,,,,,,o,right_blue.png,right_orange.png,p,right,60fddaff22a9066eb9975cd9,001,2021-08-01_06h31.36.013,arrow_simon_norep,2021.1.2,MacIntel,62.5,,,,,,,,,,,,,,,,,,,,,p,1,1.1,56,FALSE,TRUE,13,3,55,1,1,,,,,,,
,,,,,,0,2.058136824,#a3d0fb,,left_blue.png,w,,,,,,w,left_blue.png,left_orange.png,q,left,60fddaff22a9066eb9975cd9,001,2021-08-01_06h31.36.013,arrow_simon_norep,2021.1.2,MacIntel,62.5,,,,,,,,,,,,,,,,,,,,,w,1,1.626,57,TRUE,FALSE,14,0,56,2,1,,,,,,,
,,,,,,0,1.59386402,#f3af84,,left_orange.png,q,,,,,,w,left_blue.png,left_orange.png,q,right,60fddaff22a9066eb9975cd9,001,2021-08-01_06h31.36.013,arrow_simon_norep,2021.1.2,MacIntel,62.5,,,,,,,,,,,,,,,,,,,,,q,1,1.384,58,FALSE,TRUE,14,1,57,3,1,,,,,,,
,,,,,,0,2.494280441,#a3d0fb,,right_blue.png,o,,,,,,o,right_blue.png,right_orange.png,p,right,60fddaff22a9066eb9975cd9,001,2021-08-01_06h31.36.013,arrow_simon_norep,2021.1.2,MacIntel,62.5,,,,,,,,,,,,,,,,,,,,,p,0,1.937,59,TRUE,FALSE,14,2,58,1,1,,,,,,,
,,,,,,0,2.052078592,#f3af84,,left_orange.png,q,,,,,,w,left_blue.png,left_orange.png,q,right,60fddaff22a9066eb9975cd9,001,2021-08-01_06h31.36.013,arrow_simon_norep,2021.1.2,MacIntel,62.5,,,,,,,,,,,,,,,,,,,,,q,1,1.568,60,FALSE,FALSE,14,3,59,3,1,,,,,,,
,,,,,,,,,,,,,,,,,,,,,,60fddaff22a9066eb9975cd9,001,2021-08-01_06h31.36.013,arrow_simon_norep,2021.1.2,MacIntel,62.5,,,,,,,,,,,,,,,,,,,,,,,,,,,,,,,,space,17.201,1,0,1,0,1
,,,,,,0,1.662911245,#a3d0fb,,left_blue.png,w,,,,,,w,left_blue.png,left_orange.png,q,left,60fddaff22a9066eb9975cd9,001,2021-08-01_06h31.36.013,arrow_simon_norep,2021.1.2,MacIntel,62.5,,,,,,,,,,,,,,,,,,,,,q,0,1.25,1,FALSE,TRUE,0,0,0,2,1,,,,,,,
,,,,,,0,1.558746792,#f3af84,,right_orange.png,p,,,,,,o,right_blue.png,right_orange.png,p,right,60fddaff22a9066eb9975cd9,001,2021-08-01_06h31.36.013,arrow_simon_norep,2021.1.2,MacIntel,62.5,,,,,,,,,,,,,,,,,,,,,p,1,1.002,2,FALSE,TRUE,0,1,1,1,1,,,,,,,
,,,,,,0,1.639283467,#a3d0fb,,right_blue.png,o,,,,,,o,right_blue.png,right_orange.png,p,right,60fddaff22a9066eb9975cd9,001,2021-08-01_06h31.36.013,arrow_simon_norep,2021.1.2,MacIntel,62.5,,,,,,,,,,,,,,,,,,,,,o,1,1.033,3,FALSE,TRUE,0,2,2,1,1,,,,,,,
,,,,,,0,2.110501755,#f3af84,,right_orange.png,p,,,,,,o,right_blue.png,right_orange.png,p,right,60fddaff22a9066eb9975cd9,001,2021-08-01_06h31.36.013,arrow_simon_norep,2021.1.2,MacIntel,62.5,,,,,,,,,,,,,,,,,,,,,o,0,1.253,4,FALSE,TRUE,0,3,3,1,1,,,,,,,
,,,,,,0,2.051520576,#a3d0fb,,left_blue.png,w,,,,,,w,left_blue.png,left_orange.png,q,left,60fddaff22a9066eb9975cd9,001,2021-08-01_06h31.36.013,arrow_simon_norep,2021.1.2,MacIntel,62.5,,,,,,,,,,,,,,,,,,,,,w,1,1.391,5,FALSE,TRUE,1,0,4,2,1,,,,,,,
,,,,,,0,2.039733711,#f3af84,,right_orange.png,p,,,,,,o,right_blue.png,right_orange.png,p,right,60fddaff22a9066eb9975cd9,001,2021-08-01_06h31.36.013,arrow_simon_norep,2021.1.2,MacIntel,62.5,,,,,,,,,,,,,,,,,,,,,o,0,1.392,6,FALSE,TRUE,1,1,5,1,1,,,,,,,
,,,,,,0,1.681288972,#a3d0fb,,left_blue.png,w,,,,,,w,left_blue.png,left_orange.png,q,left,60fddaff22a9066eb9975cd9,001,2021-08-01_06h31.36.013,arrow_simon_norep,2021.1.2,MacIntel,62.5,,,,,,,,,,,,,,,,,,,,,w,1,1.184,7,FALSE,TRUE,1,2,6,2,1,,,,,,,
,,,,,,0,2.205218462,#f3af84,,left_orange.png,q,,,,,,w,left_blue.png,left_orange.png,q,right,60fddaff22a9066eb9975cd9,001,2021-08-01_06h31.36.013,arrow_simon_norep,2021.1.2,MacIntel,62.5,,,,,,,,,,,,,,,,,,,,,w,0,1.757,8,TRUE,FALSE,1,3,7,3,1,,,,,,,
,,,,,,0,2.451414376,#a3d0fb,,right_blue.png,o,,,,,,o,right_blue.png,right_orange.png,p,left,60fddaff22a9066eb9975cd9,001,2021-08-01_06h31.36.013,arrow_simon_norep,2021.1.2,MacIntel,62.5,,,,,,,,,,,,,,,,,,,,,o,1,1.975,9,TRUE,FALSE,2,0,8,0,1,,,,,,,
,,,,,,0,2.109020109,#f3af84,,right_orange.png,p,,,,,,o,right_blue.png,right_orange.png,p,left,60fddaff22a9066eb9975cd9,001,2021-08-01_06h31.36.013,arrow_simon_norep,2021.1.2,MacIntel,62.5,,,,,,,,,,,,,,,,,,,,,p,1,1.656,10,TRUE,FALSE,2,1,9,0,1,,,,,,,
,,,,,,0,1.525079221,#a3d0fb,,left_blue.png,w,,,,,,w,left_blue.png,left_orange.png,q,left,60fddaff22a9066eb9975cd9,001,2021-08-01_06h31.36.013,arrow_simon_norep,2021.1.2,MacIntel,62.5,,,,,,,,,,,,,,,,,,,,,w,1,1.241,11,FALSE,TRUE,2,2,10,2,1,,,,,,,
,,,,,,0,2.186935886,#f3af84,,right_orange.png,p,,,,,,o,right_blue.png,right_orange.png,p,right,60fddaff22a9066eb9975cd9,001,2021-08-01_06h31.36.013,arrow_simon_norep,2021.1.2,MacIntel,62.5,,,,,,,,,,,,,,,,,,,,,p,1,2.156,12,TRUE,FALSE,2,3,11,1,1,,,,,,,
,,,,,,1,2.168787688,#a3d0fb,,right_blue.png,o,,,,,,o,right_blue.png,right_orange.png,p,left,60fddaff22a9066eb9975cd9,001,2021-08-01_06h31.36.013,arrow_simon_norep,2021.1.2,MacIntel,62.5,,,,,,,,,,,,,,,,,,,,,w,0,1.533,13,FALSE,FALSE,3,0,12,0,1,,,,,,,
,,,,,,1,2.400647472,#f3af84,,left_orange.png,q,,,,,,w,left_blue.png,left_orange.png,q,right,60fddaff22a9066eb9975cd9,001,2021-08-01_06h31.36.013,arrow_simon_norep,2021.1.2,MacIntel,62.5,,,,,,,,,,,,,,,,,,,,,q,1,1.974,14,TRUE,FALSE,3,1,13,3,1,,,,,,,
,,,,,,0,1.600644467,#a3d0fb,,left_blue.png,w,,,,,,w,left_blue.png,left_orange.png,q,left,60fddaff22a9066eb9975cd9,001,2021-08-01_06h31.36.013,arrow_simon_norep,2021.1.2,MacIntel,62.5,,,,,,,,,,,,,,,,,,,,,w,1,1.405,15,FALSE,FALSE,3,2,14,2,1,,,,,,,
,,,,,,0,2.348312819,#f3af84,,right_orange.png,p,,,,,,o,right_blue.png,right_orange.png,p,left,60fddaff22a9066eb9975cd9,001,2021-08-01_06h31.36.013,arrow_simon_norep,2021.1.2,MacIntel,62.5,,,,,,,,,,,,,,,,,,,,,o,0,1.77,16,TRUE,FALSE,3,3,15,0,1,,,,,,,
,,,,,,0,2.020275961,#a3d0fb,,left_blue.png,w,,,,,,w,left_blue.png,left_orange.png,q,right,60fddaff22a9066eb9975cd9,001,2021-08-01_06h31.36.013,arrow_simon_norep,2021.1.2,MacIntel,62.5,,,,,,,,,,,,,,,,,,,,,q,0,1.749,17,TRUE,FALSE,4,0,16,3,1,,,,,,,
,,,,,,0,2.241938149,#f3af84,,left_orange.png,q,,,,,,w,left_blue.png,left_orange.png,q,right,60fddaff22a9066eb9975cd9,001,2021-08-01_06h31.36.013,arrow_simon_norep,2021.1.2,MacIntel,62.5,,,,,,,,,,,,,,,,,,,,,q,1,1.975,18,TRUE,FALSE,4,1,17,3,1,,,,,,,
,,,,,,0,2.423220377,#a3d0fb,,right_blue.png,o,,,,,,o,right_blue.png,right_orange.png,p,right,60fddaff22a9066eb9975cd9,001,2021-08-01_06h31.36.013,arrow_simon_norep,2021.1.2,MacIntel,62.5,,,,,,,,,,,,,,,,,,,,,o,1,1.804,19,TRUE,FALSE,4,2,18,1,1,,,,,,,
,,,,,,0,2.316803367,#f3af84,,left_orange.png,q,,,,,,w,left_blue.png,left_orange.png,q,left,60fddaff22a9066eb9975cd9,001,2021-08-01_06h31.36.013,arrow_simon_norep,2021.1.2,MacIntel,62.5,,,,,,,,,,,,,,,,,,,,,p,0,2.033,20,TRUE,FALSE,4,3,19,2,1,,,,,,,
,,,,,,1,2.020592836,#a3d0fb,,right_blue.png,o,,,,,,o,right_blue.png,right_orange.png,p,left,60fddaff22a9066eb9975cd9,001,2021-08-01_06h31.36.013,arrow_simon_norep,2021.1.2,MacIntel,62.5,,,,,,,,,,,,,,,,,,,,,p,0,1.549,21,FALSE,FALSE,5,0,20,0,1,,,,,,,
,,,,,,1,1.904452699,#f3af84,,left_orange.png,q,,,,,,w,left_blue.png,left_orange.png,q,left,60fddaff22a9066eb9975cd9,001,2021-08-01_06h31.36.013,arrow_simon_norep,2021.1.2,MacIntel,62.5,,,,,,,,,,,,,,,,,,,,,q,1,1.682,22,TRUE,FALSE,5,1,21,2,1,,,,,,,
,,,,,,1,2.464707782,#a3d0fb,,right_blue.png,o,,,,,,o,right_blue.png,right_orange.png,p,right,60fddaff22a9066eb9975cd9,001,2021-08-01_06h31.36.013,arrow_simon_norep,2021.1.2,MacIntel,62.5,,,,,,,,,,,,,,,,,,,,,o,1,2,23,TRUE,FALSE,5,2,22,1,1,,,,,,,
,,,,,,0,1.972537849,#f3af84,,left_orange.png,q,,,,,,w,left_blue.png,left_orange.png,q,right,60fddaff22a9066eb9975cd9,001,2021-08-01_06h31.36.013,arrow_simon_norep,2021.1.2,MacIntel,62.5,,,,,,,,,,,,,,,,,,,,,q,1,1.457,24,FALSE,FALSE,5,3,23,3,1,,,,,,,
,,,,,,0,2.274543655,#a3d0fb,,left_blue.png,w,,,,,,w,left_blue.png,left_orange.png,q,right,60fddaff22a9066eb9975cd9,001,2021-08-01_06h31.36.013,arrow_simon_norep,2021.1.2,MacIntel,62.5,,,,,,,,,,,,,,,,,,,,,q,0,1.933,25,TRUE,FALSE,6,0,24,3,1,,,,,,,
,,,,,,0,2.160509724,#f3af84,,right_orange.png,p,,,,,,o,right_blue.png,right_orange.png,p,right,60fddaff22a9066eb9975cd9,001,2021-08-01_06h31.36.013,arrow_simon_norep,2021.1.2,MacIntel,62.5,,,,,,,,,,,,,,,,,,,,,p,1,1.534,26,FALSE,FALSE,6,1,25,1,1,,,,,,,
,,,,,,0,2.195215451,#a3d0fb,,left_blue.png,w,,,,,,w,left_blue.png,left_orange.png,q,left,60fddaff22a9066eb9975cd9,001,2021-08-01_06h31.36.013,arrow_simon_norep,2021.1.2,MacIntel,62.5,,,,,,,,,,,,,,,,,,,,,w,1,1.815,27,TRUE,FALSE,6,2,26,2,1,,,,,,,
,,,,,,0,2.113072212,#f3af84,,left_orange.png,q,,,,,,w,left_blue.png,left_orange.png,q,right,60fddaff22a9066eb9975cd9,001,2021-08-01_06h31.36.013,arrow_simon_norep,2021.1.2,MacIntel,62.5,,,,,,,,,,,,,,,,,,,,,w,0,1.675,28,TRUE,FALSE,6,3,27,3,1,,,,,,,
,,,,,,0,1.757424395,#a3d0fb,,left_blue.png,w,,,,,,w,left_blue.png,left_orange.png,q,left,60fddaff22a9066eb9975cd9,001,2021-08-01_06h31.36.013,arrow_simon_norep,2021.1.2,MacIntel,62.5,,,,,,,,,,,,,,,,,,,,,q,0,1.359,29,FALSE,TRUE,7,0,28,2,1,,,,,,,
,,,,,,0,1.68917715,#f3af84,,right_orange.png,p,,,,,,o,right_blue.png,right_orange.png,p,right,60fddaff22a9066eb9975cd9,001,2021-08-01_06h31.36.013,arrow_simon_norep,2021.1.2,MacIntel,62.5,,,,,,,,,,,,,,,,,,,,,o,0,1.306,30,FALSE,TRUE,7,1,29,1,1,,,,,,,
,,,,,,0,1.76046651,#a3d0fb,,left_blue.png,w,,,,,,w,left_blue.png,left_orange.png,q,right,60fddaff22a9066eb9975cd9,001,2021-08-01_06h31.36.013,arrow_simon_norep,2021.1.2,MacIntel,62.5,,,,,,,,,,,,,,,,,,,,,w,1,1.382,31,FALSE,TRUE,7,2,30,3,1,,,,,,,
,,,,,,0,1.966156651,#f3af84,,right_orange.png,p,,,,,,o,right_blue.png,right_orange.png,p,right,60fddaff22a9066eb9975cd9,001,2021-08-01_06h31.36.013,arrow_simon_norep,2021.1.2,MacIntel,62.5,,,,,,,,,,,,,,,,,,,,,p,1,1.688,32,TRUE,FALSE,7,3,31,1,1,,,,,,,
,,,,,,0,1.620355523,#a3d0fb,,left_blue.png,w,,,,,,w,left_blue.png,left_orange.png,q,right,60fddaff22a9066eb9975cd9,001,2021-08-01_06h31.36.013,arrow_simon_norep,2021.1.2,MacIntel,62.5,,,,,,,,,,,,,,,,,,,,,q,0,1.207,33,FALSE,TRUE,8,0,32,3,1,,,,,,,
,,,,,,0,2.230899564,#f3af84,,right_orange.png,p,,,,,,o,right_blue.png,right_orange.png,p,left,60fddaff22a9066eb9975cd9,001,2021-08-01_06h31.36.013,arrow_simon_norep,2021.1.2,MacIntel,62.5,,,,,,,,,,,,,,,,,,,,,p,1,1.788,34,TRUE,FALSE,8,1,33,0,1,,,,,,,
,,,,,,0,2.108893845,#a3d0fb,,right_blue.png,o,,,,,,o,right_blue.png,right_orange.png,p,left,60fddaff22a9066eb9975cd9,001,2021-08-01_06h31.36.013,arrow_simon_norep,2021.1.2,MacIntel,62.5,,,,,,,,,,,,,,,,,,,,,o,1,1.832,35,TRUE,FALSE,8,2,34,0,1,,,,,,,
,,,,,,0,1.880047653,#f3af84,,right_orange.png,p,,,,,,o,right_blue.png,right_orange.png,p,left,60fddaff22a9066eb9975cd9,001,2021-08-01_06h31.36.013,arrow_simon_norep,2021.1.2,MacIntel,62.5,,,,,,,,,,,,,,,,,,,,,p,1,1.633,36,TRUE,FALSE,8,3,35,0,1,,,,,,,
,,,,,,0,2.404038239,#a3d0fb,,right_blue.png,o,,,,,,o,right_blue.png,right_orange.png,p,left,60fddaff22a9066eb9975cd9,001,2021-08-01_06h31.36.013,arrow_simon_norep,2021.1.2,MacIntel,62.5,,,,,,,,,,,,,,,,,,,,,o,1,1.865,37,TRUE,FALSE,9,0,36,0,1,,,,,,,
,,,,,,0,2.180169163,#f3af84,,left_orange.png,q,,,,,,w,left_blue.png,left_orange.png,q,left,60fddaff22a9066eb9975cd9,001,2021-08-01_06h31.36.013,arrow_simon_norep,2021.1.2,MacIntel,62.5,,,,,,,,,,,,,,,,,,,,,w,0,1.816,38,TRUE,FALSE,9,1,37,2,1,,,,,,,
,,,,,,0,1.71231672,#a3d0fb,,right_blue.png,o,,,,,,o,right_blue.png,right_orange.png,p,left,60fddaff22a9066eb9975cd9,001,2021-08-01_06h31.36.013,arrow_simon_norep,2021.1.2,MacIntel,62.5,,,,,,,,,,,,,,,,,,,,,o,1,1.474,39,FALSE,FALSE,9,2,38,0,1,,,,,,,
,,,,,,0,1.944170228,#f3af84,,right_orange.png,p,,,,,,o,right_blue.png,right_orange.png,p,left,60fddaff22a9066eb9975cd9,001,2021-08-01_06h31.36.013,arrow_simon_norep,2021.1.2,MacIntel,62.5,,,,,,,,,,,,,,,,,,,,,p,1,1.458,40,FALSE,FALSE,9,3,39,0,1,,,,,,,
,,,,,,0,2.296930081,#a3d0fb,,right_blue.png,o,,,,,,o,right_blue.png,right_orange.png,p,right,60fddaff22a9066eb9975cd9,001,2021-08-01_06h31.36.013,arrow_simon_norep,2021.1.2,MacIntel,62.5,,,,,,,,,,,,,,,,,,,,,o,1,1.938,41,TRUE,FALSE,10,0,40,1,1,,,,,,,
,,,,,,0,2.305876479,#f3af84,,right_orange.png,p,,,,,,o,right_blue.png,right_orange.png,p,right,60fddaff22a9066eb9975cd9,001,2021-08-01_06h31.36.013,arrow_simon_norep,2021.1.2,MacIntel,62.5,,,,,,,,,,,,,,,,,,,,,p,1,1.816,42,TRUE,FALSE,10,1,41,1,1,,,,,,,
,,,,,,0,2.253544114,#a3d0fb,,right_blue.png,o,,,,,,o,right_blue.png,right_orange.png,p,left,60fddaff22a9066eb9975cd9,001,2021-08-01_06h31.36.013,arrow_simon_norep,2021.1.2,MacIntel,62.5,,,,,,,,,,,,,,,,,,,,,o,1,1.822,43,TRUE,FALSE,10,2,42,0,1,,,,,,,
,,,,,,0,2.180920128,#f3af84,,left_orange.png,q,,,,,,w,left_blue.png,left_orange.png,q,right,60fddaff22a9066eb9975cd9,001,2021-08-01_06h31.36.013,arrow_simon_norep,2021.1.2,MacIntel,62.5,,,,,,,,,,,,,,,,,,,,,w,0,1.799,44,TRUE,FALSE,10,3,43,3,1,,,,,,,
,,,,,,0,1.766405969,#a3d0fb,,left_blue.png,w,,,,,,w,left_blue.png,left_orange.png,q,right,60fddaff22a9066eb9975cd9,001,2021-08-01_06h31.36.013,arrow_simon_norep,2021.1.2,MacIntel,62.5,,,,,,,,,,,,,,,,,,,,,w,1,1.166,45,FALSE,TRUE,11,0,44,3,1,,,,,,,
,,,,,,0,2.136620467,#f3af84,,left_orange.png,q,,,,,,w,left_blue.png,left_orange.png,q,left,60fddaff22a9066eb9975cd9,001,2021-08-01_06h31.36.013,arrow_simon_norep,2021.1.2,MacIntel,62.5,,,,,,,,,,,,,,,,,,,,,q,1,1.721,46,TRUE,FALSE,11,1,45,2,1,,,,,,,
,,,,,,0,1.755664154,#a3d0fb,,left_blue.png,w,,,,,,w,left_blue.png,left_orange.png,q,right,60fddaff22a9066eb9975cd9,001,2021-08-01_06h31.36.013,arrow_simon_norep,2021.1.2,MacIntel,62.5,,,,,,,,,,,,,,,,,,,,,w,1,1.552,47,FALSE,FALSE,11,2,46,3,1,,,,,,,
,,,,,,0,2.038745208,#f3af84,,left_orange.png,q,,,,,,w,left_blue.png,left_orange.png,q,left,60fddaff22a9066eb9975cd9,001,2021-08-01_06h31.36.013,arrow_simon_norep,2021.1.2,MacIntel,62.5,,,,,,,,,,,,,,,,,,,,,q,1,1.599,48,FALSE,FALSE,11,3,47,2,1,,,,,,,
,,,,,,0,2.009337602,#a3d0fb,,right_blue.png,o,,,,,,o,right_blue.png,right_orange.png,p,left,60fddaff22a9066eb9975cd9,001,2021-08-01_06h31.36.013,arrow_simon_norep,2021.1.2,MacIntel,62.5,,,,,,,,,,,,,,,,,,,,,o,1,1.586,49,FALSE,FALSE,12,0,48,0,1,,,,,,,
,,,,,,0,2.306036556,#f3af84,,left_orange.png,q,,,,,,w,left_blue.png,left_orange.png,q,right,60fddaff22a9066eb9975cd9,001,2021-08-01_06h31.36.013,arrow_simon_norep,2021.1.2,MacIntel,62.5,,,,,,,,,,,,,,,,,,,,,q,1,1.717,50,TRUE,FALSE,12,1,49,3,1,,,,,,,
,,,,,,0,1.958607377,#a3d0fb,,right_blue.png,o,,,,,,o,right_blue.png,right_orange.png,p,left,60fddaff22a9066eb9975cd9,001,2021-08-01_06h31.36.013,arrow_simon_norep,2021.1.2,MacIntel,62.5,,,,,,,,,,,,,,,,,,,,,o,1,1.419,51,FALSE,FALSE,12,2,50,0,1,,,,,,,
,,,,,,0,1.55853535,#f3af84,,left_orange.png,q,,,,,,w,left_blue.png,left_orange.png,q,left,60fddaff22a9066eb9975cd9,001,2021-08-01_06h31.36.013,arrow_simon_norep,2021.1.2,MacIntel,62.5,,,,,,,,,,,,,,,,,,,,,q,1,1.082,52,FALSE,TRUE,12,3,51,2,1,,,,,,,
,,,,,,0,1.713169186,#a3d0fb,,right_blue.png,o,,,,,,o,right_blue.png,right_orange.png,p,right,60fddaff22a9066eb9975cd9,001,2021-08-01_06h31.36.013,arrow_simon_norep,2021.1.2,MacIntel,62.5,,,,,,,,,,,,,,,,,,,,,o,1,1.3,53,FALSE,TRUE,13,0,52,1,1,,,,,,,
,,,,,,0,2.49602204,#f3af84,,right_orange.png,p,,,,,,o,right_blue.png,right_orange.png,p,left,60fddaff22a9066eb9975cd9,001,2021-08-01_06h31.36.013,arrow_simon_norep,2021.1.2,MacIntel,62.5,,,,,,,,,,,,,,,,,,,,,p,1,1.966,54,TRUE,FALSE,13,1,53,0,1,,,,,,,
,,,,,,0,2.246770013,#a3d0fb,,left_blue.png,w,,,,,,w,left_blue.png,left_orange.png,q,right,60fddaff22a9066eb9975cd9,001,2021-08-01_06h31.36.013,arrow_simon_norep,2021.1.2,MacIntel,62.5,,,,,,,,,,,,,,,,,,,,,w,1,1.678,55,TRUE,FALSE,13,2,54,3,1,,,,,,,
,,,,,,0,2.358681854,#f3af84,,right_orange.png,p,,,,,,o,right_blue.png,right_orange.png,p,right,60fddaff22a9066eb9975cd9,001,2021-08-01_06h31.36.013,arrow_simon_norep,2021.1.2,MacIntel,62.5,,,,,,,,,,,,,,,,,,,,,p,1,1.705,56,TRUE,FALSE,13,3,55,1,1,,,,,,,
,,,,,,0,1.532804971,#a3d0fb,,left_blue.png,w,,,,,,w,left_blue.png,left_orange.png,q,left,60fddaff22a9066eb9975cd9,001,2021-08-01_06h31.36.013,arrow_simon_norep,2021.1.2,MacIntel,62.5,,,,,,,,,,,,,,,,,,,,,w,1,1.115,57,FALSE,TRUE,14,0,56,2,1,,,,,,,
,,,,,,0,2.273371497,#f3af84,,right_orange.png,p,,,,,,o,right_blue.png,right_orange.png,p,right,60fddaff22a9066eb9975cd9,001,2021-08-01_06h31.36.013,arrow_simon_norep,2021.1.2,MacIntel,62.5,,,,,,,,,,,,,,,,,,,,,p,1,1.778,58,TRUE,FALSE,14,1,57,1,1,,,,,,,
,,,,,,0,1.905254277,#a3d0fb,,left_blue.png,w,,,,,,w,left_blue.png,left_orange.png,q,right,60fddaff22a9066eb9975cd9,001,2021-08-01_06h31.36.013,arrow_simon_norep,2021.1.2,MacIntel,62.5,,,,,,,,,,,,,,,,,,,,,w,1,1.416,59,FALSE,FALSE,14,2,58,3,1,,,,,,,
,,,,,,0,2.31710427,#f3af84,,left_orange.png,q,,,,,,w,left_blue.png,left_orange.png,q,left,60fddaff22a9066eb9975cd9,001,2021-08-01_06h31.36.013,arrow_simon_norep,2021.1.2,MacIntel,62.5,,,,,,,,,,,,,,,,,,,,,p,0,1.768,60,TRUE,FALSE,14,3,59,2,1,,,,,,,
,,,,,,,,,,,,,,,,,,,,,,60fddaff22a9066eb9975cd9,001,2021-08-01_06h31.36.013,arrow_simon_norep,2021.1.2,MacIntel,62.5,,,,,,,,,,,,,,,,,,,,,,,,,,,,,,,,space,501.883,2,0,2,0,1
,,,,,,0,2.476981782,#a3d0fb,,right_blue.png,o,,,,,,o,right_blue.png,right_orange.png,p,left,60fddaff22a9066eb9975cd9,001,2021-08-01_06h31.36.013,arrow_simon_norep,2021.1.2,MacIntel,62.5,,,,,,,,,,,,,,,,,,,,,w,0,1.816,1,TRUE,FALSE,0,0,0,0,1,,,,,,,
,,,,,,0,2.232738909,#f3af84,,right_orange.png,p,,,,,,o,right_blue.png,right_orange.png,p,right,60fddaff22a9066eb9975cd9,001,2021-08-01_06h31.36.013,arrow_simon_norep,2021.1.2,MacIntel,62.5,,,,,,,,,,,,,,,,,,,,,p,1,1.6,2,TRUE,FALSE,0,1,1,1,1,,,,,,,
,,,,,,0,1.589503236,#a3d0fb,,left_blue.png,w,,,,,,w,left_blue.png,left_orange.png,q,right,60fddaff22a9066eb9975cd9,001,2021-08-01_06h31.36.013,arrow_simon_norep,2021.1.2,MacIntel,62.5,,,,,,,,,,,,,,,,,,,,,w,1,1.093,3,FALSE,TRUE,0,2,2,3,1,,,,,,,
,,,,,,0,2.410538468,#f3af84,,left_orange.png,q,,,,,,w,left_blue.png,left_orange.png,q,left,60fddaff22a9066eb9975cd9,001,2021-08-01_06h31.36.013,arrow_simon_norep,2021.1.2,MacIntel,62.5,,,,,,,,,,,,,,,,,,,,,q,1,1.909,4,TRUE,FALSE,0,3,3,2,1,,,,,,,
,,,,,,0,1.619303218,#a3d0fb,,right_blue.png,o,,,,,,o,right_blue.png,right_orange.png,p,left,60fddaff22a9066eb9975cd9,001,2021-08-01_06h31.36.013,arrow_simon_norep,2021.1.2,MacIntel,62.5,,,,,,,,,,,,,,,,,,,,,o,1,1.048,5,FALSE,TRUE,1,0,4,0,1,,,,,,,
,,,,,,0,1.823685579,#f3af84,,left_orange.png,q,,,,,,w,left_blue.png,left_orange.png,q,left,60fddaff22a9066eb9975cd9,001,2021-08-01_06h31.36.013,arrow_simon_norep,2021.1.2,MacIntel,62.5,,,,,,,,,,,,,,,,,,,,,q,1,1.267,6,FALSE,TRUE,1,1,5,2,1,,,,,,,
,,,,,,0,1.997087606,#a3d0fb,,left_blue.png,w,,,,,,w,left_blue.png,left_orange.png,q,right,60fddaff22a9066eb9975cd9,001,2021-08-01_06h31.36.013,arrow_simon_norep,2021.1.2,MacIntel,62.5,,,,,,,,,,,,,,,,,,,,,w,1,1.471,7,FALSE,FALSE,1,2,6,3,1,,,,,,,
,,,,,,0,2.144672022,#f3af84,,right_orange.png,p,,,,,,o,right_blue.png,right_orange.png,p,left,60fddaff22a9066eb9975cd9,001,2021-08-01_06h31.36.013,arrow_simon_norep,2021.1.2,MacIntel,62.5,,,,,,,,,,,,,,,,,,,,,p,1,1.599,8,FALSE,FALSE,1,3,7,0,1,,,,,,,
,,,,,,0,2.483942973,#a3d0fb,,right_blue.png,o,,,,,,o,right_blue.png,right_orange.png,p,right,60fddaff22a9066eb9975cd9,001,2021-08-01_06h31.36.013,arrow_simon_norep,2021.1.2,MacIntel,62.5,,,,,,,,,,,,,,,,,,,,,o,1,1.822,9,TRUE,FALSE,2,0,8,1,1,,,,,,,
,,,,,,0,2.175597582,#f3af84,,right_orange.png,p,,,,,,o,right_blue.png,right_orange.png,p,left,60fddaff22a9066eb9975cd9,001,2021-08-01_06h31.36.013,arrow_simon_norep,2021.1.2,MacIntel,62.5,,,,,,,,,,,,,,,,,,,,,p,1,1.568,10,FALSE,FALSE,2,1,9,0,1,,,,,,,
,,,,,,0,2.13164585,#a3d0fb,,right_blue.png,o,,,,,,o,right_blue.png,right_orange.png,p,left,60fddaff22a9066eb9975cd9,001,2021-08-01_06h31.36.013,arrow_simon_norep,2021.1.2,MacIntel,62.5,,,,,,,,,,,,,,,,,,,,,o,1,1.542,11,FALSE,FALSE,2,2,10,0,1,,,,,,,
,,,,,,0,2.043300216,#f3af84,,right_orange.png,p,,,,,,o,right_blue.png,right_orange.png,p,left,60fddaff22a9066eb9975cd9,001,2021-08-01_06h31.36.013,arrow_simon_norep,2021.1.2,MacIntel,62.5,,,,,,,,,,,,,,,,,,,,,p,1,1.436,12,FALSE,FALSE,2,3,11,0,1,,,,,,,
,,,,,,0,1.973202334,#a3d0fb,,left_blue.png,w,,,,,,w,left_blue.png,left_orange.png,q,left,60fddaff22a9066eb9975cd9,001,2021-08-01_06h31.36.013,arrow_simon_norep,2021.1.2,MacIntel,62.5,,,,,,,,,,,,,,,,,,,,,w,1,1.523,13,FALSE,FALSE,3,0,12,2,1,,,,,,,
,,,,,,0,2.208049018,#f3af84,,right_orange.png,p,,,,,,o,right_blue.png,right_orange.png,p,left,60fddaff22a9066eb9975cd9,001,2021-08-01_06h31.36.013,arrow_simon_norep,2021.1.2,MacIntel,62.5,,,,,,,,,,,,,,,,,,,,,p,1,1.589,14,FALSE,FALSE,3,1,13,0,1,,,,,,,
,,,,,,0,1.812120923,#a3d0fb,,right_blue.png,o,,,,,,o,right_blue.png,right_orange.png,p,right,60fddaff22a9066eb9975cd9,001,2021-08-01_06h31.36.013,arrow_simon_norep,2021.1.2,MacIntel,62.5,,,,,,,,,,,,,,,,,,,,,o,1,1.603,15,TRUE,FALSE,3,2,14,1,1,,,,,,,
,,,,,,0,2.279027004,#f3af84,,right_orange.png,p,,,,,,o,right_blue.png,right_orange.png,p,left,60fddaff22a9066eb9975cd9,001,2021-08-01_06h31.36.013,arrow_simon_norep,2021.1.2,MacIntel,62.5,,,,,,,,,,,,,,,,,,,,,p,1,1.717,16,TRUE,FALSE,3,3,15,0,1,,,,,,,
,,,,,,0,1.905607246,#a3d0fb,,left_blue.png,w,,,,,,w,left_blue.png,left_orange.png,q,right,60fddaff22a9066eb9975cd9,001,2021-08-01_06h31.36.013,arrow_simon_norep,2021.1.2,MacIntel,62.5,,,,,,,,,,,,,,,,,,,,,w,1,1.441,17,FALSE,FALSE,4,0,16,3,1,,,,,,,
,,,,,,0,1.786887816,#f3af84,,left_orange.png,q,,,,,,w,left_blue.png,left_orange.png,q,left,60fddaff22a9066eb9975cd9,001,2021-08-01_06h31.36.013,arrow_simon_norep,2021.1.2,MacIntel,62.5,,,,,,,,,,,,,,,,,,,,,p,0,1.059,18,FALSE,TRUE,4,1,17,2,1,,,,,,,
,,,,,,0,1.89595193,#a3d0fb,,right_blue.png,o,,,,,,o,right_blue.png,right_orange.png,p,right,60fddaff22a9066eb9975cd9,001,2021-08-01_06h31.36.013,arrow_simon_norep,2021.1.2,MacIntel,62.5,,,,,,,,,,,,,,,,,,,,,o,1,1.394,19,FALSE,TRUE,4,2,18,1,1,,,,,,,
,,,,,,0,1.702906513,#f3af84,,left_orange.png,q,,,,,,w,left_blue.png,left_orange.png,q,left,60fddaff22a9066eb9975cd9,001,2021-08-01_06h31.36.013,arrow_simon_norep,2021.1.2,MacIntel,62.5,,,,,,,,,,,,,,,,,,,,,q,1,1.356,20,FALSE,TRUE,4,3,19,2,1,,,,,,,
,,,,,,0,1.503189272,#a3d0fb,,left_blue.png,w,,,,,,w,left_blue.png,left_orange.png,q,left,60fddaff22a9066eb9975cd9,001,2021-08-01_06h31.36.013,arrow_simon_norep,2021.1.2,MacIntel,62.5,,,,,,,,,,,,,,,,,,,,,w,1,1.138,21,FALSE,TRUE,5,0,20,2,1,,,,,,,
,,,,,,0,2.133223233,#f3af84,,right_orange.png,p,,,,,,o,right_blue.png,right_orange.png,p,right,60fddaff22a9066eb9975cd9,001,2021-08-01_06h31.36.013,arrow_simon_norep,2021.1.2,MacIntel,62.5,,,,,,,,,,,,,,,,,,,,,p,1,1.749,22,TRUE,FALSE,5,1,21,1,1,,,,,,,
,,,,,,0,2.469301548,#a3d0fb,,right_blue.png,o,,,,,,o,right_blue.png,right_orange.png,p,right,60fddaff22a9066eb9975cd9,001,2021-08-01_06h31.36.013,arrow_simon_norep,2021.1.2,MacIntel,62.5,,,,,,,,,,,,,,,,,,,,,o,1,1.818,23,TRUE,FALSE,5,2,22,1,1,,,,,,,
,,,,,,0,2.036243665,#f3af84,,left_orange.png,q,,,,,,w,left_blue.png,left_orange.png,q,right,60fddaff22a9066eb9975cd9,001,2021-08-01_06h31.36.013,arrow_simon_norep,2021.1.2,MacIntel,62.5,,,,,,,,,,,,,,,,,,,,,q,1,1.866,24,TRUE,FALSE,5,3,23,3,1,,,,,,,
,,,,,,0,1.551420529,#a3d0fb,,right_blue.png,o,,,,,,o,right_blue.png,right_orange.png,p,right,60fddaff22a9066eb9975cd9,001,2021-08-01_06h31.36.013,arrow_simon_norep,2021.1.2,MacIntel,62.5,,,,,,,,,,,,,,,,,,,,,o,1,1.749,25,TRUE,FALSE,6,0,24,1,1,,,,,,,
,,,,,,0,2.372208013,#f3af84,,left_orange.png,q,,,,,,w,left_blue.png,left_orange.png,q,right,60fddaff22a9066eb9975cd9,001,2021-08-01_06h31.36.013,arrow_simon_norep,2021.1.2,MacIntel,62.5,,,,,,,,,,,,,,,,,,,,,w,0,1.789,26,TRUE,FALSE,6,1,25,3,1,,,,,,,
,,,,,,0,2.292896258,#a3d0fb,,right_blue.png,o,,,,,,o,right_blue.png,right_orange.png,p,left,60fddaff22a9066eb9975cd9,001,2021-08-01_06h31.36.013,arrow_simon_norep,2021.1.2,MacIntel,62.5,,,,,,,,,,,,,,,,,,,,,o,1,1.751,27,TRUE,FALSE,6,2,26,0,1,,,,,,,
,,,,,,0,2.450083984,#f3af84,,left_orange.png,q,,,,,,w,left_blue.png,left_orange.png,q,right,60fddaff22a9066eb9975cd9,001,2021-08-01_06h31.36.013,arrow_simon_norep,2021.1.2,MacIntel,62.5,,,,,,,,,,,,,,,,,,,,,q,1,1.933,28,TRUE,FALSE,6,3,27,3,1,,,,,,,
,,,,,,0,1.90561106,#a3d0fb,,right_blue.png,o,,,,,,o,right_blue.png,right_orange.png,p,left,60fddaff22a9066eb9975cd9,001,2021-08-01_06h31.36.013,arrow_simon_norep,2021.1.2,MacIntel,62.5,,,,,,,,,,,,,,,,,,,,,o,1,1.338,29,FALSE,TRUE,7,0,28,0,1,,,,,,,
,,,,,,0,1.671334852,#f3af84,,left_orange.png,q,,,,,,w,left_blue.png,left_orange.png,q,left,60fddaff22a9066eb9975cd9,001,2021-08-01_06h31.36.013,arrow_simon_norep,2021.1.2,MacIntel,62.5,,,,,,,,,,,,,,,,,,,,,q,1,1.693,30,TRUE,FALSE,7,1,29,2,1,,,,,,,
,,,,,,0,1.717812819,#a3d0fb,,left_blue.png,w,,,,,,w,left_blue.png,left_orange.png,q,right,60fddaff22a9066eb9975cd9,001,2021-08-01_06h31.36.013,arrow_simon_norep,2021.1.2,MacIntel,62.5,,,,,,,,,,,,,,,,,,,,,w,1,1.184,31,FALSE,TRUE,7,2,30,3,1,,,,,,,
,,,,,,0,1.727323167,#f3af84,,left_orange.png,q,,,,,,w,left_blue.png,left_orange.png,q,right,60fddaff22a9066eb9975cd9,001,2021-08-01_06h31.36.013,arrow_simon_norep,2021.1.2,MacIntel,62.5,,,,,,,,,,,,,,,,,,,,,q,1,1.794,32,TRUE,FALSE,7,3,31,3,1,,,,,,,
,,,,,,0,2.351785633,#a3d0fb,,right_blue.png,o,,,,,,o,right_blue.png,right_orange.png,p,left,60fddaff22a9066eb9975cd9,001,2021-08-01_06h31.36.013,arrow_simon_norep,2021.1.2,MacIntel,62.5,,,,,,,,,,,,,,,,,,,,,o,1,1.993,33,TRUE,FALSE,8,0,32,0,1,,,,,,,
,,,,,,0,1.602795662,#f3af84,,left_orange.png,q,,,,,,w,left_blue.png,left_orange.png,q,left,60fddaff22a9066eb9975cd9,001,2021-08-01_06h31.36.013,arrow_simon_norep,2021.1.2,MacIntel,62.5,,,,,,,,,,,,,,,,,,,,,q,1,1.015,34,FALSE,TRUE,8,1,33,2,1,,,,,,,
,,,,,,0,2.347073798,#a3d0fb,,left_blue.png,w,,,,,,w,left_blue.png,left_orange.png,q,right,60fddaff22a9066eb9975cd9,001,2021-08-01_06h31.36.013,arrow_simon_norep,2021.1.2,MacIntel,62.5,,,,,,,,,,,,,,,,,,,,,w,1,1.472,35,FALSE,FALSE,8,2,34,3,1,,,,,,,
,,,,,,0,1.755288597,#f3af84,,right_orange.png,p,,,,,,o,right_blue.png,right_orange.png,p,right,60fddaff22a9066eb9975cd9,001,2021-08-01_06h31.36.013,arrow_simon_norep,2021.1.2,MacIntel,62.5,,,,,,,,,,,,,,,,,,,,,p,1,1.717,36,TRUE,FALSE,8,3,35,1,1,,,,,,,
,,,,,,0,2.258055353,#a3d0fb,,left_blue.png,w,,,,,,w,left_blue.png,left_orange.png,q,left,60fddaff22a9066eb9975cd9,001,2021-08-01_06h31.36.013,arrow_simon_norep,2021.1.2,MacIntel,62.5,,,,,,,,,,,,,,,,,,,,,w,1,1.539,37,FALSE,FALSE,9,0,36,2,1,,,,,,,
,,,,,,0,2.260516547,#f3af84,,left_orange.png,q,,,,,,w,left_blue.png,left_orange.png,q,left,60fddaff22a9066eb9975cd9,001,2021-08-01_06h31.36.013,arrow_simon_norep,2021.1.2,MacIntel,62.5,,,,,,,,,,,,,,,,,,,,,q,1,1.518,38,FALSE,FALSE,9,1,37,2,1,,,,,,,
,,,,,,0,2.334928136,#a3d0fb,,left_blue.png,w,,,,,,w,left_blue.png,left_orange.png,q,right,60fddaff22a9066eb9975cd9,001,2021-08-01_06h31.36.013,arrow_simon_norep,2021.1.2,MacIntel,62.5,,,,,,,,,,,,,,,,,,,,,o,0,1.65,39,TRUE,FALSE,9,2,38,3,1,,,,,,,
,,,,,,0,1.810110733,#f3af84,,left_orange.png,q,,,,,,w,left_blue.png,left_orange.png,q,right,60fddaff22a9066eb9975cd9,001,2021-08-01_06h31.36.013,arrow_simon_norep,2021.1.2,MacIntel,62.5,,,,,,,,,,,,,,,,,,,,,q,1,1.508,40,FALSE,FALSE,9,3,39,3,1,,,,,,,
,,,,,,0,2.196824899,#a3d0fb,,right_blue.png,o,,,,,,o,right_blue.png,right_orange.png,p,left,60fddaff22a9066eb9975cd9,001,2021-08-01_06h31.36.013,arrow_simon_norep,2021.1.2,MacIntel,62.5,,,,,,,,,,,,,,,,,,,,,o,1,1.69,41,TRUE,FALSE,10,0,40,0,1,,,,,,,
,,,,,,0,1.662617907,#f3af84,,left_orange.png,q,,,,,,w,left_blue.png,left_orange.png,q,right,60fddaff22a9066eb9975cd9,001,2021-08-01_06h31.36.013,arrow_simon_norep,2021.1.2,MacIntel,62.5,,,,,,,,,,,,,,,,,,,,,q,1,1.583,42,FALSE,FALSE,10,1,41,3,1,,,,,,,
,,,,,,0,1.842611542,#a3d0fb,,left_blue.png,w,,,,,,w,left_blue.png,left_orange.png,q,left,60fddaff22a9066eb9975cd9,001,2021-08-01_06h31.36.013,arrow_simon_norep,2021.1.2,MacIntel,62.5,,,,,,,,,,,,,,,,,,,,,w,1,1.469,43,FALSE,FALSE,10,2,42,2,1,,,,,,,
,,,,,,0,2.491713102,#f3af84,,left_orange.png,q,,,,,,w,left_blue.png,left_orange.png,q,right,60fddaff22a9066eb9975cd9,001,2021-08-01_06h31.36.013,arrow_simon_norep,2021.1.2,MacIntel,62.5,,,,,,,,,,,,,,,,,,,,,p,0,1.717,44,TRUE,FALSE,10,3,43,3,1,,,,,,,
,,,,,,0,1.656528476,#a3d0fb,,left_blue.png,w,,,,,,w,left_blue.png,left_orange.png,q,left,60fddaff22a9066eb9975cd9,001,2021-08-01_06h31.36.013,arrow_simon_norep,2021.1.2,MacIntel,62.5,,,,,,,,,,,,,,,,,,,,,w,1,1.488,45,FALSE,FALSE,11,0,44,2,1,,,,,,,
,,,,,,0,1.76533453,#f3af84,,right_orange.png,p,,,,,,o,right_blue.png,right_orange.png,p,right,60fddaff22a9066eb9975cd9,001,2021-08-01_06h31.36.013,arrow_simon_norep,2021.1.2,MacIntel,62.5,,,,,,,,,,,,,,,,,,,,,p,1,1.678,46,TRUE,FALSE,11,1,45,1,1,,,,,,,
,,,,,,0,1.519614583,#a3d0fb,,right_blue.png,o,,,,,,o,right_blue.png,right_orange.png,p,right,60fddaff22a9066eb9975cd9,001,2021-08-01_06h31.36.013,arrow_simon_norep,2021.1.2,MacIntel,62.5,,,,,,,,,,,,,,,,,,,,,o,1,1.051,47,FALSE,TRUE,11,2,46,1,1,,,,,,,
,,,,,,1,1.731679123,#f3af84,,right_orange.png,p,,,,,,o,right_blue.png,right_orange.png,p,right,60fddaff22a9066eb9975cd9,001,2021-08-01_06h31.36.013,arrow_simon_norep,2021.1.2,MacIntel,62.5,,,,,,,,,,,,,,,,,,,,,o,0,1.493,48,FALSE,FALSE,11,3,47,1,1,,,,,,,
,,,,,,1,2.23952589,#a3d0fb,,right_blue.png,o,,,,,,o,right_blue.png,right_orange.png,p,right,60fddaff22a9066eb9975cd9,001,2021-08-01_06h31.36.013,arrow_simon_norep,2021.1.2,MacIntel,62.5,,,,,,,,,,,,,,,,,,,,,o,1,1.885,49,TRUE,FALSE,12,0,48,1,1,,,,,,,
,,,,,,1,2.111594086,#f3af84,,left_orange.png,q,,,,,,w,left_blue.png,left_orange.png,q,left,60fddaff22a9066eb9975cd9,001,2021-08-01_06h31.36.013,arrow_simon_norep,2021.1.2,MacIntel,62.5,,,,,,,,,,,,,,,,,,,,,q,1,1.818,50,TRUE,FALSE,12,1,49,2,1,,,,,,,
,,,,,,1,2.036567066,#a3d0fb,,right_blue.png,o,,,,,,o,right_blue.png,right_orange.png,p,left,60fddaff22a9066eb9975cd9,001,2021-08-01_06h31.36.013,arrow_simon_norep,2021.1.2,MacIntel,62.5,,,,,,,,,,,,,,,,,,,,,o,1,1.617,51,TRUE,FALSE,12,2,50,0,1,,,,,,,
,,,,,,1,2.050040339,#f3af84,,right_orange.png,p,,,,,,o,right_blue.png,right_orange.png,p,right,60fddaff22a9066eb9975cd9,001,2021-08-01_06h31.36.013,arrow_simon_norep,2021.1.2,MacIntel,62.5,,,,,,,,,,,,,,,,,,,,,p,1,1.704,52,TRUE,FALSE,12,3,51,1,1,,,,,,,
,,,,,,1,2.476332836,#a3d0fb,,right_blue.png,o,,,,,,o,right_blue.png,right_orange.png,p,left,60fddaff22a9066eb9975cd9,001,2021-08-01_06h31.36.013,arrow_simon_norep,2021.1.2,MacIntel,62.5,,,,,,,,,,,,,,,,,,,,,o,1,1.932,53,TRUE,FALSE,13,0,52,0,1,,,,,,,
,,,,,,1,1.552172757,#f3af84,,right_orange.png,p,,,,,,o,right_blue.png,right_orange.png,p,right,60fddaff22a9066eb9975cd9,001,2021-08-01_06h31.36.013,arrow_simon_norep,2021.1.2,MacIntel,62.5,,,,,,,,,,,,,,,,,,,,,p,1,0.876,54,FALSE,TRUE,13,1,53,1,1,,,,,,,
,,,,,,1,2.254332486,#a3d0fb,,left_blue.png,w,,,,,,w,left_blue.png,left_orange.png,q,right,60fddaff22a9066eb9975cd9,001,2021-08-01_06h31.36.013,arrow_simon_norep,2021.1.2,MacIntel,62.5,,,,,,,,,,,,,,,,,,,,,w,1,1.777,55,TRUE,FALSE,13,2,54,3,1,,,,,,,
,,,,,,0,1.802106485,#f3af84,,left_orange.png,q,,,,,,w,left_blue.png,left_orange.png,q,right,60fddaff22a9066eb9975cd9,001,2021-08-01_06h31.36.013,arrow_simon_norep,2021.1.2,MacIntel,62.5,,,,,,,,,,,,,,,,,,,,,q,1,1.49,56,FALSE,FALSE,13,3,55,3,1,,,,,,,
,,,,,,0,1.716583155,#a3d0fb,,right_blue.png,o,,,,,,o,right_blue.png,right_orange.png,p,right,60fddaff22a9066eb9975cd9,001,2021-08-01_06h31.36.013,arrow_simon_norep,2021.1.2,MacIntel,62.5,,,,,,,,,,,,,,,,,,,,,o,1,1.11,57,FALSE,TRUE,14,0,56,1,1,,,,,,,
,,,,,,1,1.960220664,#f3af84,,right_orange.png,p,,,,,,o,right_blue.png,right_orange.png,p,left,60fddaff22a9066eb9975cd9,001,2021-08-01_06h31.36.013,arrow_simon_norep,2021.1.2,MacIntel,62.5,,,,,,,,,,,,,,,,,,,,,o,0,1.499,58,FALSE,FALSE,14,1,57,0,1,,,,,,,
,,,,,,0,1.984198377,#a3d0fb,,left_blue.png,w,,,,,,w,left_blue.png,left_orange.png,q,left,60fddaff22a9066eb9975cd9,001,2021-08-01_06h31.36.013,arrow_simon_norep,2021.1.2,MacIntel,62.5,,,,,,,,,,,,,,,,,,,,,w,1,1.467,59,FALSE,FALSE,14,2,58,2,1,,,,,,,
