instruct_resp_simon.keys,instruct_resp_simon.corr,instruct_resp_simon.rt,trial_resp_simon.keys,trial_resp_simon.corr,trial_resp_simon.rt,kerr,target_onset,target_color,target_pos,target_file,target_resp,trials_train_simon.thisRepN,trials_train_simon.thisTrialN,trials_train_simon.thisN,trials_train_simon.thisIndex,trials_train_simon.ran,odd_target_resp,odd_target_file,even_target_file,even_target_resp,target_side,participant,session,date,expName,psychopyVersion,OS,frameRate,train_block_note_resp.keys,train_block_note_resp.rt,blocks_train.thisRepN,blocks_train.thisTrialN,blocks_train.thisN,blocks_train.thisIndex,blocks_train.ran,instruct_resp_timing.keys,instruct_resp_timing.corr,instruct_resp_timing.rt,trial_resp_timing.keys,trial_resp_timing.rt,trials_train_timing.thisRepN,trials_train_timing.thisTrialN,trials_train_timing.thisN,trials_train_timing.thisIndex,trials_train_timing.ran,instruct_resp.keys,instruct_resp.corr,instruct_resp.rt,trial_resp.keys,trial_resp.corr,trial_resp.rt,trial_num,too_slow,too_soon,trials.thisRepN,trials.thisTrialN,trials.thisN,trials.thisIndex,trials.ran,block_note_resp.keys,block_note_resp.rt,blocks.thisRepN,blocks.thisTrialN,blocks.thisN,blocks.thisIndex,blocks.ran
space,0,35.7867,o,1,1.2905,0,0.64450501,#a3d0fb,,right_blue.png,o,0,0,0,1,1,o,right_blue.png,right_orange.png,p,right,60fdf0adc7f5cc81445d07b0,001,2021-08-01_16h02.23.320,arrow_simon_norep,2021.1.2,MacIntel,59.87665409,,,,,,,,,,,,,,,,,,,,,,,,,,,,,,,,,,,,,,
,,,w,0,1.4576,1,0.516056899,#f3af84,,left_orange.png,q,0,1,1,3,1,w,left_blue.png,left_orange.png,q,right,60fdf0adc7f5cc81445d07b0,001,2021-08-01_16h02.23.320,arrow_simon_norep,2021.1.2,MacIntel,59.87665409,,,,,,,,,,,,,,,,,,,,,,,,,,,,,,,,,,,,,,
,,,w,1,1.5063,0,0.380002087,#a3d0fb,,left_blue.png,w,0,2,2,3,1,w,left_blue.png,left_orange.png,q,right,60fdf0adc7f5cc81445d07b0,001,2021-08-01_16h02.23.320,arrow_simon_norep,2021.1.2,MacIntel,59.87665409,,,,,,,,,,,,,,,,,,,,,,,,,,,,,,,,,,,,,,
,,,q,1,1.3069,0,0.752641431,#f3af84,,left_orange.png,q,0,3,3,2,1,w,left_blue.png,left_orange.png,q,left,60fdf0adc7f5cc81445d07b0,001,2021-08-01_16h02.23.320,arrow_simon_norep,2021.1.2,MacIntel,59.87665409,,,,,,,,,,,,,,,,,,,,,,,,,,,,,,,,,,,,,,
,,,w,1,1.0546,0,0.375498132,#a3d0fb,,left_blue.png,w,1,0,4,2,1,w,left_blue.png,left_orange.png,q,left,60fdf0adc7f5cc81445d07b0,001,2021-08-01_16h02.23.320,arrow_simon_norep,2021.1.2,MacIntel,59.87665409,,,,,,,,,,,,,,,,,,,,,,,,,,,,,,,,,,,,,,
,,,q,1,0.7222,0,0.13817056,#f3af84,,left_orange.png,q,1,1,5,2,1,w,left_blue.png,left_orange.png,q,left,60fdf0adc7f5cc81445d07b0,001,2021-08-01_16h02.23.320,arrow_simon_norep,2021.1.2,MacIntel,59.87665409,,,,,,,,,,,,,,,,,,,,,,,,,,,,,,,,,,,,,,
,,,o,1,1.6068,0,0.878567617,#a3d0fb,,right_blue.png,o,1,2,6,0,1,o,right_blue.png,right_orange.png,p,left,60fdf0adc7f5cc81445d07b0,001,2021-08-01_16h02.23.320,arrow_simon_norep,2021.1.2,MacIntel,59.87665409,,,,,,,,,,,,,,,,,,,,,,,,,,,,,,,,,,,,,,
,,,q,1,1.0026,0,0.137721144,#f3af84,,left_orange.png,q,1,3,7,3,1,w,left_blue.png,left_orange.png,q,right,60fdf0adc7f5cc81445d07b0,001,2021-08-01_16h02.23.320,arrow_simon_norep,2021.1.2,MacIntel,59.87665409,,,,,,,,,,,,,,,,,,,,,,,,,,,,,,,,,,,,,,
,,,w,0,1.5243,1,0.829460267,#a3d0fb,,right_blue.png,o,2,0,8,1,1,o,right_blue.png,right_orange.png,p,right,60fdf0adc7f5cc81445d07b0,001,2021-08-01_16h02.23.320,arrow_simon_norep,2021.1.2,MacIntel,59.87665409,,,,,,,,,,,,,,,,,,,,,,,,,,,,,,,,,,,,,,
,,,o,0,1.1671,1,0.494027246,#f3af84,,right_orange.png,p,2,1,9,1,1,o,right_blue.png,right_orange.png,p,right,60fdf0adc7f5cc81445d07b0,001,2021-08-01_16h02.23.320,arrow_simon_norep,2021.1.2,MacIntel,59.87665409,,,,,,,,,,,,,,,,,,,,,,,,,,,,,,,,,,,,,,
,,,o,1,0.9111,0,0.324043452,#a3d0fb,,right_blue.png,o,2,2,10,1,1,o,right_blue.png,right_orange.png,p,right,60fdf0adc7f5cc81445d07b0,001,2021-08-01_16h02.23.320,arrow_simon_norep,2021.1.2,MacIntel,59.87665409,,,,,,,,,,,,,,,,,,,,,,,,,,,,,,,,,,,,,,
,,,q,0,2.3761,1,0.593689396,#f3af84,,right_orange.png,p,2,3,11,0,1,o,right_blue.png,right_orange.png,p,left,60fdf0adc7f5cc81445d07b0,001,2021-08-01_16h02.23.320,arrow_simon_norep,2021.1.2,MacIntel,59.87665409,,,,,,,,,,,,,,,,,,,,,,,,,,,,,,,,,,,,,,
,,,q,0,2.1088,1,0.713459391,#a3d0fb,,left_blue.png,w,3,0,12,2,1,w,left_blue.png,left_orange.png,q,left,60fdf0adc7f5cc81445d07b0,001,2021-08-01_16h02.23.320,arrow_simon_norep,2021.1.2,MacIntel,59.87665409,,,,,,,,,,,,,,,,,,,,,,,,,,,,,,,,,,,,,,
,,,q,1,1.563,0,0.216604951,#f3af84,,left_orange.png,q,3,1,13,2,1,w,left_blue.png,left_orange.png,q,left,60fdf0adc7f5cc81445d07b0,001,2021-08-01_16h02.23.320,arrow_simon_norep,2021.1.2,MacIntel,59.87665409,,,,,,,,,,,,,,,,,,,,,,,,,,,,,,,,,,,,,,
,,,o,1,1.8923,0,0.757807926,#a3d0fb,,right_blue.png,o,3,2,14,1,1,o,right_blue.png,right_orange.png,p,right,60fdf0adc7f5cc81445d07b0,001,2021-08-01_16h02.23.320,arrow_simon_norep,2021.1.2,MacIntel,59.87665409,,,,,,,,,,,,,,,,,,,,,,,,,,,,,,,,,,,,,,
,,,o,0,1.0034,1,0.404794613,#f3af84,,right_orange.png,p,3,3,15,1,1,o,right_blue.png,right_orange.png,p,right,60fdf0adc7f5cc81445d07b0,001,2021-08-01_16h02.23.320,arrow_simon_norep,2021.1.2,MacIntel,59.87665409,,,,,,,,,,,,,,,,,,,,,,,,,,,,,,,,,,,,,,
,,,o,1,0.9435,0,0.181646011,#a3d0fb,,right_blue.png,o,4,0,16,1,1,o,right_blue.png,right_orange.png,p,right,60fdf0adc7f5cc81445d07b0,001,2021-08-01_16h02.23.320,arrow_simon_norep,2021.1.2,MacIntel,59.87665409,,,,,,,,,,,,,,,,,,,,,,,,,,,,,,,,,,,,,,
,,,p,1,1.558,0,0.875292448,#f3af84,,right_orange.png,p,4,1,17,1,1,o,right_blue.png,right_orange.png,p,right,60fdf0adc7f5cc81445d07b0,001,2021-08-01_16h02.23.320,arrow_simon_norep,2021.1.2,MacIntel,59.87665409,,,,,,,,,,,,,,,,,,,,,,,,,,,,,,,,,,,,,,
,,,w,0,1.307,1,0.392067834,#a3d0fb,,right_blue.png,o,4,2,18,0,1,o,right_blue.png,right_orange.png,p,left,60fdf0adc7f5cc81445d07b0,001,2021-08-01_16h02.23.320,arrow_simon_norep,2021.1.2,MacIntel,59.87665409,,,,,,,,,,,,,,,,,,,,,,,,,,,,,,,,,,,,,,
,,,p,1,1.4502,0,0.593456179,#f3af84,,right_orange.png,p,4,3,19,0,1,o,right_blue.png,right_orange.png,p,left,60fdf0adc7f5cc81445d07b0,001,2021-08-01_16h02.23.320,arrow_simon_norep,2021.1.2,MacIntel,59.87665409,,,,,,,,,,,,,,,,,,,,,,,,,,,,,,,,,,,,,,
,,,w,1,1.2217,0,0.313380615,#a3d0fb,,left_blue.png,w,5,0,20,2,1,w,left_blue.png,left_orange.png,q,left,60fdf0adc7f5cc81445d07b0,001,2021-08-01_16h02.23.320,arrow_simon_norep,2021.1.2,MacIntel,59.87665409,,,,,,,,,,,,,,,,,,,,,,,,,,,,,,,,,,,,,,
,,,p,1,1.2108,0,0.004559849,#f3af84,,right_orange.png,p,5,1,21,1,1,o,right_blue.png,right_orange.png,p,right,60fdf0adc7f5cc81445d07b0,001,2021-08-01_16h02.23.320,arrow_simon_norep,2021.1.2,MacIntel,59.87665409,,,,,,,,,,,,,,,,,,,,,,,,,,,,,,,,,,,,,,
,,,w,0,1.4154,1,0.589657733,#a3d0fb,,right_blue.png,o,5,2,22,0,1,o,right_blue.png,right_orange.png,p,left,60fdf0adc7f5cc81445d07b0,001,2021-08-01_16h02.23.320,arrow_simon_norep,2021.1.2,MacIntel,59.87665409,,,,,,,,,,,,,,,,,,,,,,,,,,,,,,,,,,,,,,
,,,p,1,1.8961,0,0.210348297,#f3af84,,right_orange.png,p,5,3,23,0,1,o,right_blue.png,right_orange.png,p,left,60fdf0adc7f5cc81445d07b0,001,2021-08-01_16h02.23.320,arrow_simon_norep,2021.1.2,MacIntel,59.87665409,,,,,,,,,,,,,,,,,,,,,,,,,,,,,,,,,,,,,,
,,,w,1,1.488,0,0.368431065,#a3d0fb,,left_blue.png,w,6,0,24,2,1,w,left_blue.png,left_orange.png,q,left,60fdf0adc7f5cc81445d07b0,001,2021-08-01_16h02.23.320,arrow_simon_norep,2021.1.2,MacIntel,59.87665409,,,,,,,,,,,,,,,,,,,,,,,,,,,,,,,,,,,,,,
,,,p,1,1.5939,0,0.691533767,#f3af84,,right_orange.png,p,6,1,25,0,1,o,right_blue.png,right_orange.png,p,left,60fdf0adc7f5cc81445d07b0,001,2021-08-01_16h02.23.320,arrow_simon_norep,2021.1.2,MacIntel,59.87665409,,,,,,,,,,,,,,,,,,,,,,,,,,,,,,,,,,,,,,
,,,o,1,0.9922,0,0.162609714,#a3d0fb,,right_blue.png,o,6,2,26,0,1,o,right_blue.png,right_orange.png,p,left,60fdf0adc7f5cc81445d07b0,001,2021-08-01_16h02.23.320,arrow_simon_norep,2021.1.2,MacIntel,59.87665409,,,,,,,,,,,,,,,,,,,,,,,,,,,,,,,,,,,,,,
,,,q,1,1.3953,0,0.774116402,#f3af84,,left_orange.png,q,6,3,27,3,1,w,left_blue.png,left_orange.png,q,right,60fdf0adc7f5cc81445d07b0,001,2021-08-01_16h02.23.320,arrow_simon_norep,2021.1.2,MacIntel,59.87665409,,,,,,,,,,,,,,,,,,,,,,,,,,,,,,,,,,,,,,
,,,o,1,1.4052,0,0.372551285,#a3d0fb,,right_blue.png,o,7,0,28,1,1,o,right_blue.png,right_orange.png,p,right,60fdf0adc7f5cc81445d07b0,001,2021-08-01_16h02.23.320,arrow_simon_norep,2021.1.2,MacIntel,59.87665409,,,,,,,,,,,,,,,,,,,,,,,,,,,,,,,,,,,,,,
,,,q,1,1.2567,0,0.660570168,#f3af84,,left_orange.png,q,7,1,29,3,1,w,left_blue.png,left_orange.png,q,right,60fdf0adc7f5cc81445d07b0,001,2021-08-01_16h02.23.320,arrow_simon_norep,2021.1.2,MacIntel,59.87665409,,,,,,,,,,,,,,,,,,,,,,,,,,,,,,,,,,,,,,
,,,o,0,1.0529,1,0.505461862,#a3d0fb,,left_blue.png,w,7,2,30,3,1,w,left_blue.png,left_orange.png,q,right,60fdf0adc7f5cc81445d07b0,001,2021-08-01_16h02.23.320,arrow_simon_norep,2021.1.2,MacIntel,59.87665409,,,,,,,,,,,,,,,,,,,,,,,,,,,,,,,,,,,,,,
,,,p,1,1.4594,0,0.747757156,#f3af84,,right_orange.png,p,7,3,31,0,1,o,right_blue.png,right_orange.png,p,left,60fdf0adc7f5cc81445d07b0,001,2021-08-01_16h02.23.320,arrow_simon_norep,2021.1.2,MacIntel,59.87665409,,,,,,,,,,,,,,,,,,,,,,,,,,,,,,,,,,,,,,
,,,w,1,1.1459,0,0.442170493,#a3d0fb,,left_blue.png,w,8,0,32,3,1,w,left_blue.png,left_orange.png,q,right,60fdf0adc7f5cc81445d07b0,001,2021-08-01_16h02.23.320,arrow_simon_norep,2021.1.2,MacIntel,59.87665409,,,,,,,,,,,,,,,,,,,,,,,,,,,,,,,,,,,,,,
,,,p,1,1.3767,0,0.848805897,#f3af84,,right_orange.png,p,8,1,33,1,1,o,right_blue.png,right_orange.png,p,right,60fdf0adc7f5cc81445d07b0,001,2021-08-01_16h02.23.320,arrow_simon_norep,2021.1.2,MacIntel,59.87665409,,,,,,,,,,,,,,,,,,,,,,,,,,,,,,,,,,,,,,
,,,w,1,0.8891,0,0.103003372,#a3d0fb,,left_blue.png,w,8,2,34,3,1,w,left_blue.png,left_orange.png,q,right,60fdf0adc7f5cc81445d07b0,001,2021-08-01_16h02.23.320,arrow_simon_norep,2021.1.2,MacIntel,59.87665409,,,,,,,,,,,,,,,,,,,,,,,,,,,,,,,,,,,,,,
,,,q,1,1.0923,0,0.529973018,#f3af84,,left_orange.png,q,8,3,35,2,1,w,left_blue.png,left_orange.png,q,left,60fdf0adc7f5cc81445d07b0,001,2021-08-01_16h02.23.320,arrow_simon_norep,2021.1.2,MacIntel,59.87665409,,,,,,,,,,,,,,,,,,,,,,,,,,,,,,,,,,,,,,
,,,w,1,0.8195,0,0.256585216,#a3d0fb,,left_blue.png,w,9,0,36,3,1,w,left_blue.png,left_orange.png,q,right,60fdf0adc7f5cc81445d07b0,001,2021-08-01_16h02.23.320,arrow_simon_norep,2021.1.2,MacIntel,59.87665409,,,,,,,,,,,,,,,,,,,,,,,,,,,,,,,,,,,,,,
,,,p,1,1.1395,0,0.613287215,#f3af84,,right_orange.png,p,9,1,37,1,1,o,right_blue.png,right_orange.png,p,right,60fdf0adc7f5cc81445d07b0,001,2021-08-01_16h02.23.320,arrow_simon_norep,2021.1.2,MacIntel,59.87665409,,,,,,,,,,,,,,,,,,,,,,,,,,,,,,,,,,,,,,
,,,w,1,1.0418,0,0.601232767,#a3d0fb,,left_blue.png,w,9,2,38,2,1,w,left_blue.png,left_orange.png,q,left,60fdf0adc7f5cc81445d07b0,001,2021-08-01_16h02.23.320,arrow_simon_norep,2021.1.2,MacIntel,59.87665409,,,,,,,,,,,,,,,,,,,,,,,,,,,,,,,,,,,,,,
,,,p,1,1.4213,0,0.842664936,#f3af84,,right_orange.png,p,9,3,39,0,1,o,right_blue.png,right_orange.png,p,left,60fdf0adc7f5cc81445d07b0,001,2021-08-01_16h02.23.320,arrow_simon_norep,2021.1.2,MacIntel,59.87665409,,,,,,,,,,,,,,,,,,,,,,,,,,,,,,,,,,,,,,
,,,w,1,1.0374,0,0.409649554,#a3d0fb,,left_blue.png,w,10,0,40,2,1,w,left_blue.png,left_orange.png,q,left,60fdf0adc7f5cc81445d07b0,001,2021-08-01_16h02.23.320,arrow_simon_norep,2021.1.2,MacIntel,59.87665409,,,,,,,,,,,,,,,,,,,,,,,,,,,,,,,,,,,,,,
,,,p,1,0.8046,0,0.000330836,#f3af84,,right_orange.png,p,10,1,41,0,1,o,right_blue.png,right_orange.png,p,left,60fdf0adc7f5cc81445d07b0,001,2021-08-01_16h02.23.320,arrow_simon_norep,2021.1.2,MacIntel,59.87665409,,,,,,,,,,,,,,,,,,,,,,,,,,,,,,,,,,,,,,
,,,o,1,1.3064,0,0.550645575,#a3d0fb,,right_blue.png,o,10,2,42,1,1,o,right_blue.png,right_orange.png,p,right,60fdf0adc7f5cc81445d07b0,001,2021-08-01_16h02.23.320,arrow_simon_norep,2021.1.2,MacIntel,59.87665409,,,,,,,,,,,,,,,,,,,,,,,,,,,,,,,,,,,,,,
,,,q,1,1.3395,0,0.818838115,#f3af84,,left_orange.png,q,10,3,43,3,1,w,left_blue.png,left_orange.png,q,right,60fdf0adc7f5cc81445d07b0,001,2021-08-01_16h02.23.320,arrow_simon_norep,2021.1.2,MacIntel,59.87665409,,,,,,,,,,,,,,,,,,,,,,,,,,,,,,,,,,,,,,
,,,o,1,1.1391,0,0.501706901,#a3d0fb,,right_blue.png,o,11,0,44,0,1,o,right_blue.png,right_orange.png,p,left,60fdf0adc7f5cc81445d07b0,001,2021-08-01_16h02.23.320,arrow_simon_norep,2021.1.2,MacIntel,59.87665409,,,,,,,,,,,,,,,,,,,,,,,,,,,,,,,,,,,,,,
,,,q,1,0.8512,0,0.319919545,#f3af84,,left_orange.png,q,11,1,45,3,1,w,left_blue.png,left_orange.png,q,right,60fdf0adc7f5cc81445d07b0,001,2021-08-01_16h02.23.320,arrow_simon_norep,2021.1.2,MacIntel,59.87665409,,,,,,,,,,,,,,,,,,,,,,,,,,,,,,,,,,,,,,
,,,w,1,1.1572,0,0.651512893,#a3d0fb,,left_blue.png,w,11,2,46,2,1,w,left_blue.png,left_orange.png,q,left,60fdf0adc7f5cc81445d07b0,001,2021-08-01_16h02.23.320,arrow_simon_norep,2021.1.2,MacIntel,59.87665409,,,,,,,,,,,,,,,,,,,,,,,,,,,,,,,,,,,,,,
,,,q,1,0.7434,0,0.114703614,#f3af84,,left_orange.png,q,11,3,47,3,1,w,left_blue.png,left_orange.png,q,right,60fdf0adc7f5cc81445d07b0,001,2021-08-01_16h02.23.320,arrow_simon_norep,2021.1.2,MacIntel,59.87665409,,,,,,,,,,,,,,,,,,,,,,,,,,,,,,,,,,,,,,
,,,w,1,1.3985,0,0.773576604,#a3d0fb,,left_blue.png,w,12,0,48,2,1,w,left_blue.png,left_orange.png,q,left,60fdf0adc7f5cc81445d07b0,001,2021-08-01_16h02.23.320,arrow_simon_norep,2021.1.2,MacIntel,59.87665409,,,,,,,,,,,,,,,,,,,,,,,,,,,,,,,,,,,,,,
,,,p,1,1.0557,0,0.583241127,#f3af84,,right_orange.png,p,12,1,49,0,1,o,right_blue.png,right_orange.png,p,left,60fdf0adc7f5cc81445d07b0,001,2021-08-01_16h02.23.320,arrow_simon_norep,2021.1.2,MacIntel,59.87665409,,,,,,,,,,,,,,,,,,,,,,,,,,,,,,,,,,,,,,
,,,w,1,1.5403,0,0.935088534,#a3d0fb,,left_blue.png,w,12,2,50,3,1,w,left_blue.png,left_orange.png,q,right,60fdf0adc7f5cc81445d07b0,001,2021-08-01_16h02.23.320,arrow_simon_norep,2021.1.2,MacIntel,59.87665409,,,,,,,,,,,,,,,,,,,,,,,,,,,,,,,,,,,,,,
,,,q,1,1.0193,0,0.537240651,#f3af84,,left_orange.png,q,12,3,51,2,1,w,left_blue.png,left_orange.png,q,left,60fdf0adc7f5cc81445d07b0,001,2021-08-01_16h02.23.320,arrow_simon_norep,2021.1.2,MacIntel,59.87665409,,,,,,,,,,,,,,,,,,,,,,,,,,,,,,,,,,,,,,
,,,w,1,0.9547,0,0.14607407,#a3d0fb,,left_blue.png,w,13,0,52,2,1,w,left_blue.png,left_orange.png,q,left,60fdf0adc7f5cc81445d07b0,001,2021-08-01_16h02.23.320,arrow_simon_norep,2021.1.2,MacIntel,59.87665409,,,,,,,,,,,,,,,,,,,,,,,,,,,,,,,,,,,,,,
,,,q,1,1.4723,0,0.943949688,#f3af84,,left_orange.png,q,13,1,53,3,1,w,left_blue.png,left_orange.png,q,right,60fdf0adc7f5cc81445d07b0,001,2021-08-01_16h02.23.320,arrow_simon_norep,2021.1.2,MacIntel,59.87665409,,,,,,,,,,,,,,,,,,,,,,,,,,,,,,,,,,,,,,
,,,o,1,0.7875,0,0.010390901,#a3d0fb,,right_blue.png,o,13,2,54,1,1,o,right_blue.png,right_orange.png,p,right,60fdf0adc7f5cc81445d07b0,001,2021-08-01_16h02.23.320,arrow_simon_norep,2021.1.2,MacIntel,59.87665409,,,,,,,,,,,,,,,,,,,,,,,,,,,,,,,,,,,,,,
,,,p,1,0.9938,0,0.477527105,#f3af84,,right_orange.png,p,13,3,55,0,1,o,right_blue.png,right_orange.png,p,left,60fdf0adc7f5cc81445d07b0,001,2021-08-01_16h02.23.320,arrow_simon_norep,2021.1.2,MacIntel,59.87665409,,,,,,,,,,,,,,,,,,,,,,,,,,,,,,,,,,,,,,
,,,w,1,1.4214,0,0.550730883,#a3d0fb,,left_blue.png,w,14,0,56,3,1,w,left_blue.png,left_orange.png,q,right,60fdf0adc7f5cc81445d07b0,001,2021-08-01_16h02.23.320,arrow_simon_norep,2021.1.2,MacIntel,59.87665409,,,,,,,,,,,,,,,,,,,,,,,,,,,,,,,,,,,,,,
,,,p,1,1.31,0,0.772699893,#f3af84,,right_orange.png,p,14,1,57,0,1,o,right_blue.png,right_orange.png,p,left,60fdf0adc7f5cc81445d07b0,001,2021-08-01_16h02.23.320,arrow_simon_norep,2021.1.2,MacIntel,59.87665409,,,,,,,,,,,,,,,,,,,,,,,,,,,,,,,,,,,,,,
,,,w,1,0.8014,0,0.03219867,#a3d0fb,,left_blue.png,w,14,2,58,2,1,w,left_blue.png,left_orange.png,q,left,60fdf0adc7f5cc81445d07b0,001,2021-08-01_16h02.23.320,arrow_simon_norep,2021.1.2,MacIntel,59.87665409,,,,,,,,,,,,,,,,,,,,,,,,,,,,,,,,,,,,,,
,,,p,1,1.3535,0,0.875340316,#f3af84,,right_orange.png,p,14,3,59,1,1,o,right_blue.png,right_orange.png,p,right,60fdf0adc7f5cc81445d07b0,001,2021-08-01_16h02.23.320,arrow_simon_norep,2021.1.2,MacIntel,59.87665409,,,,,,,,,,,,,,,,,,,,,,,,,,,,,,,,,,,,,,
,,,,,,,,,,,,,,,,,,,,,,60fdf0adc7f5cc81445d07b0,001,2021-08-01_16h02.23.320,arrow_simon_norep,2021.1.2,MacIntel,59.87665409,space,19.1363,0,0,0,0,1,,,,,,,,,,,,,,,,,,,,,,,,,,,,,,,
,,,o,1,2.4354,0,0.061818605,#a3d0fb,,right_blue.png,o,0,0,0,1,1,o,right_blue.png,right_orange.png,p,right,60fdf0adc7f5cc81445d07b0,001,2021-08-01_16h02.23.320,arrow_simon_norep,2021.1.2,MacIntel,59.87665409,,,,,,,,,,,,,,,,,,,,,,,,,,,,,,,,,,,,,,
,,,p,1,1.4232,0,0.912066529,#f3af84,,right_orange.png,p,0,1,1,1,1,o,right_blue.png,right_orange.png,p,right,60fdf0adc7f5cc81445d07b0,001,2021-08-01_16h02.23.320,arrow_simon_norep,2021.1.2,MacIntel,59.87665409,,,,,,,,,,,,,,,,,,,,,,,,,,,,,,,,,,,,,,
,,,w,0,1.0777,1,0.379342127,#a3d0fb,,right_blue.png,o,0,2,2,0,1,o,right_blue.png,right_orange.png,p,left,60fdf0adc7f5cc81445d07b0,001,2021-08-01_16h02.23.320,arrow_simon_norep,2021.1.2,MacIntel,59.87665409,,,,,,,,,,,,,,,,,,,,,,,,,,,,,,,,,,,,,,
,,,w,0,1.3869,1,0.996023436,#f3af84,,left_orange.png,q,0,3,3,2,1,w,left_blue.png,left_orange.png,q,left,60fdf0adc7f5cc81445d07b0,001,2021-08-01_16h02.23.320,arrow_simon_norep,2021.1.2,MacIntel,59.87665409,,,,,,,,,,,,,,,,,,,,,,,,,,,,,,,,,,,,,,
,,,o,1,1.8885,0,0.899578442,#a3d0fb,,right_blue.png,o,1,0,4,0,1,o,right_blue.png,right_orange.png,p,left,60fdf0adc7f5cc81445d07b0,001,2021-08-01_16h02.23.320,arrow_simon_norep,2021.1.2,MacIntel,59.87665409,,,,,,,,,,,,,,,,,,,,,,,,,,,,,,,,,,,,,,
,,,q,1,1.373,0,0.863568686,#f3af84,,left_orange.png,q,1,1,5,2,1,w,left_blue.png,left_orange.png,q,left,60fdf0adc7f5cc81445d07b0,001,2021-08-01_16h02.23.320,arrow_simon_norep,2021.1.2,MacIntel,59.87665409,,,,,,,,,,,,,,,,,,,,,,,,,,,,,,,,,,,,,,
,,,o,1,1.2424,0,0.463679048,#a3d0fb,,right_blue.png,o,1,2,6,0,1,o,right_blue.png,right_orange.png,p,left,60fdf0adc7f5cc81445d07b0,001,2021-08-01_16h02.23.320,arrow_simon_norep,2021.1.2,MacIntel,59.87665409,,,,,,,,,,,,,,,,,,,,,,,,,,,,,,,,,,,,,,
,,,q,1,1.1047,0,0.339016844,#f3af84,,left_orange.png,q,1,3,7,2,1,w,left_blue.png,left_orange.png,q,left,60fdf0adc7f5cc81445d07b0,001,2021-08-01_16h02.23.320,arrow_simon_norep,2021.1.2,MacIntel,59.87665409,,,,,,,,,,,,,,,,,,,,,,,,,,,,,,,,,,,,,,
,,,w,1,0.7877,0,0.184120661,#a3d0fb,,left_blue.png,w,2,0,8,2,1,w,left_blue.png,left_orange.png,q,left,60fdf0adc7f5cc81445d07b0,001,2021-08-01_16h02.23.320,arrow_simon_norep,2021.1.2,MacIntel,59.87665409,,,,,,,,,,,,,,,,,,,,,,,,,,,,,,,,,,,,,,
,,,p,1,0.7756,0,0.270429243,#f3af84,,right_orange.png,p,2,1,9,1,1,o,right_blue.png,right_orange.png,p,right,60fdf0adc7f5cc81445d07b0,001,2021-08-01_16h02.23.320,arrow_simon_norep,2021.1.2,MacIntel,59.87665409,,,,,,,,,,,,,,,,,,,,,,,,,,,,,,,,,,,,,,
,,,w,1,0.7552,0,0.113159656,#a3d0fb,,left_blue.png,w,2,2,10,3,1,w,left_blue.png,left_orange.png,q,right,60fdf0adc7f5cc81445d07b0,001,2021-08-01_16h02.23.320,arrow_simon_norep,2021.1.2,MacIntel,59.87665409,,,,,,,,,,,,,,,,,,,,,,,,,,,,,,,,,,,,,,
,,,q,1,1.139,0,0.639013356,#f3af84,,left_orange.png,q,2,3,11,2,1,w,left_blue.png,left_orange.png,q,left,60fdf0adc7f5cc81445d07b0,001,2021-08-01_16h02.23.320,arrow_simon_norep,2021.1.2,MacIntel,59.87665409,,,,,,,,,,,,,,,,,,,,,,,,,,,,,,,,,,,,,,
,,,o,1,0.8365,0,0.0701461,#a3d0fb,,right_blue.png,o,3,0,12,0,1,o,right_blue.png,right_orange.png,p,left,60fdf0adc7f5cc81445d07b0,001,2021-08-01_16h02.23.320,arrow_simon_norep,2021.1.2,MacIntel,59.87665409,,,,,,,,,,,,,,,,,,,,,,,,,,,,,,,,,,,,,,
,,,p,1,1.265,0,0.607694937,#f3af84,,right_orange.png,p,3,1,13,1,1,o,right_blue.png,right_orange.png,p,right,60fdf0adc7f5cc81445d07b0,001,2021-08-01_16h02.23.320,arrow_simon_norep,2021.1.2,MacIntel,59.87665409,,,,,,,,,,,,,,,,,,,,,,,,,,,,,,,,,,,,,,
,,,o,1,1.2756,0,0.364882516,#a3d0fb,,right_blue.png,o,3,2,14,1,1,o,right_blue.png,right_orange.png,p,right,60fdf0adc7f5cc81445d07b0,001,2021-08-01_16h02.23.320,arrow_simon_norep,2021.1.2,MacIntel,59.87665409,,,,,,,,,,,,,,,,,,,,,,,,,,,,,,,,,,,,,,
,,,q,1,1.242,0,0.69877202,#f3af84,,left_orange.png,q,3,3,15,2,1,w,left_blue.png,left_orange.png,q,left,60fdf0adc7f5cc81445d07b0,001,2021-08-01_16h02.23.320,arrow_simon_norep,2021.1.2,MacIntel,59.87665409,,,,,,,,,,,,,,,,,,,,,,,,,,,,,,,,,,,,,,
,,,w,1,1.4361,0,0.873293053,#a3d0fb,,left_blue.png,w,4,0,16,2,1,w,left_blue.png,left_orange.png,q,left,60fdf0adc7f5cc81445d07b0,001,2021-08-01_16h02.23.320,arrow_simon_norep,2021.1.2,MacIntel,59.87665409,,,,,,,,,,,,,,,,,,,,,,,,,,,,,,,,,,,,,,
,,,p,1,1.4096,0,0.943358405,#f3af84,,right_orange.png,p,4,1,17,1,1,o,right_blue.png,right_orange.png,p,right,60fdf0adc7f5cc81445d07b0,001,2021-08-01_16h02.23.320,arrow_simon_norep,2021.1.2,MacIntel,59.87665409,,,,,,,,,,,,,,,,,,,,,,,,,,,,,,,,,,,,,,
,,,o,1,1.1368,0,0.491501069,#a3d0fb,,right_blue.png,o,4,2,18,1,1,o,right_blue.png,right_orange.png,p,right,60fdf0adc7f5cc81445d07b0,001,2021-08-01_16h02.23.320,arrow_simon_norep,2021.1.2,MacIntel,59.87665409,,,,,,,,,,,,,,,,,,,,,,,,,,,,,,,,,,,,,,
,,,p,1,0.7037,0,0.227993648,#f3af84,,right_orange.png,p,4,3,19,1,1,o,right_blue.png,right_orange.png,p,right,60fdf0adc7f5cc81445d07b0,001,2021-08-01_16h02.23.320,arrow_simon_norep,2021.1.2,MacIntel,59.87665409,,,,,,,,,,,,,,,,,,,,,,,,,,,,,,,,,,,,,,
,,,o,0,1.0889,1,0.679721847,#a3d0fb,,left_blue.png,w,5,0,20,3,1,w,left_blue.png,left_orange.png,q,right,60fdf0adc7f5cc81445d07b0,001,2021-08-01_16h02.23.320,arrow_simon_norep,2021.1.2,MacIntel,59.87665409,,,,,,,,,,,,,,,,,,,,,,,,,,,,,,,,,,,,,,
,,,p,1,1.328,0,0.560812698,#f3af84,,right_orange.png,p,5,1,21,1,1,o,right_blue.png,right_orange.png,p,right,60fdf0adc7f5cc81445d07b0,001,2021-08-01_16h02.23.320,arrow_simon_norep,2021.1.2,MacIntel,59.87665409,,,,,,,,,,,,,,,,,,,,,,,,,,,,,,,,,,,,,,
,,,w,1,1.46,0,0.72610345,#a3d0fb,,left_blue.png,w,5,2,22,3,1,w,left_blue.png,left_orange.png,q,right,60fdf0adc7f5cc81445d07b0,001,2021-08-01_16h02.23.320,arrow_simon_norep,2021.1.2,MacIntel,59.87665409,,,,,,,,,,,,,,,,,,,,,,,,,,,,,,,,,,,,,,
,,,q,1,0.8871,0,0.333667526,#f3af84,,left_orange.png,q,5,3,23,3,1,w,left_blue.png,left_orange.png,q,right,60fdf0adc7f5cc81445d07b0,001,2021-08-01_16h02.23.320,arrow_simon_norep,2021.1.2,MacIntel,59.87665409,,,,,,,,,,,,,,,,,,,,,,,,,,,,,,,,,,,,,,
,,,w,1,0.7225,0,0.135793566,#a3d0fb,,left_blue.png,w,6,0,24,3,1,w,left_blue.png,left_orange.png,q,right,60fdf0adc7f5cc81445d07b0,001,2021-08-01_16h02.23.320,arrow_simon_norep,2021.1.2,MacIntel,59.87665409,,,,,,,,,,,,,,,,,,,,,,,,,,,,,,,,,,,,,,
,,,q,1,0.8451,0,0.361011252,#f3af84,,left_orange.png,q,6,1,25,3,1,w,left_blue.png,left_orange.png,q,right,60fdf0adc7f5cc81445d07b0,001,2021-08-01_16h02.23.320,arrow_simon_norep,2021.1.2,MacIntel,59.87665409,,,,,,,,,,,,,,,,,,,,,,,,,,,,,,,,,,,,,,
,,,w,1,1.0405,0,0.63221535,#a3d0fb,,left_blue.png,w,6,2,26,3,1,w,left_blue.png,left_orange.png,q,right,60fdf0adc7f5cc81445d07b0,001,2021-08-01_16h02.23.320,arrow_simon_norep,2021.1.2,MacIntel,59.87665409,,,,,,,,,,,,,,,,,,,,,,,,,,,,,,,,,,,,,,
,,,p,0,0.7175,1,0.23414548,#f3af84,,left_orange.png,q,6,3,27,2,1,w,left_blue.png,left_orange.png,q,left,60fdf0adc7f5cc81445d07b0,001,2021-08-01_16h02.23.320,arrow_simon_norep,2021.1.2,MacIntel,59.87665409,,,,,,,,,,,,,,,,,,,,,,,,,,,,,,,,,,,,,,
,,,w,1,1.447,0,0.743349648,#a3d0fb,,left_blue.png,w,7,0,28,3,1,w,left_blue.png,left_orange.png,q,right,60fdf0adc7f5cc81445d07b0,001,2021-08-01_16h02.23.320,arrow_simon_norep,2021.1.2,MacIntel,59.87665409,,,,,,,,,,,,,,,,,,,,,,,,,,,,,,,,,,,,,,
,,,p,1,1.0897,0,0.628615289,#f3af84,,right_orange.png,p,7,1,29,1,1,o,right_blue.png,right_orange.png,p,right,60fdf0adc7f5cc81445d07b0,001,2021-08-01_16h02.23.320,arrow_simon_norep,2021.1.2,MacIntel,59.87665409,,,,,,,,,,,,,,,,,,,,,,,,,,,,,,,,,,,,,,
,,,o,1,1.1389,0,0.454800557,#a3d0fb,,right_blue.png,o,7,2,30,0,1,o,right_blue.png,right_orange.png,p,left,60fdf0adc7f5cc81445d07b0,001,2021-08-01_16h02.23.320,arrow_simon_norep,2021.1.2,MacIntel,59.87665409,,,,,,,,,,,,,,,,,,,,,,,,,,,,,,,,,,,,,,
,,,p,1,1.015,0,0.129802025,#f3af84,,right_orange.png,p,7,3,31,1,1,o,right_blue.png,right_orange.png,p,right,60fdf0adc7f5cc81445d07b0,001,2021-08-01_16h02.23.320,arrow_simon_norep,2021.1.2,MacIntel,59.87665409,,,,,,,,,,,,,,,,,,,,,,,,,,,,,,,,,,,,,,
,,,o,1,1.3772,0,0.51043293,#a3d0fb,,right_blue.png,o,8,0,32,1,1,o,right_blue.png,right_orange.png,p,right,60fdf0adc7f5cc81445d07b0,001,2021-08-01_16h02.23.320,arrow_simon_norep,2021.1.2,MacIntel,59.87665409,,,,,,,,,,,,,,,,,,,,,,,,,,,,,,,,,,,,,,
,,,q,1,0.9547,0,0.395454065,#f3af84,,left_orange.png,q,8,1,33,3,1,w,left_blue.png,left_orange.png,q,right,60fdf0adc7f5cc81445d07b0,001,2021-08-01_16h02.23.320,arrow_simon_norep,2021.1.2,MacIntel,59.87665409,,,,,,,,,,,,,,,,,,,,,,,,,,,,,,,,,,,,,,
,,,w,0,1.3723,1,0.798699016,#a3d0fb,,right_blue.png,o,8,2,34,0,1,o,right_blue.png,right_orange.png,p,left,60fdf0adc7f5cc81445d07b0,001,2021-08-01_16h02.23.320,arrow_simon_norep,2021.1.2,MacIntel,59.87665409,,,,,,,,,,,,,,,,,,,,,,,,,,,,,,,,,,,,,,
,,,q,1,1.2918,0,0.569781505,#f3af84,,left_orange.png,q,8,3,35,2,1,w,left_blue.png,left_orange.png,q,left,60fdf0adc7f5cc81445d07b0,001,2021-08-01_16h02.23.320,arrow_simon_norep,2021.1.2,MacIntel,59.87665409,,,,,,,,,,,,,,,,,,,,,,,,,,,,,,,,,,,,,,
,,,w,1,1.4291,0,0.613908103,#a3d0fb,,left_blue.png,w,9,0,36,3,1,w,left_blue.png,left_orange.png,q,right,60fdf0adc7f5cc81445d07b0,001,2021-08-01_16h02.23.320,arrow_simon_norep,2021.1.2,MacIntel,59.87665409,,,,,,,,,,,,,,,,,,,,,,,,,,,,,,,,,,,,,,
,,,p,1,0.7225,0,0.128810161,#f3af84,,right_orange.png,p,9,1,37,0,1,o,right_blue.png,right_orange.png,p,left,60fdf0adc7f5cc81445d07b0,001,2021-08-01_16h02.23.320,arrow_simon_norep,2021.1.2,MacIntel,59.87665409,,,,,,,,,,,,,,,,,,,,,,,,,,,,,,,,,,,,,,
,,,o,1,1.0451,0,0.370561991,#a3d0fb,,right_blue.png,o,9,2,38,1,1,o,right_blue.png,right_orange.png,p,right,60fdf0adc7f5cc81445d07b0,001,2021-08-01_16h02.23.320,arrow_simon_norep,2021.1.2,MacIntel,59.87665409,,,,,,,,,,,,,,,,,,,,,,,,,,,,,,,,,,,,,,
,,,p,1,1.0715,0,0.372603553,#f3af84,,right_orange.png,p,9,3,39,1,1,o,right_blue.png,right_orange.png,p,right,60fdf0adc7f5cc81445d07b0,001,2021-08-01_16h02.23.320,arrow_simon_norep,2021.1.2,MacIntel,59.87665409,,,,,,,,,,,,,,,,,,,,,,,,,,,,,,,,,,,,,,
,,,o,1,1.1416,0,0.49254835,#a3d0fb,,right_blue.png,o,10,0,40,0,1,o,right_blue.png,right_orange.png,p,left,60fdf0adc7f5cc81445d07b0,001,2021-08-01_16h02.23.320,arrow_simon_norep,2021.1.2,MacIntel,59.87665409,,,,,,,,,,,,,,,,,,,,,,,,,,,,,,,,,,,,,,
,,,q,1,1.0586,0,0.213376323,#f3af84,,left_orange.png,q,10,1,41,3,1,w,left_blue.png,left_orange.png,q,right,60fdf0adc7f5cc81445d07b0,001,2021-08-01_16h02.23.320,arrow_simon_norep,2021.1.2,MacIntel,59.87665409,,,,,,,,,,,,,,,,,,,,,,,,,,,,,,,,,,,,,,
,,,w,1,1.4887,0,0.790710512,#a3d0fb,,left_blue.png,w,10,2,42,2,1,w,left_blue.png,left_orange.png,q,left,60fdf0adc7f5cc81445d07b0,001,2021-08-01_16h02.23.320,arrow_simon_norep,2021.1.2,MacIntel,59.87665409,,,,,,,,,,,,,,,,,,,,,,,,,,,,,,,,,,,,,,
,,,q,1,0.741,0,0.080386655,#f3af84,,left_orange.png,q,10,3,43,3,1,w,left_blue.png,left_orange.png,q,right,60fdf0adc7f5cc81445d07b0,001,2021-08-01_16h02.23.320,arrow_simon_norep,2021.1.2,MacIntel,59.87665409,,,,,,,,,,,,,,,,,,,,,,,,,,,,,,,,,,,,,,
,,,w,1,1.5548,0,0.469347827,#a3d0fb,,left_blue.png,w,11,0,44,3,1,w,left_blue.png,left_orange.png,q,right,60fdf0adc7f5cc81445d07b0,001,2021-08-01_16h02.23.320,arrow_simon_norep,2021.1.2,MacIntel,59.87665409,,,,,,,,,,,,,,,,,,,,,,,,,,,,,,,,,,,,,,
,,,q,1,1.1195,0,0.19586661,#f3af84,,left_orange.png,q,11,1,45,2,1,w,left_blue.png,left_orange.png,q,left,60fdf0adc7f5cc81445d07b0,001,2021-08-01_16h02.23.320,arrow_simon_norep,2021.1.2,MacIntel,59.87665409,,,,,,,,,,,,,,,,,,,,,,,,,,,,,,,,,,,,,,
,,,w,1,0.8046,0,0.079839902,#a3d0fb,,left_blue.png,w,11,2,46,2,1,w,left_blue.png,left_orange.png,q,left,60fdf0adc7f5cc81445d07b0,001,2021-08-01_16h02.23.320,arrow_simon_norep,2021.1.2,MacIntel,59.87665409,,,,,,,,,,,,,,,,,,,,,,,,,,,,,,,,,,,,,,
,,,p,1,1.1688,0,0.784577027,#f3af84,,right_orange.png,p,11,3,47,1,1,o,right_blue.png,right_orange.png,p,right,60fdf0adc7f5cc81445d07b0,001,2021-08-01_16h02.23.320,arrow_simon_norep,2021.1.2,MacIntel,59.87665409,,,,,,,,,,,,,,,,,,,,,,,,,,,,,,,,,,,,,,
,,,o,1,1.2272,0,0.180357561,#a3d0fb,,right_blue.png,o,12,0,48,0,1,o,right_blue.png,right_orange.png,p,left,60fdf0adc7f5cc81445d07b0,001,2021-08-01_16h02.23.320,arrow_simon_norep,2021.1.2,MacIntel,59.87665409,,,,,,,,,,,,,,,,,,,,,,,,,,,,,,,,,,,,,,
,,,q,1,1.2239,0,0.696706478,#f3af84,,left_orange.png,q,12,1,49,2,1,w,left_blue.png,left_orange.png,q,left,60fdf0adc7f5cc81445d07b0,001,2021-08-01_16h02.23.320,arrow_simon_norep,2021.1.2,MacIntel,59.87665409,,,,,,,,,,,,,,,,,,,,,,,,,,,,,,,,,,,,,,
,,,o,1,1.592,0,0.975315768,#a3d0fb,,right_blue.png,o,12,2,50,0,1,o,right_blue.png,right_orange.png,p,left,60fdf0adc7f5cc81445d07b0,001,2021-08-01_16h02.23.320,arrow_simon_norep,2021.1.2,MacIntel,59.87665409,,,,,,,,,,,,,,,,,,,,,,,,,,,,,,,,,,,,,,
,,,p,1,0.7903,0,0.019272495,#f3af84,,right_orange.png,p,12,3,51,0,1,o,right_blue.png,right_orange.png,p,left,60fdf0adc7f5cc81445d07b0,001,2021-08-01_16h02.23.320,arrow_simon_norep,2021.1.2,MacIntel,59.87665409,,,,,,,,,,,,,,,,,,,,,,,,,,,,,,,,,,,,,,
,,,w,1,1.4771,0,0.853610397,#a3d0fb,,left_blue.png,w,13,0,52,2,1,w,left_blue.png,left_orange.png,q,left,60fdf0adc7f5cc81445d07b0,001,2021-08-01_16h02.23.320,arrow_simon_norep,2021.1.2,MacIntel,59.87665409,,,,,,,,,,,,,,,,,,,,,,,,,,,,,,,,,,,,,,
,,,q,1,1.5558,0,0.947829134,#f3af84,,left_orange.png,q,13,1,53,3,1,w,left_blue.png,left_orange.png,q,right,60fdf0adc7f5cc81445d07b0,001,2021-08-01_16h02.23.320,arrow_simon_norep,2021.1.2,MacIntel,59.87665409,,,,,,,,,,,,,,,,,,,,,,,,,,,,,,,,,,,,,,
,,,o,1,1.4617,0,0.786103448,#a3d0fb,,right_blue.png,o,13,2,54,0,1,o,right_blue.png,right_orange.png,p,left,60fdf0adc7f5cc81445d07b0,001,2021-08-01_16h02.23.320,arrow_simon_norep,2021.1.2,MacIntel,59.87665409,,,,,,,,,,,,,,,,,,,,,,,,,,,,,,,,,,,,,,
,,,p,1,1.2754,0,0.760729645,#f3af84,,right_orange.png,p,13,3,55,0,1,o,right_blue.png,right_orange.png,p,left,60fdf0adc7f5cc81445d07b0,001,2021-08-01_16h02.23.320,arrow_simon_norep,2021.1.2,MacIntel,59.87665409,,,,,,,,,,,,,,,,,,,,,,,,,,,,,,,,,,,,,,
,,,w,1,0.6735,0,0.101536782,#a3d0fb,,left_blue.png,w,14,0,56,3,1,w,left_blue.png,left_orange.png,q,right,60fdf0adc7f5cc81445d07b0,001,2021-08-01_16h02.23.320,arrow_simon_norep,2021.1.2,MacIntel,59.87665409,,,,,,,,,,,,,,,,,,,,,,,,,,,,,,,,,,,,,,
,,,p,1,1.187,0,0.6715392,#f3af84,,right_orange.png,p,14,1,57,0,1,o,right_blue.png,right_orange.png,p,left,60fdf0adc7f5cc81445d07b0,001,2021-08-01_16h02.23.320,arrow_simon_norep,2021.1.2,MacIntel,59.87665409,,,,,,,,,,,,,,,,,,,,,,,,,,,,,,,,,,,,,,
,,,o,1,0.9892,0,0.29239459,#a3d0fb,,right_blue.png,o,14,2,58,0,1,o,right_blue.png,right_orange.png,p,left,60fdf0adc7f5cc81445d07b0,001,2021-08-01_16h02.23.320,arrow_simon_norep,2021.1.2,MacIntel,59.87665409,,,,,,,,,,,,,,,,,,,,,,,,,,,,,,,,,,,,,,
,,,q,1,0.7202,0,0.128634008,#f3af84,,left_orange.png,q,14,3,59,2,1,w,left_blue.png,left_orange.png,q,left,60fdf0adc7f5cc81445d07b0,001,2021-08-01_16h02.23.320,arrow_simon_norep,2021.1.2,MacIntel,59.87665409,,,,,,,,,,,,,,,,,,,,,,,,,,,,,,,,,,,,,,
,,,,,,,,,,,,,,,,,,,,,,60fdf0adc7f5cc81445d07b0,001,2021-08-01_16h02.23.320,arrow_simon_norep,2021.1.2,MacIntel,59.87665409,space,2.5755,1,0,1,0,1,,,,,,,,,,,,,,,,,,,,,,,,,,,,,,,
,,,,,,,,,,,,,,,,,,,,,,60fdf0adc7f5cc81445d07b0,001,2021-08-01_16h02.23.320,arrow_simon_norep,2021.1.2,MacIntel,59.87665409,,,,,,,,space,0,35.9947,q,2.6558,0,0,0,0,1,,,,,,,,,,,,,,,,,,,,,
,,,,,,,,,,,,,,,,,,,,,,60fdf0adc7f5cc81445d07b0,001,2021-08-01_16h02.23.320,arrow_simon_norep,2021.1.2,MacIntel,59.87665409,,,,,,,,,,,q,2.699,1,0,1,0,1,,,,,,,,,,,,,,,,,,,,,
,,,,,,,,,,,,,,,,,,,,,,60fdf0adc7f5cc81445d07b0,001,2021-08-01_16h02.23.320,arrow_simon_norep,2021.1.2,MacIntel,59.87665409,,,,,,,,,,,q,2.2487,2,0,2,0,1,,,,,,,,,,,,,,,,,,,,,
,,,,,,,,,,,,,,,,,,,,,,60fdf0adc7f5cc81445d07b0,001,2021-08-01_16h02.23.320,arrow_simon_norep,2021.1.2,MacIntel,59.87665409,,,,,,,,,,,q,2.264,3,0,3,0,1,,,,,,,,,,,,,,,,,,,,,
,,,,,,,,,,,,,,,,,,,,,,60fdf0adc7f5cc81445d07b0,001,2021-08-01_16h02.23.320,arrow_simon_norep,2021.1.2,MacIntel,59.87665409,,,,,,,,,,,q,2.592,4,0,4,0,1,,,,,,,,,,,,,,,,,,,,,
,,,,,,,,,,,,,,,,,,,,,,60fdf0adc7f5cc81445d07b0,001,2021-08-01_16h02.23.320,arrow_simon_norep,2021.1.2,MacIntel,59.87665409,,,,,,,,,,,q,2.5978,5,0,5,0,1,,,,,,,,,,,,,,,,,,,,,
,,,,,,,,,,,,,,,,,,,,,,60fdf0adc7f5cc81445d07b0,001,2021-08-01_16h02.23.320,arrow_simon_norep,2021.1.2,MacIntel,59.87665409,,,,,,,,,,,w,2.5254,6,0,6,0,1,,,,,,,,,,,,,,,,,,,,,
,,,,,,,,,,,,,,,,,,,,,,60fdf0adc7f5cc81445d07b0,001,2021-08-01_16h02.23.320,arrow_simon_norep,2021.1.2,MacIntel,59.87665409,,,,,,,,,,,q,2.5719,7,0,7,0,1,,,,,,,,,,,,,,,,,,,,,
,,,,,,,,,,,,,,,,,,,,,,60fdf0adc7f5cc81445d07b0,001,2021-08-01_16h02.23.320,arrow_simon_norep,2021.1.2,MacIntel,59.87665409,,,,,,,,,,,w,2.6751,8,0,8,0,1,,,,,,,,,,,,,,,,,,,,,
,,,,,,,,,,,,,,,,,,,,,,60fdf0adc7f5cc81445d07b0,001,2021-08-01_16h02.23.320,arrow_simon_norep,2021.1.2,MacIntel,59.87665409,,,,,,,,,,,q,2.5937,9,0,9,0,1,,,,,,,,,,,,,,,,,,,,,
,,,,,,,,,,,,,,,,,,,,,,60fdf0adc7f5cc81445d07b0,001,2021-08-01_16h02.23.320,arrow_simon_norep,2021.1.2,MacIntel,59.87665409,,,,,,,,,,,w,2.6398,10,0,10,0,1,,,,,,,,,,,,,,,,,,,,,
,,,,,,,,,,,,,,,,,,,,,,60fdf0adc7f5cc81445d07b0,001,2021-08-01_16h02.23.320,arrow_simon_norep,2021.1.2,MacIntel,59.87665409,,,,,,,,,,,q,2.5102,11,0,11,0,1,,,,,,,,,,,,,,,,,,,,,
,,,,,,,,,,,,,,,,,,,,,,60fdf0adc7f5cc81445d07b0,001,2021-08-01_16h02.23.320,arrow_simon_norep,2021.1.2,MacIntel,59.87665409,,,,,,,,,,,w,2.5565,12,0,12,0,1,,,,,,,,,,,,,,,,,,,,,
,,,,,,,,,,,,,,,,,,,,,,60fdf0adc7f5cc81445d07b0,001,2021-08-01_16h02.23.320,arrow_simon_norep,2021.1.2,MacIntel,59.87665409,,,,,,,,,,,q,2.4983,13,0,13,0,1,,,,,,,,,,,,,,,,,,,,,
,,,,,,,,,,,,,,,,,,,,,,60fdf0adc7f5cc81445d07b0,001,2021-08-01_16h02.23.320,arrow_simon_norep,2021.1.2,MacIntel,59.87665409,,,,,,,,,,,w,2.5223,14,0,14,0,1,,,,,,,,,,,,,,,,,,,,,
,,,,,,,,,,,,,,,,,,,,,,60fdf0adc7f5cc81445d07b0,001,2021-08-01_16h02.23.320,arrow_simon_norep,2021.1.2,MacIntel,59.87665409,,,,,,,,,,,q,7.4989,15,0,15,0,1,,,,,,,,,,,,,,,,,,,,,
,,,,,,,,,,,,,,,,,,,,,,60fdf0adc7f5cc81445d07b0,001,2021-08-01_16h02.23.320,arrow_simon_norep,2021.1.2,MacIntel,59.87665409,,,,,,,,,,,w,5.7537,16,0,16,0,1,,,,,,,,,,,,,,,,,,,,,
,,,,,,,,,,,,,,,,,,,,,,60fdf0adc7f5cc81445d07b0,001,2021-08-01_16h02.23.320,arrow_simon_norep,2021.1.2,MacIntel,59.87665409,,,,,,,,,,,q,2.6163,17,0,17,0,1,,,,,,,,,,,,,,,,,,,,,
,,,,,,,,,,,,,,,,,,,,,,60fdf0adc7f5cc81445d07b0,001,2021-08-01_16h02.23.320,arrow_simon_norep,2021.1.2,MacIntel,59.87665409,,,,,,,,,,,w,2.543,18,0,18,0,1,,,,,,,,,,,,,,,,,,,,,
,,,,,,,,,,,,,,,,,,,,,,60fdf0adc7f5cc81445d07b0,001,2021-08-01_16h02.23.320,arrow_simon_norep,2021.1.2,MacIntel,59.87665409,,,,,,,,,,,q,2.5788,19,0,19,0,1,,,,,,,,,,,,,,,,,,,,,
,,,,,,,,,,,,,,,,,,,,,,60fdf0adc7f5cc81445d07b0,001,2021-08-01_16h02.23.320,arrow_simon_norep,2021.1.2,MacIntel,59.87665409,,,,,,,,,,,w,2.6745,20,0,20,0,1,,,,,,,,,,,,,,,,,,,,,
,,,,,,,,,,,,,,,,,,,,,,60fdf0adc7f5cc81445d07b0,001,2021-08-01_16h02.23.320,arrow_simon_norep,2021.1.2,MacIntel,59.87665409,,,,,,,,,,,q,2.5086,21,0,21,0,1,,,,,,,,,,,,,,,,,,,,,
,,,,,,,,,,,,,,,,,,,,,,60fdf0adc7f5cc81445d07b0,001,2021-08-01_16h02.23.320,arrow_simon_norep,2021.1.2,MacIntel,59.87665409,,,,,,,,,,,w,2.5002,22,0,22,0,1,,,,,,,,,,,,,,,,,,,,,
,,,,,,,,,,,,,,,,,,,,,,60fdf0adc7f5cc81445d07b0,001,2021-08-01_16h02.23.320,arrow_simon_norep,2021.1.2,MacIntel,59.87665409,,,,,,,,,,,q,2.4722,23,0,23,0,1,,,,,,,,,,,,,,,,,,,,,
,,,,,,,,,,,,,,,,,,,,,,60fdf0adc7f5cc81445d07b0,001,2021-08-01_16h02.23.320,arrow_simon_norep,2021.1.2,MacIntel,59.87665409,,,,,,,,,,,w,2.4766,24,0,24,0,1,,,,,,,,,,,,,,,,,,,,,
,,,,,,,,,,,,,,,,,,,,,,60fdf0adc7f5cc81445d07b0,001,2021-08-01_16h02.23.320,arrow_simon_norep,2021.1.2,MacIntel,59.87665409,,,,,,,,,,,q,2.49,25,0,25,0,1,,,,,,,,,,,,,,,,,,,,,
,,,,,,,,,,,,,,,,,,,,,,60fdf0adc7f5cc81445d07b0,001,2021-08-01_16h02.23.320,arrow_simon_norep,2021.1.2,MacIntel,59.87665409,,,,,,,,,,,w,2.4588,26,0,26,0,1,,,,,,,,,,,,,,,,,,,,,
,,,,,,,,,,,,,,,,,,,,,,60fdf0adc7f5cc81445d07b0,001,2021-08-01_16h02.23.320,arrow_simon_norep,2021.1.2,MacIntel,59.87665409,,,,,,,,,,,q,2.4547,27,0,27,0,1,,,,,,,,,,,,,,,,,,,,,
,,,,,,,,,,,,,,,,,,,,,,60fdf0adc7f5cc81445d07b0,001,2021-08-01_16h02.23.320,arrow_simon_norep,2021.1.2,MacIntel,59.87665409,,,,,,,,,,,w,2.4813,28,0,28,0,1,,,,,,,,,,,,,,,,,,,,,
,,,,,,,,,,,,,,,,,,,,,,60fdf0adc7f5cc81445d07b0,001,2021-08-01_16h02.23.320,arrow_simon_norep,2021.1.2,MacIntel,59.87665409,,,,,,,,,,,q,2.5287,29,0,29,0,1,,,,,,,,,,,,,,,,,,,,,
,,,,,,,,,,,,,,,,,,,,,,60fdf0adc7f5cc81445d07b0,001,2021-08-01_16h02.23.320,arrow_simon_norep,2021.1.2,MacIntel,59.87665409,,,,,,,,,,,w,2.6637,30,0,30,0,1,,,,,,,,,,,,,,,,,,,,,
,,,,,,,,,,,,,,,,,,,,,,60fdf0adc7f5cc81445d07b0,001,2021-08-01_16h02.23.320,arrow_simon_norep,2021.1.2,MacIntel,59.87665409,,,,,,,,,,,q,2.5081,31,0,31,0,1,,,,,,,,,,,,,,,,,,,,,
,,,,,,,,,,,,,,,,,,,,,,60fdf0adc7f5cc81445d07b0,001,2021-08-01_16h02.23.320,arrow_simon_norep,2021.1.2,MacIntel,59.87665409,,,,,,,,,,,w,2.4725,32,0,32,0,1,,,,,,,,,,,,,,,,,,,,,
,,,,,,,,,,,,,,,,,,,,,,60fdf0adc7f5cc81445d07b0,001,2021-08-01_16h02.23.320,arrow_simon_norep,2021.1.2,MacIntel,59.87665409,,,,,,,,,,,q,2.5102,33,0,33,0,1,,,,,,,,,,,,,,,,,,,,,
,,,,,,,,,,,,,,,,,,,,,,60fdf0adc7f5cc81445d07b0,001,2021-08-01_16h02.23.320,arrow_simon_norep,2021.1.2,MacIntel,59.87665409,,,,,,,,,,,w,2.6099,34,0,34,0,1,,,,,,,,,,,,,,,,,,,,,
,,,,,,,,,,,,,,,,,,,,,,60fdf0adc7f5cc81445d07b0,001,2021-08-01_16h02.23.320,arrow_simon_norep,2021.1.2,MacIntel,59.87665409,,,,,,,,,,,q,2.5418,35,0,35,0,1,,,,,,,,,,,,,,,,,,,,,
,,,,,,,,,,,,,,,,,,,,,,60fdf0adc7f5cc81445d07b0,001,2021-08-01_16h02.23.320,arrow_simon_norep,2021.1.2,MacIntel,59.87665409,,,,,,,,,,,w,2.6287,36,0,36,0,1,,,,,,,,,,,,,,,,,,,,,
,,,,,,,,,,,,,,,,,,,,,,60fdf0adc7f5cc81445d07b0,001,2021-08-01_16h02.23.320,arrow_simon_norep,2021.1.2,MacIntel,59.87665409,,,,,,,,,,,q,2.4933,37,0,37,0,1,,,,,,,,,,,,,,,,,,,,,
,,,,,,,,,,,,,,,,,,,,,,60fdf0adc7f5cc81445d07b0,001,2021-08-01_16h02.23.320,arrow_simon_norep,2021.1.2,MacIntel,59.87665409,,,,,,,,,,,w,2.5713,38,0,38,0,1,,,,,,,,,,,,,,,,,,,,,
,,,,,,,,,,,,,,,,,,,,,,60fdf0adc7f5cc81445d07b0,001,2021-08-01_16h02.23.320,arrow_simon_norep,2021.1.2,MacIntel,59.87665409,,,,,,,,,,,q,2.5588,39,0,39,0,1,,,,,,,,,,,,,,,,,,,,,
,,,,,,,,,,,,,,,,,,,,,,60fdf0adc7f5cc81445d07b0,001,2021-08-01_16h02.23.320,arrow_simon_norep,2021.1.2,MacIntel,59.87665409,,,,,,,,,,,w,2.6237,40,0,40,0,1,,,,,,,,,,,,,,,,,,,,,
,,,,,,,,,,,,,,,,,,,,,,60fdf0adc7f5cc81445d07b0,001,2021-08-01_16h02.23.320,arrow_simon_norep,2021.1.2,MacIntel,59.87665409,,,,,,,,,,,q,2.4777,41,0,41,0,1,,,,,,,,,,,,,,,,,,,,,
,,,,,,,,,,,,,,,,,,,,,,60fdf0adc7f5cc81445d07b0,001,2021-08-01_16h02.23.320,arrow_simon_norep,2021.1.2,MacIntel,59.87665409,,,,,,,,,,,w,2.477,42,0,42,0,1,,,,,,,,,,,,,,,,,,,,,
,,,,,,,,,,,,,,,,,,,,,,60fdf0adc7f5cc81445d07b0,001,2021-08-01_16h02.23.320,arrow_simon_norep,2021.1.2,MacIntel,59.87665409,,,,,,,,,,,q,2.5585,43,0,43,0,1,,,,,,,,,,,,,,,,,,,,,
,,,,,,,,,,,,,,,,,,,,,,60fdf0adc7f5cc81445d07b0,001,2021-08-01_16h02.23.320,arrow_simon_norep,2021.1.2,MacIntel,59.87665409,,,,,,,,,,,w,2.6235,44,0,44,0,1,,,,,,,,,,,,,,,,,,,,,
,,,,,,,,,,,,,,,,,,,,,,60fdf0adc7f5cc81445d07b0,001,2021-08-01_16h02.23.320,arrow_simon_norep,2021.1.2,MacIntel,59.87665409,,,,,,,,,,,q,2.5367,45,0,45,0,1,,,,,,,,,,,,,,,,,,,,,
,,,,,,,,,,,,,,,,,,,,,,60fdf0adc7f5cc81445d07b0,001,2021-08-01_16h02.23.320,arrow_simon_norep,2021.1.2,MacIntel,59.87665409,,,,,,,,,,,w,2.5415,46,0,46,0,1,,,,,,,,,,,,,,,,,,,,,
,,,,,,,,,,,,,,,,,,,,,,60fdf0adc7f5cc81445d07b0,001,2021-08-01_16h02.23.320,arrow_simon_norep,2021.1.2,MacIntel,59.87665409,,,,,,,,,,,q,2.7245,47,0,47,0,1,,,,,,,,,,,,,,,,,,,,,
,,,,,,,,,,,,,,,,,,,,,,60fdf0adc7f5cc81445d07b0,001,2021-08-01_16h02.23.320,arrow_simon_norep,2021.1.2,MacIntel,59.87665409,,,,,,,,,,,w,2.5262,48,0,48,0,1,,,,,,,,,,,,,,,,,,,,,
,,,,,,,,,,,,,,,,,,,,,,60fdf0adc7f5cc81445d07b0,001,2021-08-01_16h02.23.320,arrow_simon_norep,2021.1.2,MacIntel,59.87665409,,,,,,,,,,,q,2.48,49,0,49,0,1,,,,,,,,,,,,,,,,,,,,,
,,,,,,,,,,,,,,,,,,,,,,60fdf0adc7f5cc81445d07b0,001,2021-08-01_16h02.23.320,arrow_simon_norep,2021.1.2,MacIntel,59.87665409,,,,,,,,,,,w,2.5587,50,0,50,0,1,,,,,,,,,,,,,,,,,,,,,
,,,,,,,,,,,,,,,,,,,,,,60fdf0adc7f5cc81445d07b0,001,2021-08-01_16h02.23.320,arrow_simon_norep,2021.1.2,MacIntel,59.87665409,,,,,,,,,,,q,2.1922,51,0,51,0,1,,,,,,,,,,,,,,,,,,,,,
,,,,,,,,,,,,,,,,,,,,,,60fdf0adc7f5cc81445d07b0,001,2021-08-01_16h02.23.320,arrow_simon_norep,2021.1.2,MacIntel,59.87665409,,,,,,,,,,,w,1.7711,52,0,52,0,1,,,,,,,,,,,,,,,,,,,,,
,,,,,,,,,,,,,,,,,,,,,,60fdf0adc7f5cc81445d07b0,001,2021-08-01_16h02.23.320,arrow_simon_norep,2021.1.2,MacIntel,59.87665409,,,,,,,,,,,q,2.6242,53,0,53,0,1,,,,,,,,,,,,,,,,,,,,,
,,,,,,,,,,,,,,,,,,,,,,60fdf0adc7f5cc81445d07b0,001,2021-08-01_16h02.23.320,arrow_simon_norep,2021.1.2,MacIntel,59.87665409,,,,,,,,,,,w,2.5459,54,0,54,0,1,,,,,,,,,,,,,,,,,,,,,
,,,,,,,,,,,,,,,,,,,,,,60fdf0adc7f5cc81445d07b0,001,2021-08-01_16h02.23.320,arrow_simon_norep,2021.1.2,MacIntel,59.87665409,,,,,,,,,,,q,2.5091,55,0,55,0,1,,,,,,,,,,,,,,,,,,,,,
,,,,,,,,,,,,,,,,,,,,,,60fdf0adc7f5cc81445d07b0,001,2021-08-01_16h02.23.320,arrow_simon_norep,2021.1.2,MacIntel,59.87665409,,,,,,,,,,,w,2.5769,56,0,56,0,1,,,,,,,,,,,,,,,,,,,,,
,,,,,,,,,,,,,,,,,,,,,,60fdf0adc7f5cc81445d07b0,001,2021-08-01_16h02.23.320,arrow_simon_norep,2021.1.2,MacIntel,59.87665409,,,,,,,,,,,q,2.497,57,0,57,0,1,,,,,,,,,,,,,,,,,,,,,
,,,,,,,,,,,,,,,,,,,,,,60fdf0adc7f5cc81445d07b0,001,2021-08-01_16h02.23.320,arrow_simon_norep,2021.1.2,MacIntel,59.87665409,,,,,,,,,,,w,2.5102,58,0,58,0,1,,,,,,,,,,,,,,,,,,,,,
,,,,,,,,,,,,,,,,,,,,,,60fdf0adc7f5cc81445d07b0,001,2021-08-01_16h02.23.320,arrow_simon_norep,2021.1.2,MacIntel,59.87665409,,,,,,,,,,,q,2.5756,59,0,59,0,1,,,,,,,,,,,,,,,,,,,,,
,,,,,,1,1.734867412,#a3d0fb,,left_blue.png,w,,,,,,w,left_blue.png,left_orange.png,q,right,60fdf0adc7f5cc81445d07b0,001,2021-08-01_16h02.23.320,arrow_simon_norep,2021.1.2,MacIntel,59.87665409,,,,,,,,,,,,,,,,,,space,0,34.0447,q,0,1.5995,1,FALSE,FALSE,0,0,0,3,1,,,,,,,
,,,,,,1,2.102483148,#f3af84,,left_orange.png,q,,,,,,w,left_blue.png,left_orange.png,q,right,60fdf0adc7f5cc81445d07b0,001,2021-08-01_16h02.23.320,arrow_simon_norep,2021.1.2,MacIntel,59.87665409,,,,,,,,,,,,,,,,,,,,,q,1,0.6762,2,FALSE,TRUE,0,1,1,3,1,,,,,,,
,,,,,,1,1.901864215,#a3d0fb,,left_blue.png,w,,,,,,w,left_blue.png,left_orange.png,q,right,60fdf0adc7f5cc81445d07b0,001,2021-08-01_16h02.23.320,arrow_simon_norep,2021.1.2,MacIntel,59.87665409,,,,,,,,,,,,,,,,,,,,,q,0,1.7141,3,TRUE,FALSE,0,2,2,3,1,,,,,,,
,,,,,,1,1.604446186,#f3af84,,right_orange.png,p,,,,,,o,right_blue.png,right_orange.png,p,right,60fdf0adc7f5cc81445d07b0,001,2021-08-01_16h02.23.320,arrow_simon_norep,2021.1.2,MacIntel,59.87665409,,,,,,,,,,,,,,,,,,,,,p,1,1.2279,4,FALSE,TRUE,0,3,3,1,1,,,,,,,
,,,,,,1,2.47744406,#a3d0fb,,right_blue.png,o,,,,,,o,right_blue.png,right_orange.png,p,left,60fdf0adc7f5cc81445d07b0,001,2021-08-01_16h02.23.320,arrow_simon_norep,2021.1.2,MacIntel,59.87665409,,,,,,,,,,,,,,,,,,,,,p,0,2.0995,5,TRUE,FALSE,1,0,4,0,1,,,,,,,
,,,,,,1,1.568769511,#f3af84,,left_orange.png,q,,,,,,w,left_blue.png,left_orange.png,q,left,60fdf0adc7f5cc81445d07b0,001,2021-08-01_16h02.23.320,arrow_simon_norep,2021.1.2,MacIntel,59.87665409,,,,,,,,,,,,,,,,,,,,,q,1,1.3106,6,FALSE,TRUE,1,1,5,2,1,,,,,,,
,,,,,,1,2.065303516,#a3d0fb,,left_blue.png,w,,,,,,w,left_blue.png,left_orange.png,q,right,60fdf0adc7f5cc81445d07b0,001,2021-08-01_16h02.23.320,arrow_simon_norep,2021.1.2,MacIntel,59.87665409,,,,,,,,,,,,,,,,,,,,,o,0,1.7768,7,TRUE,FALSE,1,2,6,3,1,,,,,,,
,,,,,,1,1.954818923,#f3af84,,left_orange.png,q,,,,,,w,left_blue.png,left_orange.png,q,right,60fdf0adc7f5cc81445d07b0,001,2021-08-01_16h02.23.320,arrow_simon_norep,2021.1.2,MacIntel,59.87665409,,,,,,,,,,,,,,,,,,,,,q,1,1.7246,8,TRUE,FALSE,1,3,7,3,1,,,,,,,
,,,,,,1,1.97289164,#a3d0fb,,right_blue.png,o,,,,,,o,right_blue.png,right_orange.png,p,left,60fdf0adc7f5cc81445d07b0,001,2021-08-01_16h02.23.320,arrow_simon_norep,2021.1.2,MacIntel,59.87665409,,,,,,,,,,,,,,,,,,,,,o,1,1.603,9,TRUE,FALSE,2,0,8,0,1,,,,,,,
,,,,,,1,2.357363022,#f3af84,,right_orange.png,p,,,,,,o,right_blue.png,right_orange.png,p,left,60fdf0adc7f5cc81445d07b0,001,2021-08-01_16h02.23.320,arrow_simon_norep,2021.1.2,MacIntel,59.87665409,,,,,,,,,,,,,,,,,,,,,q,0,1.6937,10,TRUE,FALSE,2,1,9,0,1,,,,,,,
,,,,,,1,2.177456536,#a3d0fb,,left_blue.png,w,,,,,,w,left_blue.png,left_orange.png,q,right,60fdf0adc7f5cc81445d07b0,001,2021-08-01_16h02.23.320,arrow_simon_norep,2021.1.2,MacIntel,59.87665409,,,,,,,,,,,,,,,,,,,,,o,0,1.5504,11,FALSE,FALSE,2,2,10,3,1,,,,,,,
,,,,,,1,2.468494343,#f3af84,,left_orange.png,q,,,,,,w,left_blue.png,left_orange.png,q,right,60fdf0adc7f5cc81445d07b0,001,2021-08-01_16h02.23.320,arrow_simon_norep,2021.1.2,MacIntel,59.87665409,,,,,,,,,,,,,,,,,,,,,q,1,1.9825,12,TRUE,FALSE,2,3,11,3,1,,,,,,,
,,,,,,1,1.556030305,#a3d0fb,,left_blue.png,w,,,,,,w,left_blue.png,left_orange.png,q,right,60fdf0adc7f5cc81445d07b0,001,2021-08-01_16h02.23.320,arrow_simon_norep,2021.1.2,MacIntel,59.87665409,,,,,,,,,,,,,,,,,,,,,w,1,1.7627,13,TRUE,FALSE,3,0,12,3,1,,,,,,,
,,,,,,1,1.682256149,#f3af84,,left_orange.png,q,,,,,,w,left_blue.png,left_orange.png,q,left,60fdf0adc7f5cc81445d07b0,001,2021-08-01_16h02.23.320,arrow_simon_norep,2021.1.2,MacIntel,59.87665409,,,,,,,,,,,,,,,,,,,,,q,1,1.6416,14,TRUE,FALSE,3,1,13,2,1,,,,,,,
,,,,,,0,1.551342297,#a3d0fb,,left_blue.png,w,,,,,,w,left_blue.png,left_orange.png,q,right,60fdf0adc7f5cc81445d07b0,001,2021-08-01_16h02.23.320,arrow_simon_norep,2021.1.2,MacIntel,59.87665409,,,,,,,,,,,,,,,,,,,,,w,1,1.5668,15,FALSE,FALSE,3,2,14,3,1,,,,,,,
,,,,,,0,2.294233458,#f3af84,,left_orange.png,q,,,,,,w,left_blue.png,left_orange.png,q,right,60fdf0adc7f5cc81445d07b0,001,2021-08-01_16h02.23.320,arrow_simon_norep,2021.1.2,MacIntel,59.87665409,,,,,,,,,,,,,,,,,,,,,p,0,1.643,16,TRUE,FALSE,3,3,15,3,1,,,,,,,
,,,,,,0,2.485051276,#a3d0fb,,right_blue.png,o,,,,,,o,right_blue.png,right_orange.png,p,right,60fdf0adc7f5cc81445d07b0,001,2021-08-01_16h02.23.320,arrow_simon_norep,2021.1.2,MacIntel,59.87665409,,,,,,,,,,,,,,,,,,,,,o,1,1.8426,17,TRUE,FALSE,4,0,16,1,1,,,,,,,
,,,,,,0,1.611938498,#f3af84,,right_orange.png,p,,,,,,o,right_blue.png,right_orange.png,p,right,60fdf0adc7f5cc81445d07b0,001,2021-08-01_16h02.23.320,arrow_simon_norep,2021.1.2,MacIntel,59.87665409,,,,,,,,,,,,,,,,,,,,,p,1,1.6121,18,TRUE,FALSE,4,1,17,1,1,,,,,,,
,,,,,,0,1.509485639,#a3d0fb,,left_blue.png,w,,,,,,w,left_blue.png,left_orange.png,q,left,60fdf0adc7f5cc81445d07b0,001,2021-08-01_16h02.23.320,arrow_simon_norep,2021.1.2,MacIntel,59.87665409,,,,,,,,,,,,,,,,,,,,,w,1,1.1465,19,FALSE,TRUE,4,2,18,2,1,,,,,,,
,,,,,,0,1.979121161,#f3af84,,right_orange.png,p,,,,,,o,right_blue.png,right_orange.png,p,right,60fdf0adc7f5cc81445d07b0,001,2021-08-01_16h02.23.320,arrow_simon_norep,2021.1.2,MacIntel,59.87665409,,,,,,,,,,,,,,,,,,,,,p,1,1.4841,20,FALSE,FALSE,4,3,19,1,1,,,,,,,
,,,,,,1,2.393967498,#a3d0fb,,right_blue.png,o,,,,,,o,right_blue.png,right_orange.png,p,right,60fdf0adc7f5cc81445d07b0,001,2021-08-01_16h02.23.320,arrow_simon_norep,2021.1.2,MacIntel,59.87665409,,,,,,,,,,,,,,,,,,,,,w,0,1.595,21,FALSE,FALSE,5,0,20,1,1,,,,,,,
,,,,,,1,2.025100268,#f3af84,,left_orange.png,q,,,,,,w,left_blue.png,left_orange.png,q,left,60fdf0adc7f5cc81445d07b0,001,2021-08-01_16h02.23.320,arrow_simon_norep,2021.1.2,MacIntel,59.87665409,,,,,,,,,,,,,,,,,,,,,q,1,1.6441,22,TRUE,FALSE,5,1,21,2,1,,,,,,,
,,,,,,1,1.594867429,#a3d0fb,,right_blue.png,o,,,,,,o,right_blue.png,right_orange.png,p,right,60fdf0adc7f5cc81445d07b0,001,2021-08-01_16h02.23.320,arrow_simon_norep,2021.1.2,MacIntel,59.87665409,,,,,,,,,,,,,,,,,,,,,o,1,1.2479,23,FALSE,TRUE,5,2,22,1,1,,,,,,,
,,,,,,0,1.899383717,#f3af84,,right_orange.png,p,,,,,,o,right_blue.png,right_orange.png,p,right,60fdf0adc7f5cc81445d07b0,001,2021-08-01_16h02.23.320,arrow_simon_norep,2021.1.2,MacIntel,59.87665409,,,,,,,,,,,,,,,,,,,,,p,1,1.5661,24,FALSE,FALSE,5,3,23,1,1,,,,,,,
,,,,,,0,2.466866878,#a3d0fb,,right_blue.png,o,,,,,,o,right_blue.png,right_orange.png,p,left,60fdf0adc7f5cc81445d07b0,001,2021-08-01_16h02.23.320,arrow_simon_norep,2021.1.2,MacIntel,59.87665409,,,,,,,,,,,,,,,,,,,,,w,0,1.779,25,TRUE,FALSE,6,0,24,0,1,,,,,,,
,,,,,,0,1.520754552,#f3af84,,left_orange.png,q,,,,,,w,left_blue.png,left_orange.png,q,left,60fdf0adc7f5cc81445d07b0,001,2021-08-01_16h02.23.320,arrow_simon_norep,2021.1.2,MacIntel,59.87665409,,,,,,,,,,,,,,,,,,,,,q,1,1.6242,26,TRUE,FALSE,6,1,25,2,1,,,,,,,
,,,,,,0,1.689507132,#a3d0fb,,right_blue.png,o,,,,,,o,right_blue.png,right_orange.png,p,right,60fdf0adc7f5cc81445d07b0,001,2021-08-01_16h02.23.320,arrow_simon_norep,2021.1.2,MacIntel,59.87665409,,,,,,,,,,,,,,,,,,,,,o,1,1.564,27,FALSE,FALSE,6,2,26,1,1,,,,,,,
,,,,,,1,2.216665478,#f3af84,,right_orange.png,p,,,,,,o,right_blue.png,right_orange.png,p,left,60fdf0adc7f5cc81445d07b0,001,2021-08-01_16h02.23.320,arrow_simon_norep,2021.1.2,MacIntel,59.87665409,,,,,,,,,,,,,,,,,,,,,q,0,1.5277,28,FALSE,FALSE,6,3,27,0,1,,,,,,,
,,,,,,0,1.846536294,#a3d0fb,,left_blue.png,w,,,,,,w,left_blue.png,left_orange.png,q,left,60fdf0adc7f5cc81445d07b0,001,2021-08-01_16h02.23.320,arrow_simon_norep,2021.1.2,MacIntel,59.87665409,,,,,,,,,,,,,,,,,,,,,w,1,1.5299,29,FALSE,FALSE,7,0,28,2,1,,,,,,,
,,,,,,0,2.016932756,#f3af84,,right_orange.png,p,,,,,,o,right_blue.png,right_orange.png,p,right,60fdf0adc7f5cc81445d07b0,001,2021-08-01_16h02.23.320,arrow_simon_norep,2021.1.2,MacIntel,59.87665409,,,,,,,,,,,,,,,,,,,,,p,1,1.5586,30,FALSE,FALSE,7,1,29,1,1,,,,,,,
,,,,,,0,2.199249154,#a3d0fb,,right_blue.png,o,,,,,,o,right_blue.png,right_orange.png,p,left,60fdf0adc7f5cc81445d07b0,001,2021-08-01_16h02.23.320,arrow_simon_norep,2021.1.2,MacIntel,59.87665409,,,,,,,,,,,,,,,,,,,,,o,1,1.6953,31,TRUE,FALSE,7,2,30,0,1,,,,,,,
,,,,,,0,2.372789802,#f3af84,,right_orange.png,p,,,,,,o,right_blue.png,right_orange.png,p,left,60fdf0adc7f5cc81445d07b0,001,2021-08-01_16h02.23.320,arrow_simon_norep,2021.1.2,MacIntel,59.87665409,,,,,,,,,,,,,,,,,,,,,q,0,1.7119,32,TRUE,FALSE,7,3,31,0,1,,,,,,,
,,,,,,0,2.111657256,#a3d0fb,,left_blue.png,w,,,,,,w,left_blue.png,left_orange.png,q,left,60fdf0adc7f5cc81445d07b0,001,2021-08-01_16h02.23.320,arrow_simon_norep,2021.1.2,MacIntel,59.87665409,,,,,,,,,,,,,,,,,,,,,w,1,1.683,33,TRUE,FALSE,8,0,32,2,1,,,,,,,
,,,,,,0,2.027699833,#f3af84,,right_orange.png,p,,,,,,o,right_blue.png,right_orange.png,p,left,60fdf0adc7f5cc81445d07b0,001,2021-08-01_16h02.23.320,arrow_simon_norep,2021.1.2,MacIntel,59.87665409,,,,,,,,,,,,,,,,,,,,,p,1,1.4964,34,FALSE,FALSE,8,1,33,0,1,,,,,,,
,,,,,,0,1.893382776,#a3d0fb,,left_blue.png,w,,,,,,w,left_blue.png,left_orange.png,q,left,60fdf0adc7f5cc81445d07b0,001,2021-08-01_16h02.23.320,arrow_simon_norep,2021.1.2,MacIntel,59.87665409,,,,,,,,,,,,,,,,,,,,,w,1,1.5162,35,FALSE,FALSE,8,2,34,2,1,,,,,,,
,,,,,,0,1.654448225,#f3af84,,right_orange.png,p,,,,,,o,right_blue.png,right_orange.png,p,left,60fdf0adc7f5cc81445d07b0,001,2021-08-01_16h02.23.320,arrow_simon_norep,2021.1.2,MacIntel,59.87665409,,,,,,,,,,,,,,,,,,,,,p,1,1.5442,36,FALSE,FALSE,8,3,35,0,1,,,,,,,
,,,,,,0,1.657754147,#a3d0fb,,right_blue.png,o,,,,,,o,right_blue.png,right_orange.png,p,right,60fdf0adc7f5cc81445d07b0,001,2021-08-01_16h02.23.320,arrow_simon_norep,2021.1.2,MacIntel,59.87665409,,,,,,,,,,,,,,,,,,,,,o,1,1.5458,37,FALSE,FALSE,9,0,36,1,1,,,,,,,
,,,,,,0,2.118198136,#f3af84,,left_orange.png,q,,,,,,w,left_blue.png,left_orange.png,q,right,60fdf0adc7f5cc81445d07b0,001,2021-08-01_16h02.23.320,arrow_simon_norep,2021.1.2,MacIntel,59.87665409,,,,,,,,,,,,,,,,,,,,,q,1,1.5802,38,FALSE,FALSE,9,1,37,3,1,,,,,,,
,,,,,,0,1.840754129,#a3d0fb,,left_blue.png,w,,,,,,w,left_blue.png,left_orange.png,q,left,60fdf0adc7f5cc81445d07b0,001,2021-08-01_16h02.23.320,arrow_simon_norep,2021.1.2,MacIntel,59.87665409,,,,,,,,,,,,,,,,,,,,,w,1,1.5329,39,FALSE,FALSE,9,2,38,2,1,,,,,,,
,,,,,,0,2.033820723,#f3af84,,right_orange.png,p,,,,,,o,right_blue.png,right_orange.png,p,left,60fdf0adc7f5cc81445d07b0,001,2021-08-01_16h02.23.320,arrow_simon_norep,2021.1.2,MacIntel,59.87665409,,,,,,,,,,,,,,,,,,,,,p,1,1.4944,40,FALSE,FALSE,9,3,39,0,1,,,,,,,
,,,,,,1,2.167473329,#a3d0fb,,left_blue.png,w,,,,,,w,left_blue.png,left_orange.png,q,right,60fdf0adc7f5cc81445d07b0,001,2021-08-01_16h02.23.320,arrow_simon_norep,2021.1.2,MacIntel,59.87665409,,,,,,,,,,,,,,,,,,,,,o,0,1.5152,41,FALSE,FALSE,10,0,40,3,1,,,,,,,
,,,,,,0,1.734487031,#f3af84,,right_orange.png,p,,,,,,o,right_blue.png,right_orange.png,p,right,60fdf0adc7f5cc81445d07b0,001,2021-08-01_16h02.23.320,arrow_simon_norep,2021.1.2,MacIntel,59.87665409,,,,,,,,,,,,,,,,,,,,,p,1,1.5287,42,FALSE,FALSE,10,1,41,1,1,,,,,,,
,,,,,,0,2.425554673,#a3d0fb,,right_blue.png,o,,,,,,o,right_blue.png,right_orange.png,p,left,60fdf0adc7f5cc81445d07b0,001,2021-08-01_16h02.23.320,arrow_simon_norep,2021.1.2,MacIntel,59.87665409,,,,,,,,,,,,,,,,,,,,,w,0,1.66,43,TRUE,FALSE,10,2,42,0,1,,,,,,,
,,,,,,0,2.440715404,#f3af84,,right_orange.png,p,,,,,,o,right_blue.png,right_orange.png,p,right,60fdf0adc7f5cc81445d07b0,001,2021-08-01_16h02.23.320,arrow_simon_norep,2021.1.2,MacIntel,59.87665409,,,,,,,,,,,,,,,,,,,,,p,1,1.8473,44,TRUE,FALSE,10,3,43,1,1,,,,,,,
,,,,,,0,2.488589331,#a3d0fb,,left_blue.png,w,,,,,,w,left_blue.png,left_orange.png,q,left,60fdf0adc7f5cc81445d07b0,001,2021-08-01_16h02.23.320,arrow_simon_norep,2021.1.2,MacIntel,59.87665409,,,,,,,,,,,,,,,,,,,,,w,1,1.7596,45,TRUE,FALSE,11,0,44,2,1,,,,,,,
,,,,,,0,2.138707312,#f3af84,,right_orange.png,p,,,,,,o,right_blue.png,right_orange.png,p,left,60fdf0adc7f5cc81445d07b0,001,2021-08-01_16h02.23.320,arrow_simon_norep,2021.1.2,MacIntel,59.87665409,,,,,,,,,,,,,,,,,,,,,q,0,1.6073,46,TRUE,FALSE,11,1,45,0,1,,,,,,,
,,,,,,0,1.678924283,#a3d0fb,,right_blue.png,o,,,,,,o,right_blue.png,right_orange.png,p,right,60fdf0adc7f5cc81445d07b0,001,2021-08-01_16h02.23.320,arrow_simon_norep,2021.1.2,MacIntel,59.87665409,,,,,,,,,,,,,,,,,,,,,o,1,1.4937,47,FALSE,FALSE,11,2,46,1,1,,,,,,,
,,,,,,0,1.810626471,#f3af84,,right_orange.png,p,,,,,,o,right_blue.png,right_orange.png,p,right,60fdf0adc7f5cc81445d07b0,001,2021-08-01_16h02.23.320,arrow_simon_norep,2021.1.2,MacIntel,59.87665409,,,,,,,,,,,,,,,,,,,,,p,1,1.4737,48,FALSE,FALSE,11,3,47,1,1,,,,,,,
,,,,,,0,2.152719303,#a3d0fb,,left_blue.png,w,,,,,,w,left_blue.png,left_orange.png,q,left,60fdf0adc7f5cc81445d07b0,001,2021-08-01_16h02.23.320,arrow_simon_norep,2021.1.2,MacIntel,59.87665409,,,,,,,,,,,,,,,,,,,,,w,1,1.5652,49,FALSE,FALSE,12,0,48,2,1,,,,,,,
,,,,,,1,2.175047698,#f3af84,,right_orange.png,p,,,,,,o,right_blue.png,right_orange.png,p,left,60fdf0adc7f5cc81445d07b0,001,2021-08-01_16h02.23.320,arrow_simon_norep,2021.1.2,MacIntel,59.87665409,,,,,,,,,,,,,,,,,,,,,q,0,1.5271,50,FALSE,FALSE,12,1,49,0,1,,,,,,,
,,,,,,0,1.609084091,#a3d0fb,,left_blue.png,w,,,,,,w,left_blue.png,left_orange.png,q,left,60fdf0adc7f5cc81445d07b0,001,2021-08-01_16h02.23.320,arrow_simon_norep,2021.1.2,MacIntel,59.87665409,,,,,,,,,,,,,,,,,,,,,w,1,1.5275,51,FALSE,FALSE,12,2,50,2,1,,,,,,,
,,,,,,1,2.219180261,#f3af84,,right_orange.png,p,,,,,,o,right_blue.png,right_orange.png,p,left,60fdf0adc7f5cc81445d07b0,001,2021-08-01_16h02.23.320,arrow_simon_norep,2021.1.2,MacIntel,59.87665409,,,,,,,,,,,,,,,,,,,,,q,0,1.5794,52,FALSE,FALSE,12,3,51,0,1,,,,,,,
,,,,,,1,2.282495021,#a3d0fb,,left_blue.png,w,,,,,,w,left_blue.png,left_orange.png,q,left,60fdf0adc7f5cc81445d07b0,001,2021-08-01_16h02.23.320,arrow_simon_norep,2021.1.2,MacIntel,59.87665409,,,,,,,,,,,,,,,,,,,,,w,1,1.9625,53,TRUE,FALSE,13,0,52,2,1,,,,,,,
,,,,,,0,1.892078517,#f3af84,,right_orange.png,p,,,,,,o,right_blue.png,right_orange.png,p,right,60fdf0adc7f5cc81445d07b0,001,2021-08-01_16h02.23.320,arrow_simon_norep,2021.1.2,MacIntel,59.87665409,,,,,,,,,,,,,,,,,,,,,p,1,1.5006,54,FALSE,FALSE,13,1,53,1,1,,,,,,,
,,,,,,0,2.455889837,#a3d0fb,,left_blue.png,w,,,,,,w,left_blue.png,left_orange.png,q,right,60fdf0adc7f5cc81445d07b0,001,2021-08-01_16h02.23.320,arrow_simon_norep,2021.1.2,MacIntel,59.87665409,,,,,,,,,,,,,,,,,,,,,w,1,1.6596,55,TRUE,FALSE,13,2,54,3,1,,,,,,,
,,,,,,0,2.006116772,#f3af84,,left_orange.png,q,,,,,,w,left_blue.png,left_orange.png,q,left,60fdf0adc7f5cc81445d07b0,001,2021-08-01_16h02.23.320,arrow_simon_norep,2021.1.2,MacIntel,59.87665409,,,,,,,,,,,,,,,,,,,,,q,1,1.5272,56,FALSE,FALSE,13,3,55,2,1,,,,,,,
,,,,,,1,1.531089587,#a3d0fb,,right_blue.png,o,,,,,,o,right_blue.png,right_orange.png,p,left,60fdf0adc7f5cc81445d07b0,001,2021-08-01_16h02.23.320,arrow_simon_norep,2021.1.2,MacIntel,59.87665409,,,,,,,,,,,,,,,,,,,,,w,0,1.5107,57,FALSE,FALSE,14,0,56,0,1,,,,,,,
,,,,,,0,1.959160825,#f3af84,,left_orange.png,q,,,,,,w,left_blue.png,left_orange.png,q,left,60fdf0adc7f5cc81445d07b0,001,2021-08-01_16h02.23.320,arrow_simon_norep,2021.1.2,MacIntel,59.87665409,,,,,,,,,,,,,,,,,,,,,q,1,1.5475,58,FALSE,FALSE,14,1,57,2,1,,,,,,,
,,,,,,0,1.982121809,#a3d0fb,,left_blue.png,w,,,,,,w,left_blue.png,left_orange.png,q,right,60fdf0adc7f5cc81445d07b0,001,2021-08-01_16h02.23.320,arrow_simon_norep,2021.1.2,MacIntel,59.87665409,,,,,,,,,,,,,,,,,,,,,w,1,1.4291,59,FALSE,FALSE,14,2,58,3,1,,,,,,,
,,,,,,0,1.593312854,#f3af84,,left_orange.png,q,,,,,,w,left_blue.png,left_orange.png,q,right,60fdf0adc7f5cc81445d07b0,001,2021-08-01_16h02.23.320,arrow_simon_norep,2021.1.2,MacIntel,59.87665409,,,,,,,,,,,,,,,,,,,,,q,1,1.63,60,TRUE,FALSE,14,3,59,3,1,,,,,,,
,,,,,,,,,,,,,,,,,,,,,,60fdf0adc7f5cc81445d07b0,001,2021-08-01_16h02.23.320,arrow_simon_norep,2021.1.2,MacIntel,59.87665409,,,,,,,,,,,,,,,,,,,,,,,,,,,,,,,,space,13.9367,0,0,0,0,1
,,,,,,0,1.508703066,#a3d0fb,,left_blue.png,w,,,,,,w,left_blue.png,left_orange.png,q,left,60fdf0adc7f5cc81445d07b0,001,2021-08-01_16h02.23.320,arrow_simon_norep,2021.1.2,MacIntel,59.87665409,,,,,,,,,,,,,,,,,,,,,w,1,1.4962,1,FALSE,FALSE,0,0,0,2,1,,,,,,,
,,,,,,0,2.446096008,#f3af84,,left_orange.png,q,,,,,,w,left_blue.png,left_orange.png,q,left,60fdf0adc7f5cc81445d07b0,001,2021-08-01_16h02.23.320,arrow_simon_norep,2021.1.2,MacIntel,59.87665409,,,,,,,,,,,,,,,,,,,,,q,1,1.7266,2,TRUE,FALSE,0,1,1,2,1,,,,,,,
,,,,,,0,2.113180045,#a3d0fb,,right_blue.png,o,,,,,,o,right_blue.png,right_orange.png,p,left,60fdf0adc7f5cc81445d07b0,001,2021-08-01_16h02.23.320,arrow_simon_norep,2021.1.2,MacIntel,59.87665409,,,,,,,,,,,,,,,,,,,,,o,1,1.5437,3,FALSE,FALSE,0,2,2,0,1,,,,,,,
,,,,,,0,1.53558227,#f3af84,,left_orange.png,q,,,,,,w,left_blue.png,left_orange.png,q,left,60fdf0adc7f5cc81445d07b0,001,2021-08-01_16h02.23.320,arrow_simon_norep,2021.1.2,MacIntel,59.87665409,,,,,,,,,,,,,,,,,,,,,q,1,1.5596,4,FALSE,FALSE,0,3,3,2,1,,,,,,,
,,,,,,0,2.444825762,#a3d0fb,,right_blue.png,o,,,,,,o,right_blue.png,right_orange.png,p,right,60fdf0adc7f5cc81445d07b0,001,2021-08-01_16h02.23.320,arrow_simon_norep,2021.1.2,MacIntel,59.87665409,,,,,,,,,,,,,,,,,,,,,o,1,1.6112,5,TRUE,FALSE,1,0,4,1,1,,,,,,,
,,,,,,0,1.627159854,#f3af84,,right_orange.png,p,,,,,,o,right_blue.png,right_orange.png,p,left,60fdf0adc7f5cc81445d07b0,001,2021-08-01_16h02.23.320,arrow_simon_norep,2021.1.2,MacIntel,59.87665409,,,,,,,,,,,,,,,,,,,,,p,1,1.5928,6,FALSE,FALSE,1,1,5,0,1,,,,,,,
,,,,,,1,1.554750502,#a3d0fb,,right_blue.png,o,,,,,,o,right_blue.png,right_orange.png,p,left,60fdf0adc7f5cc81445d07b0,001,2021-08-01_16h02.23.320,arrow_simon_norep,2021.1.2,MacIntel,59.87665409,,,,,,,,,,,,,,,,,,,,,p,0,1.459,7,FALSE,FALSE,1,2,6,0,1,,,,,,,
,,,,,,1,2.476742861,#f3af84,,right_orange.png,p,,,,,,o,right_blue.png,right_orange.png,p,right,60fdf0adc7f5cc81445d07b0,001,2021-08-01_16h02.23.320,arrow_simon_norep,2021.1.2,MacIntel,59.87665409,,,,,,,,,,,,,,,,,,,,,p,1,1.6694,8,TRUE,FALSE,1,3,7,1,1,,,,,,,
,,,,,,1,1.919624121,#a3d0fb,,right_blue.png,o,,,,,,o,right_blue.png,right_orange.png,p,right,60fdf0adc7f5cc81445d07b0,001,2021-08-01_16h02.23.320,arrow_simon_norep,2021.1.2,MacIntel,59.87665409,,,,,,,,,,,,,,,,,,,,,o,1,1.346,9,FALSE,TRUE,2,0,8,1,1,,,,,,,
,,,,,,1,2.370146299,#f3af84,,left_orange.png,q,,,,,,w,left_blue.png,left_orange.png,q,left,60fdf0adc7f5cc81445d07b0,001,2021-08-01_16h02.23.320,arrow_simon_norep,2021.1.2,MacIntel,59.87665409,,,,,,,,,,,,,,,,,,,,,p,0,1.6086,10,TRUE,FALSE,2,1,9,2,1,,,,,,,
,,,,,,0,2.215770655,#a3d0fb,,left_blue.png,w,,,,,,w,left_blue.png,left_orange.png,q,left,60fdf0adc7f5cc81445d07b0,001,2021-08-01_16h02.23.320,arrow_simon_norep,2021.1.2,MacIntel,59.87665409,,,,,,,,,,,,,,,,,,,,,w,1,1.5763,11,FALSE,FALSE,2,2,10,2,1,,,,,,,
,,,,,,0,1.910286745,#f3af84,,right_orange.png,p,,,,,,o,right_blue.png,right_orange.png,p,left,60fdf0adc7f5cc81445d07b0,001,2021-08-01_16h02.23.320,arrow_simon_norep,2021.1.2,MacIntel,59.87665409,,,,,,,,,,,,,,,,,,,,,p,1,1.5938,12,FALSE,FALSE,2,3,11,0,1,,,,,,,
,,,,,,0,1.773052294,#a3d0fb,,left_blue.png,w,,,,,,w,left_blue.png,left_orange.png,q,right,60fdf0adc7f5cc81445d07b0,001,2021-08-01_16h02.23.320,arrow_simon_norep,2021.1.2,MacIntel,59.87665409,,,,,,,,,,,,,,,,,,,,,w,1,1.5361,13,FALSE,FALSE,3,0,12,3,1,,,,,,,
,,,,,,0,1.664044021,#f3af84,,left_orange.png,q,,,,,,w,left_blue.png,left_orange.png,q,right,60fdf0adc7f5cc81445d07b0,001,2021-08-01_16h02.23.320,arrow_simon_norep,2021.1.2,MacIntel,59.87665409,,,,,,,,,,,,,,,,,,,,,q,1,1.5818,14,FALSE,FALSE,3,1,13,3,1,,,,,,,
,,,,,,0,1.767549293,#a3d0fb,,left_blue.png,w,,,,,,w,left_blue.png,left_orange.png,q,left,60fdf0adc7f5cc81445d07b0,001,2021-08-01_16h02.23.320,arrow_simon_norep,2021.1.2,MacIntel,59.87665409,,,,,,,,,,,,,,,,,,,,,w,1,1.6097,15,TRUE,FALSE,3,2,14,2,1,,,,,,,
,,,,,,0,1.724325478,#f3af84,,right_orange.png,p,,,,,,o,right_blue.png,right_orange.png,p,left,60fdf0adc7f5cc81445d07b0,001,2021-08-01_16h02.23.320,arrow_simon_norep,2021.1.2,MacIntel,59.87665409,,,,,,,,,,,,,,,,,,,,,p,1,1.4819,16,FALSE,FALSE,3,3,15,0,1,,,,,,,
,,,,,,0,2.409196901,#a3d0fb,,right_blue.png,o,,,,,,o,right_blue.png,right_orange.png,p,left,60fdf0adc7f5cc81445d07b0,001,2021-08-01_16h02.23.320,arrow_simon_norep,2021.1.2,MacIntel,59.87665409,,,,,,,,,,,,,,,,,,,,,w,0,1.7644,17,TRUE,FALSE,4,0,16,0,1,,,,,,,
,,,,,,0,2.148739226,#f3af84,,left_orange.png,q,,,,,,w,left_blue.png,left_orange.png,q,left,60fdf0adc7f5cc81445d07b0,001,2021-08-01_16h02.23.320,arrow_simon_norep,2021.1.2,MacIntel,59.87665409,,,,,,,,,,,,,,,,,,,,,q,1,1.5114,18,FALSE,FALSE,4,1,17,2,1,,,,,,,
,,,,,,1,2.152006652,#a3d0fb,,left_blue.png,w,,,,,,w,left_blue.png,left_orange.png,q,right,60fdf0adc7f5cc81445d07b0,001,2021-08-01_16h02.23.320,arrow_simon_norep,2021.1.2,MacIntel,59.87665409,,,,,,,,,,,,,,,,,,,,,o,0,1.4666,19,FALSE,FALSE,4,2,18,3,1,,,,,,,
,,,,,,0,1.540831121,#f3af84,,left_orange.png,q,,,,,,w,left_blue.png,left_orange.png,q,right,60fdf0adc7f5cc81445d07b0,001,2021-08-01_16h02.23.320,arrow_simon_norep,2021.1.2,MacIntel,59.87665409,,,,,,,,,,,,,,,,,,,,,q,1,1.4923,20,FALSE,FALSE,4,3,19,3,1,,,,,,,
,,,,,,0,2.348631503,#a3d0fb,,left_blue.png,w,,,,,,w,left_blue.png,left_orange.png,q,right,60fdf0adc7f5cc81445d07b0,001,2021-08-01_16h02.23.320,arrow_simon_norep,2021.1.2,MacIntel,59.87665409,,,,,,,,,,,,,,,,,,,,,o,0,1.7259,21,TRUE,FALSE,5,0,20,3,1,,,,,,,
,,,,,,0,1.817598058,#f3af84,,left_orange.png,q,,,,,,w,left_blue.png,left_orange.png,q,right,60fdf0adc7f5cc81445d07b0,001,2021-08-01_16h02.23.320,arrow_simon_norep,2021.1.2,MacIntel,59.87665409,,,,,,,,,,,,,,,,,,,,,q,1,1.8939,22,TRUE,FALSE,5,1,21,3,1,,,,,,,
,,,,,,0,1.971433679,#a3d0fb,,left_blue.png,w,,,,,,w,left_blue.png,left_orange.png,q,left,60fdf0adc7f5cc81445d07b0,001,2021-08-01_16h02.23.320,arrow_simon_norep,2021.1.2,MacIntel,59.87665409,,,,,,,,,,,,,,,,,,,,,w,1,1.5299,23,FALSE,FALSE,5,2,22,2,1,,,,,,,
,,,,,,1,2.457626194,#f3af84,,right_orange.png,p,,,,,,o,right_blue.png,right_orange.png,p,right,60fdf0adc7f5cc81445d07b0,001,2021-08-01_16h02.23.320,arrow_simon_norep,2021.1.2,MacIntel,59.87665409,,,,,,,,,,,,,,,,,,,,,q,0,1.5759,24,FALSE,FALSE,5,3,23,1,1,,,,,,,
,,,,,,0,1.693124597,#a3d0fb,,right_blue.png,o,,,,,,o,right_blue.png,right_orange.png,p,left,60fdf0adc7f5cc81445d07b0,001,2021-08-01_16h02.23.320,arrow_simon_norep,2021.1.2,MacIntel,59.87665409,,,,,,,,,,,,,,,,,,,,,o,1,1.5011,25,FALSE,FALSE,6,0,24,0,1,,,,,,,
,,,,,,0,1.89458481,#f3af84,,right_orange.png,p,,,,,,o,right_blue.png,right_orange.png,p,left,60fdf0adc7f5cc81445d07b0,001,2021-08-01_16h02.23.320,arrow_simon_norep,2021.1.2,MacIntel,59.87665409,,,,,,,,,,,,,,,,,,,,,p,1,1.5939,26,FALSE,FALSE,6,1,25,0,1,,,,,,,
,,,,,,0,2.422288552,#a3d0fb,,left_blue.png,w,,,,,,w,left_blue.png,left_orange.png,q,right,60fdf0adc7f5cc81445d07b0,001,2021-08-01_16h02.23.320,arrow_simon_norep,2021.1.2,MacIntel,59.87665409,,,,,,,,,,,,,,,,,,,,,w,1,1.946,27,TRUE,FALSE,6,2,26,3,1,,,,,,,
,,,,,,0,1.566150895,#f3af84,,right_orange.png,p,,,,,,o,right_blue.png,right_orange.png,p,right,60fdf0adc7f5cc81445d07b0,001,2021-08-01_16h02.23.320,arrow_simon_norep,2021.1.2,MacIntel,59.87665409,,,,,,,,,,,,,,,,,,,,,p,1,1.5292,28,FALSE,FALSE,6,3,27,1,1,,,,,,,
,,,,,,0,2.088427382,#a3d0fb,,left_blue.png,w,,,,,,w,left_blue.png,left_orange.png,q,left,60fdf0adc7f5cc81445d07b0,001,2021-08-01_16h02.23.320,arrow_simon_norep,2021.1.2,MacIntel,59.87665409,,,,,,,,,,,,,,,,,,,,,w,1,1.478,29,FALSE,FALSE,7,0,28,2,1,,,,,,,
,,,,,,0,2.055559106,#f3af84,,right_orange.png,p,,,,,,o,right_blue.png,right_orange.png,p,right,60fdf0adc7f5cc81445d07b0,001,2021-08-01_16h02.23.320,arrow_simon_norep,2021.1.2,MacIntel,59.87665409,,,,,,,,,,,,,,,,,,,,,p,1,1.5081,30,FALSE,FALSE,7,1,29,1,1,,,,,,,
,,,,,,0,1.918862731,#a3d0fb,,left_blue.png,w,,,,,,w,left_blue.png,left_orange.png,q,right,60fdf0adc7f5cc81445d07b0,001,2021-08-01_16h02.23.320,arrow_simon_norep,2021.1.2,MacIntel,59.87665409,,,,,,,,,,,,,,,,,,,,,w,1,1.5904,31,FALSE,FALSE,7,2,30,3,1,,,,,,,
,,,,,,0,2.003101327,#f3af84,,left_orange.png,q,,,,,,w,left_blue.png,left_orange.png,q,left,60fdf0adc7f5cc81445d07b0,001,2021-08-01_16h02.23.320,arrow_simon_norep,2021.1.2,MacIntel,59.87665409,,,,,,,,,,,,,,,,,,,,,q,1,1.5087,32,FALSE,FALSE,7,3,31,2,1,,,,,,,
,,,,,,1,2.226273327,#a3d0fb,,right_blue.png,o,,,,,,o,right_blue.png,right_orange.png,p,left,60fdf0adc7f5cc81445d07b0,001,2021-08-01_16h02.23.320,arrow_simon_norep,2021.1.2,MacIntel,59.87665409,,,,,,,,,,,,,,,,,,,,,w,0,1.525,33,FALSE,FALSE,8,0,32,0,1,,,,,,,
,,,,,,0,1.876312381,#f3af84,,right_orange.png,p,,,,,,o,right_blue.png,right_orange.png,p,left,60fdf0adc7f5cc81445d07b0,001,2021-08-01_16h02.23.320,arrow_simon_norep,2021.1.2,MacIntel,59.87665409,,,,,,,,,,,,,,,,,,,,,p,1,1.5309,34,FALSE,FALSE,8,1,33,0,1,,,,,,,
,,,,,,0,2.431969123,#a3d0fb,,left_blue.png,w,,,,,,w,left_blue.png,left_orange.png,q,right,60fdf0adc7f5cc81445d07b0,001,2021-08-01_16h02.23.320,arrow_simon_norep,2021.1.2,MacIntel,59.87665409,,,,,,,,,,,,,,,,,,,,,w,1,1.583,35,FALSE,FALSE,8,2,34,3,1,,,,,,,
,,,,,,0,2.374578454,#f3af84,,left_orange.png,q,,,,,,w,left_blue.png,left_orange.png,q,right,60fdf0adc7f5cc81445d07b0,001,2021-08-01_16h02.23.320,arrow_simon_norep,2021.1.2,MacIntel,59.87665409,,,,,,,,,,,,,,,,,,,,,q,1,1.5238,36,FALSE,FALSE,8,3,35,3,1,,,,,,,
,,,,,,0,2.223363758,#a3d0fb,,left_blue.png,w,,,,,,w,left_blue.png,left_orange.png,q,left,60fdf0adc7f5cc81445d07b0,001,2021-08-01_16h02.23.320,arrow_simon_norep,2021.1.2,MacIntel,59.87665409,,,,,,,,,,,,,,,,,,,,,w,1,1.5467,37,FALSE,FALSE,9,0,36,2,1,,,,,,,
,,,,,,1,2.141107333,#f3af84,,left_orange.png,q,,,,,,w,left_blue.png,left_orange.png,q,right,60fdf0adc7f5cc81445d07b0,001,2021-08-01_16h02.23.320,arrow_simon_norep,2021.1.2,MacIntel,59.87665409,,,,,,,,,,,,,,,,,,,,,p,0,1.4297,38,FALSE,FALSE,9,1,37,3,1,,,,,,,
,,,,,,1,2.490635864,#a3d0fb,,right_blue.png,o,,,,,,o,right_blue.png,right_orange.png,p,left,60fdf0adc7f5cc81445d07b0,001,2021-08-01_16h02.23.320,arrow_simon_norep,2021.1.2,MacIntel,59.87665409,,,,,,,,,,,,,,,,,,,,,w,0,1.5293,39,FALSE,FALSE,9,2,38,0,1,,,,,,,
,,,,,,1,2.375539668,#f3af84,,left_orange.png,q,,,,,,w,left_blue.png,left_orange.png,q,left,60fdf0adc7f5cc81445d07b0,001,2021-08-01_16h02.23.320,arrow_simon_norep,2021.1.2,MacIntel,59.87665409,,,,,,,,,,,,,,,,,,,,,q,1,1.6862,40,TRUE,FALSE,9,3,39,2,1,,,,,,,
,,,,,,1,2.073843264,#a3d0fb,,left_blue.png,w,,,,,,w,left_blue.png,left_orange.png,q,left,60fdf0adc7f5cc81445d07b0,001,2021-08-01_16h02.23.320,arrow_simon_norep,2021.1.2,MacIntel,59.87665409,,,,,,,,,,,,,,,,,,,,,w,1,1.3946,41,FALSE,TRUE,10,0,40,2,1,,,,,,,
,,,,,,1,2.082137685,#f3af84,,right_orange.png,p,,,,,,o,right_blue.png,right_orange.png,p,left,60fdf0adc7f5cc81445d07b0,001,2021-08-01_16h02.23.320,arrow_simon_norep,2021.1.2,MacIntel,59.87665409,,,,,,,,,,,,,,,,,,,,,q,0,1.4977,42,FALSE,FALSE,10,1,41,0,1,,,,,,,
,,,,,,1,1.602883967,#a3d0fb,,right_blue.png,o,,,,,,o,right_blue.png,right_orange.png,p,right,60fdf0adc7f5cc81445d07b0,001,2021-08-01_16h02.23.320,arrow_simon_norep,2021.1.2,MacIntel,59.87665409,,,,,,,,,,,,,,,,,,,,,o,1,1.6596,43,TRUE,FALSE,10,2,42,1,1,,,,,,,
,,,,,,1,1.947780867,#f3af84,,left_orange.png,q,,,,,,w,left_blue.png,left_orange.png,q,right,60fdf0adc7f5cc81445d07b0,001,2021-08-01_16h02.23.320,arrow_simon_norep,2021.1.2,MacIntel,59.87665409,,,,,,,,,,,,,,,,,,,,,q,1,1.6329,44,TRUE,FALSE,10,3,43,3,1,,,,,,,
,,,,,,0,1.872626904,#a3d0fb,,left_blue.png,w,,,,,,w,left_blue.png,left_orange.png,q,left,60fdf0adc7f5cc81445d07b0,001,2021-08-01_16h02.23.320,arrow_simon_norep,2021.1.2,MacIntel,59.87665409,,,,,,,,,,,,,,,,,,,,,w,1,1.4909,45,FALSE,FALSE,11,0,44,2,1,,,,,,,
,,,,,,0,2.373257698,#f3af84,,right_orange.png,p,,,,,,o,right_blue.png,right_orange.png,p,left,60fdf0adc7f5cc81445d07b0,001,2021-08-01_16h02.23.320,arrow_simon_norep,2021.1.2,MacIntel,59.87665409,,,,,,,,,,,,,,,,,,,,,q,0,1.6616,46,TRUE,FALSE,11,1,45,0,1,,,,,,,
,,,,,,0,2.287702659,#a3d0fb,,right_blue.png,o,,,,,,o,right_blue.png,right_orange.png,p,right,60fdf0adc7f5cc81445d07b0,001,2021-08-01_16h02.23.320,arrow_simon_norep,2021.1.2,MacIntel,59.87665409,,,,,,,,,,,,,,,,,,,,,o,1,1.764,47,TRUE,FALSE,11,2,46,1,1,,,,,,,
,,,,,,0,1.609897231,#f3af84,,right_orange.png,p,,,,,,o,right_blue.png,right_orange.png,p,right,60fdf0adc7f5cc81445d07b0,001,2021-08-01_16h02.23.320,arrow_simon_norep,2021.1.2,MacIntel,59.87665409,,,,,,,,,,,,,,,,,,,,,p,1,1.5779,48,FALSE,FALSE,11,3,47,1,1,,,,,,,
,,,,,,0,1.979746552,#a3d0fb,,left_blue.png,w,,,,,,w,left_blue.png,left_orange.png,q,left,60fdf0adc7f5cc81445d07b0,001,2021-08-01_16h02.23.320,arrow_simon_norep,2021.1.2,MacIntel,59.87665409,,,,,,,,,,,,,,,,,,,,,w,1,1.5796,49,FALSE,FALSE,12,0,48,2,1,,,,,,,
,,,,,,0,1.841374084,#f3af84,,right_orange.png,p,,,,,,o,right_blue.png,right_orange.png,p,right,60fdf0adc7f5cc81445d07b0,001,2021-08-01_16h02.23.320,arrow_simon_norep,2021.1.2,MacIntel,59.87665409,,,,,,,,,,,,,,,,,,,,,p,1,1.5637,50,FALSE,FALSE,12,1,49,1,1,,,,,,,
,,,,,,0,1.684263379,#a3d0fb,,left_blue.png,w,,,,,,w,left_blue.png,left_orange.png,q,right,60fdf0adc7f5cc81445d07b0,001,2021-08-01_16h02.23.320,arrow_simon_norep,2021.1.2,MacIntel,59.87665409,,,,,,,,,,,,,,,,,,,,,w,1,1.6621,51,TRUE,FALSE,12,2,50,3,1,,,,,,,
,,,,,,0,2.064114161,#f3af84,,right_orange.png,p,,,,,,o,right_blue.png,right_orange.png,p,right,60fdf0adc7f5cc81445d07b0,001,2021-08-01_16h02.23.320,arrow_simon_norep,2021.1.2,MacIntel,59.87665409,,,,,,,,,,,,,,,,,,,,,p,1,1.4983,52,FALSE,FALSE,12,3,51,1,1,,,,,,,
,,,,,,0,1.795641056,#a3d0fb,,right_blue.png,o,,,,,,o,right_blue.png,right_orange.png,p,right,60fdf0adc7f5cc81445d07b0,001,2021-08-01_16h02.23.320,arrow_simon_norep,2021.1.2,MacIntel,59.87665409,,,,,,,,,,,,,,,,,,,,,o,1,1.5003,53,FALSE,FALSE,13,0,52,1,1,,,,,,,
,,,,,,0,2.328572083,#f3af84,,left_orange.png,q,,,,,,w,left_blue.png,left_orange.png,q,right,60fdf0adc7f5cc81445d07b0,001,2021-08-01_16h02.23.320,arrow_simon_norep,2021.1.2,MacIntel,59.87665409,,,,,,,,,,,,,,,,,,,,,q,1,1.8603,54,TRUE,FALSE,13,1,53,3,1,,,,,,,
,,,,,,0,2.336120555,#a3d0fb,,left_blue.png,w,,,,,,w,left_blue.png,left_orange.png,q,right,60fdf0adc7f5cc81445d07b0,001,2021-08-01_16h02.23.320,arrow_simon_norep,2021.1.2,MacIntel,59.87665409,,,,,,,,,,,,,,,,,,,,,w,1,1.5616,55,FALSE,FALSE,13,2,54,3,1,,,,,,,
,,,,,,0,1.680814741,#f3af84,,right_orange.png,p,,,,,,o,right_blue.png,right_orange.png,p,right,60fdf0adc7f5cc81445d07b0,001,2021-08-01_16h02.23.320,arrow_simon_norep,2021.1.2,MacIntel,59.87665409,,,,,,,,,,,,,,,,,,,,,p,1,1.5855,56,FALSE,FALSE,13,3,55,1,1,,,,,,,
,,,,,,0,1.902106779,#a3d0fb,,right_blue.png,o,,,,,,o,right_blue.png,right_orange.png,p,right,60fdf0adc7f5cc81445d07b0,001,2021-08-01_16h02.23.320,arrow_simon_norep,2021.1.2,MacIntel,59.87665409,,,,,,,,,,,,,,,,,,,,,o,1,1.543,57,FALSE,FALSE,14,0,56,1,1,,,,,,,
,,,,,,0,2.42135444,#f3af84,,right_orange.png,p,,,,,,o,right_blue.png,right_orange.png,p,left,60fdf0adc7f5cc81445d07b0,001,2021-08-01_16h02.23.320,arrow_simon_norep,2021.1.2,MacIntel,59.87665409,,,,,,,,,,,,,,,,,,,,,q,0,1.727,58,TRUE,FALSE,14,1,57,0,1,,,,,,,
,,,,,,1,1.997508679,#a3d0fb,,right_blue.png,o,,,,,,o,right_blue.png,right_orange.png,p,left,60fdf0adc7f5cc81445d07b0,001,2021-08-01_16h02.23.320,arrow_simon_norep,2021.1.2,MacIntel,59.87665409,,,,,,,,,,,,,,,,,,,,,w,0,1.5764,59,FALSE,FALSE,14,2,58,0,1,,,,,,,
,,,,,,1,1.91894456,#f3af84,,right_orange.png,p,,,,,,o,right_blue.png,right_orange.png,p,right,60fdf0adc7f5cc81445d07b0,001,2021-08-01_16h02.23.320,arrow_simon_norep,2021.1.2,MacIntel,59.87665409,,,,,,,,,,,,,,,,,,,,,p,1,1.6248,60,TRUE,FALSE,14,3,59,1,1,,,,,,,
,,,,,,,,,,,,,,,,,,,,,,60fdf0adc7f5cc81445d07b0,001,2021-08-01_16h02.23.320,arrow_simon_norep,2021.1.2,MacIntel,59.87665409,,,,,,,,,,,,,,,,,,,,,,,,,,,,,,,,space,5.6442,1,0,1,0,1
,,,,,,1,1.667510948,#a3d0fb,,right_blue.png,o,,,,,,o,right_blue.png,right_orange.png,p,left,60fdf0adc7f5cc81445d07b0,001,2021-08-01_16h02.23.320,arrow_simon_norep,2021.1.2,MacIntel,59.87665409,,,,,,,,,,,,,,,,,,,,,w,0,1.0907,1,FALSE,TRUE,0,0,0,0,1,,,,,,,
,,,,,,1,1.781961656,#f3af84,,left_orange.png,q,,,,,,w,left_blue.png,left_orange.png,q,right,60fdf0adc7f5cc81445d07b0,001,2021-08-01_16h02.23.320,arrow_simon_norep,2021.1.2,MacIntel,59.87665409,,,,,,,,,,,,,,,,,,,,,q,1,1.6275,2,TRUE,FALSE,0,1,1,3,1,,,,,,,
,,,,,,0,1.622629244,#a3d0fb,,right_blue.png,o,,,,,,o,right_blue.png,right_orange.png,p,left,60fdf0adc7f5cc81445d07b0,001,2021-08-01_16h02.23.320,arrow_simon_norep,2021.1.2,MacIntel,59.87665409,,,,,,,,,,,,,,,,,,,,,o,1,1.496,3,FALSE,FALSE,0,2,2,0,1,,,,,,,
,,,,,,0,1.955749232,#f3af84,,left_orange.png,q,,,,,,w,left_blue.png,left_orange.png,q,left,60fdf0adc7f5cc81445d07b0,001,2021-08-01_16h02.23.320,arrow_simon_norep,2021.1.2,MacIntel,59.87665409,,,,,,,,,,,,,,,,,,,,,q,1,1.6259,4,TRUE,FALSE,0,3,3,2,1,,,,,,,
,,,,,,0,2.075308177,#a3d0fb,,right_blue.png,o,,,,,,o,right_blue.png,right_orange.png,p,right,60fdf0adc7f5cc81445d07b0,001,2021-08-01_16h02.23.320,arrow_simon_norep,2021.1.2,MacIntel,59.87665409,,,,,,,,,,,,,,,,,,,,,o,1,1.2454,5,FALSE,TRUE,1,0,4,1,1,,,,,,,
,,,,,,0,2.226403198,#f3af84,,right_orange.png,p,,,,,,o,right_blue.png,right_orange.png,p,right,60fdf0adc7f5cc81445d07b0,001,2021-08-01_16h02.23.320,arrow_simon_norep,2021.1.2,MacIntel,59.87665409,,,,,,,,,,,,,,,,,,,,,p,1,1.6429,6,TRUE,FALSE,1,1,5,1,1,,,,,,,
,,,,,,0,1.611380708,#a3d0fb,,right_blue.png,o,,,,,,o,right_blue.png,right_orange.png,p,right,60fdf0adc7f5cc81445d07b0,001,2021-08-01_16h02.23.320,arrow_simon_norep,2021.1.2,MacIntel,59.87665409,,,,,,,,,,,,,,,,,,,,,o,1,1.6101,7,TRUE,FALSE,1,2,6,1,1,,,,,,,
,,,,,,0,1.987368411,#f3af84,,left_orange.png,q,,,,,,w,left_blue.png,left_orange.png,q,left,60fdf0adc7f5cc81445d07b0,001,2021-08-01_16h02.23.320,arrow_simon_norep,2021.1.2,MacIntel,59.87665409,,,,,,,,,,,,,,,,,,,,,q,1,1.5433,8,FALSE,FALSE,1,3,7,2,1,,,,,,,
,,,,,,0,2.039723594,#a3d0fb,,left_blue.png,w,,,,,,w,left_blue.png,left_orange.png,q,left,60fdf0adc7f5cc81445d07b0,001,2021-08-01_16h02.23.320,arrow_simon_norep,2021.1.2,MacIntel,59.87665409,,,,,,,,,,,,,,,,,,,,,w,1,1.6163,9,TRUE,FALSE,2,0,8,2,1,,,,,,,
,,,,,,0,1.997971397,#f3af84,,right_orange.png,p,,,,,,o,right_blue.png,right_orange.png,p,right,60fdf0adc7f5cc81445d07b0,001,2021-08-01_16h02.23.320,arrow_simon_norep,2021.1.2,MacIntel,59.87665409,,,,,,,,,,,,,,,,,,,,,p,1,1.5672,10,FALSE,FALSE,2,1,9,1,1,,,,,,,
,,,,,,0,1.645759808,#a3d0fb,,right_blue.png,o,,,,,,o,right_blue.png,right_orange.png,p,right,60fdf0adc7f5cc81445d07b0,001,2021-08-01_16h02.23.320,arrow_simon_norep,2021.1.2,MacIntel,59.87665409,,,,,,,,,,,,,,,,,,,,,o,1,1.544,11,FALSE,FALSE,2,2,10,1,1,,,,,,,
,,,,,,0,1.903171707,#f3af84,,left_orange.png,q,,,,,,w,left_blue.png,left_orange.png,q,left,60fdf0adc7f5cc81445d07b0,001,2021-08-01_16h02.23.320,arrow_simon_norep,2021.1.2,MacIntel,59.87665409,,,,,,,,,,,,,,,,,,,,,q,1,1.5622,12,FALSE,FALSE,2,3,11,2,1,,,,,,,
,,,,,,0,2.47840487,#a3d0fb,,left_blue.png,w,,,,,,w,left_blue.png,left_orange.png,q,right,60fdf0adc7f5cc81445d07b0,001,2021-08-01_16h02.23.320,arrow_simon_norep,2021.1.2,MacIntel,59.87665409,,,,,,,,,,,,,,,,,,,,,w,1,1.7637,13,TRUE,FALSE,3,0,12,3,1,,,,,,,
,,,,,,0,2.395477286,#f3af84,,left_orange.png,q,,,,,,w,left_blue.png,left_orange.png,q,right,60fdf0adc7f5cc81445d07b0,001,2021-08-01_16h02.23.320,arrow_simon_norep,2021.1.2,MacIntel,59.87665409,,,,,,,,,,,,,,,,,,,,,p,0,1.7975,14,TRUE,FALSE,3,1,13,3,1,,,,,,,
,,,,,,0,2.111939315,#a3d0fb,,right_blue.png,o,,,,,,o,right_blue.png,right_orange.png,p,left,60fdf0adc7f5cc81445d07b0,001,2021-08-01_16h02.23.320,arrow_simon_norep,2021.1.2,MacIntel,59.87665409,,,,,,,,,,,,,,,,,,,,,o,1,1.7261,15,TRUE,FALSE,3,2,14,0,1,,,,,,,
,,,,,,0,2.33390475,#f3af84,,left_orange.png,q,,,,,,w,left_blue.png,left_orange.png,q,right,60fdf0adc7f5cc81445d07b0,001,2021-08-01_16h02.23.320,arrow_simon_norep,2021.1.2,MacIntel,59.87665409,,,,,,,,,,,,,,,,,,,,,q,1,1.5503,16,FALSE,FALSE,3,3,15,3,1,,,,,,,
,,,,,,0,2.325402733,#a3d0fb,,left_blue.png,w,,,,,,w,left_blue.png,left_orange.png,q,right,60fdf0adc7f5cc81445d07b0,001,2021-08-01_16h02.23.320,arrow_simon_norep,2021.1.2,MacIntel,59.87665409,,,,,,,,,,,,,,,,,,,,,o,0,1.642,17,TRUE,FALSE,4,0,16,3,1,,,,,,,
,,,,,,0,2.039504856,#f3af84,,left_orange.png,q,,,,,,w,left_blue.png,left_orange.png,q,right,60fdf0adc7f5cc81445d07b0,001,2021-08-01_16h02.23.320,arrow_simon_norep,2021.1.2,MacIntel,59.87665409,,,,,,,,,,,,,,,,,,,,,q,1,1.5613,18,FALSE,FALSE,4,1,17,3,1,,,,,,,
,,,,,,0,2.378533887,#a3d0fb,,left_blue.png,w,,,,,,w,left_blue.png,left_orange.png,q,left,60fdf0adc7f5cc81445d07b0,001,2021-08-01_16h02.23.320,arrow_simon_norep,2021.1.2,MacIntel,59.87665409,,,,,,,,,,,,,,,,,,,,,w,1,1.5292,19,FALSE,FALSE,4,2,18,2,1,,,,,,,
,,,,,,0,1.931823363,#f3af84,,right_orange.png,p,,,,,,o,right_blue.png,right_orange.png,p,left,60fdf0adc7f5cc81445d07b0,001,2021-08-01_16h02.23.320,arrow_simon_norep,2021.1.2,MacIntel,59.87665409,,,,,,,,,,,,,,,,,,,,,p,1,1.5908,20,FALSE,FALSE,4,3,19,0,1,,,,,,,
,,,,,,1,2.106661993,#a3d0fb,,right_blue.png,o,,,,,,o,right_blue.png,right_orange.png,p,right,60fdf0adc7f5cc81445d07b0,001,2021-08-01_16h02.23.320,arrow_simon_norep,2021.1.2,MacIntel,59.87665409,,,,,,,,,,,,,,,,,,,,,w,0,1.5791,21,FALSE,FALSE,5,0,20,1,1,,,,,,,
,,,,,,0,1.927946999,#f3af84,,left_orange.png,q,,,,,,w,left_blue.png,left_orange.png,q,left,60fdf0adc7f5cc81445d07b0,001,2021-08-01_16h02.23.320,arrow_simon_norep,2021.1.2,MacIntel,59.87665409,,,,,,,,,,,,,,,,,,,,,q,1,1.5126,22,FALSE,FALSE,5,1,21,2,1,,,,,,,
,,,,,,0,1.869886127,#a3d0fb,,left_blue.png,w,,,,,,w,left_blue.png,left_orange.png,q,right,60fdf0adc7f5cc81445d07b0,001,2021-08-01_16h02.23.320,arrow_simon_norep,2021.1.2,MacIntel,59.87665409,,,,,,,,,,,,,,,,,,,,,w,1,1.4613,23,FALSE,FALSE,5,2,22,3,1,,,,,,,
,,,,,,0,2.098892142,#f3af84,,left_orange.png,q,,,,,,w,left_blue.png,left_orange.png,q,right,60fdf0adc7f5cc81445d07b0,001,2021-08-01_16h02.23.320,arrow_simon_norep,2021.1.2,MacIntel,59.87665409,,,,,,,,,,,,,,,,,,,,,q,1,1.547,24,FALSE,FALSE,5,3,23,3,1,,,,,,,
,,,,,,0,1.624497304,#a3d0fb,,right_blue.png,o,,,,,,o,right_blue.png,right_orange.png,p,right,60fdf0adc7f5cc81445d07b0,001,2021-08-01_16h02.23.320,arrow_simon_norep,2021.1.2,MacIntel,59.87665409,,,,,,,,,,,,,,,,,,,,,o,1,1.6124,25,TRUE,FALSE,6,0,24,1,1,,,,,,,
,,,,,,1,2.223930752,#f3af84,,right_orange.png,p,,,,,,o,right_blue.png,right_orange.png,p,left,60fdf0adc7f5cc81445d07b0,001,2021-08-01_16h02.23.320,arrow_simon_norep,2021.1.2,MacIntel,59.87665409,,,,,,,,,,,,,,,,,,,,,q,0,1.5258,26,FALSE,FALSE,6,1,25,0,1,,,,,,,
,,,,,,1,2.224686117,#a3d0fb,,right_blue.png,o,,,,,,o,right_blue.png,right_orange.png,p,left,60fdf0adc7f5cc81445d07b0,001,2021-08-01_16h02.23.320,arrow_simon_norep,2021.1.2,MacIntel,59.87665409,,,,,,,,,,,,,,,,,,,,,o,1,1.7249,27,TRUE,FALSE,6,2,26,0,1,,,,,,,
,,,,,,1,2.358727355,#f3af84,,left_orange.png,q,,,,,,w,left_blue.png,left_orange.png,q,right,60fdf0adc7f5cc81445d07b0,001,2021-08-01_16h02.23.320,arrow_simon_norep,2021.1.2,MacIntel,59.87665409,,,,,,,,,,,,,,,,,,,,,q,1,1.8087,28,TRUE,FALSE,6,3,27,3,1,,,,,,,
,,,,,,1,2.315113776,#a3d0fb,,left_blue.png,w,,,,,,w,left_blue.png,left_orange.png,q,left,60fdf0adc7f5cc81445d07b0,001,2021-08-01_16h02.23.320,arrow_simon_norep,2021.1.2,MacIntel,59.87665409,,,,,,,,,,,,,,,,,,,,,w,1,1.6095,29,TRUE,FALSE,7,0,28,2,1,,,,,,,
,,,,,,0,2.218178419,#f3af84,,left_orange.png,q,,,,,,w,left_blue.png,left_orange.png,q,left,60fdf0adc7f5cc81445d07b0,001,2021-08-01_16h02.23.320,arrow_simon_norep,2021.1.2,MacIntel,59.87665409,,,,,,,,,,,,,,,,,,,,,q,1,1.4974,30,FALSE,FALSE,7,1,29,2,1,,,,,,,
,,,,,,0,2.063803755,#a3d0fb,,right_blue.png,o,,,,,,o,right_blue.png,right_orange.png,p,right,60fdf0adc7f5cc81445d07b0,001,2021-08-01_16h02.23.320,arrow_simon_norep,2021.1.2,MacIntel,59.87665409,,,,,,,,,,,,,,,,,,,,,w,0,1.6842,31,TRUE,FALSE,7,2,30,1,1,,,,,,,
,,,,,,0,1.537006359,#f3af84,,right_orange.png,p,,,,,,o,right_blue.png,right_orange.png,p,left,60fdf0adc7f5cc81445d07b0,001,2021-08-01_16h02.23.320,arrow_simon_norep,2021.1.2,MacIntel,59.87665409,,,,,,,,,,,,,,,,,,,,,p,1,1.0961,32,FALSE,TRUE,7,3,31,0,1,,,,,,,
,,,,,,0,1.850700714,#a3d0fb,,right_blue.png,o,,,,,,o,right_blue.png,right_orange.png,p,left,60fdf0adc7f5cc81445d07b0,001,2021-08-01_16h02.23.320,arrow_simon_norep,2021.1.2,MacIntel,59.87665409,,,,,,,,,,,,,,,,,,,,,o,1,1.4951,33,FALSE,FALSE,8,0,32,0,1,,,,,,,
,,,,,,0,1.779511243,#f3af84,,right_orange.png,p,,,,,,o,right_blue.png,right_orange.png,p,left,60fdf0adc7f5cc81445d07b0,001,2021-08-01_16h02.23.320,arrow_simon_norep,2021.1.2,MacIntel,59.87665409,,,,,,,,,,,,,,,,,,,,,p,1,1.5955,34,FALSE,FALSE,8,1,33,0,1,,,,,,,
,,,,,,0,2.289811199,#a3d0fb,,right_blue.png,o,,,,,,o,right_blue.png,right_orange.png,p,right,60fdf0adc7f5cc81445d07b0,001,2021-08-01_16h02.23.320,arrow_simon_norep,2021.1.2,MacIntel,59.87665409,,,,,,,,,,,,,,,,,,,,,o,1,1.6657,35,TRUE,FALSE,8,2,34,1,1,,,,,,,
,,,,,,0,2.106671197,#f3af84,,right_orange.png,p,,,,,,o,right_blue.png,right_orange.png,p,right,60fdf0adc7f5cc81445d07b0,001,2021-08-01_16h02.23.320,arrow_simon_norep,2021.1.2,MacIntel,59.87665409,,,,,,,,,,,,,,,,,,,,,p,1,1.6411,36,TRUE,FALSE,8,3,35,1,1,,,,,,,
,,,,,,0,1.735306262,#a3d0fb,,left_blue.png,w,,,,,,w,left_blue.png,left_orange.png,q,right,60fdf0adc7f5cc81445d07b0,001,2021-08-01_16h02.23.320,arrow_simon_norep,2021.1.2,MacIntel,59.87665409,,,,,,,,,,,,,,,,,,,,,w,1,1.4824,37,FALSE,FALSE,9,0,36,3,1,,,,,,,
,,,,,,0,2.350239319,#f3af84,,left_orange.png,q,,,,,,w,left_blue.png,left_orange.png,q,left,60fdf0adc7f5cc81445d07b0,001,2021-08-01_16h02.23.320,arrow_simon_norep,2021.1.2,MacIntel,59.87665409,,,,,,,,,,,,,,,,,,,,,q,1,1.7092,38,TRUE,FALSE,9,1,37,2,1,,,,,,,
,,,,,,0,1.571084945,#a3d0fb,,left_blue.png,w,,,,,,w,left_blue.png,left_orange.png,q,left,60fdf0adc7f5cc81445d07b0,001,2021-08-01_16h02.23.320,arrow_simon_norep,2021.1.2,MacIntel,59.87665409,,,,,,,,,,,,,,,,,,,,,w,1,1.5947,39,FALSE,FALSE,9,2,38,2,1,,,,,,,
,,,,,,1,2.387356324,#f3af84,,right_orange.png,p,,,,,,o,right_blue.png,right_orange.png,p,left,60fdf0adc7f5cc81445d07b0,001,2021-08-01_16h02.23.320,arrow_simon_norep,2021.1.2,MacIntel,59.87665409,,,,,,,,,,,,,,,,,,,,,q,0,1.5799,40,FALSE,FALSE,9,3,39,0,1,,,,,,,
,,,,,,0,1.889432495,#a3d0fb,,left_blue.png,w,,,,,,w,left_blue.png,left_orange.png,q,left,60fdf0adc7f5cc81445d07b0,001,2021-08-01_16h02.23.320,arrow_simon_norep,2021.1.2,MacIntel,59.87665409,,,,,,,,,,,,,,,,,,,,,w,1,1.5318,41,FALSE,FALSE,10,0,40,2,1,,,,,,,
,,,,,,0,1.881428346,#f3af84,,right_orange.png,p,,,,,,o,right_blue.png,right_orange.png,p,left,60fdf0adc7f5cc81445d07b0,001,2021-08-01_16h02.23.320,arrow_simon_norep,2021.1.2,MacIntel,59.87665409,,,,,,,,,,,,,,,,,,,,,p,1,1.5676,42,FALSE,FALSE,10,1,41,0,1,,,,,,,
,,,,,,0,1.702543482,#a3d0fb,,left_blue.png,w,,,,,,w,left_blue.png,left_orange.png,q,left,60fdf0adc7f5cc81445d07b0,001,2021-08-01_16h02.23.320,arrow_simon_norep,2021.1.2,MacIntel,59.87665409,,,,,,,,,,,,,,,,,,,,,w,1,1.5621,43,FALSE,FALSE,10,2,42,2,1,,,,,,,
,,,,,,0,1.795866714,#f3af84,,left_orange.png,q,,,,,,w,left_blue.png,left_orange.png,q,left,60fdf0adc7f5cc81445d07b0,001,2021-08-01_16h02.23.320,arrow_simon_norep,2021.1.2,MacIntel,59.87665409,,,,,,,,,,,,,,,,,,,,,q,1,1.4593,44,FALSE,FALSE,10,3,43,2,1,,,,,,,
,,,,,,0,1.869774769,#a3d0fb,,right_blue.png,o,,,,,,o,right_blue.png,right_orange.png,p,left,60fdf0adc7f5cc81445d07b0,001,2021-08-01_16h02.23.320,arrow_simon_norep,2021.1.2,MacIntel,59.87665409,,,,,,,,,,,,,,,,,,,,,o,1,1.6093,45,TRUE,FALSE,11,0,44,0,1,,,,,,,
,,,,,,0,1.550328248,#f3af84,,left_orange.png,q,,,,,,w,left_blue.png,left_orange.png,q,left,60fdf0adc7f5cc81445d07b0,001,2021-08-01_16h02.23.320,arrow_simon_norep,2021.1.2,MacIntel,59.87665409,,,,,,,,,,,,,,,,,,,,,q,1,1.581,46,FALSE,FALSE,11,1,45,2,1,,,,,,,
,,,,,,0,1.608789463,#a3d0fb,,right_blue.png,o,,,,,,o,right_blue.png,right_orange.png,p,left,60fdf0adc7f5cc81445d07b0,001,2021-08-01_16h02.23.320,arrow_simon_norep,2021.1.2,MacIntel,59.87665409,,,,,,,,,,,,,,,,,,,,,o,1,1.6633,47,TRUE,FALSE,11,2,46,0,1,,,,,,,
,,,,,,0,1.955620346,#f3af84,,left_orange.png,q,,,,,,w,left_blue.png,left_orange.png,q,right,60fdf0adc7f5cc81445d07b0,001,2021-08-01_16h02.23.320,arrow_simon_norep,2021.1.2,MacIntel,59.87665409,,,,,,,,,,,,,,,,,,,,,q,1,1.6087,48,TRUE,FALSE,11,3,47,3,1,,,,,,,
,,,,,,0,1.720965626,#a3d0fb,,left_blue.png,w,,,,,,w,left_blue.png,left_orange.png,q,right,60fdf0adc7f5cc81445d07b0,001,2021-08-01_16h02.23.320,arrow_simon_norep,2021.1.2,MacIntel,59.87665409,,,,,,,,,,,,,,,,,,,,,w,1,1.5586,49,FALSE,FALSE,12,0,48,3,1,,,,,,,
,,,,,,0,1.66631626,#f3af84,,right_orange.png,p,,,,,,o,right_blue.png,right_orange.png,p,right,60fdf0adc7f5cc81445d07b0,001,2021-08-01_16h02.23.320,arrow_simon_norep,2021.1.2,MacIntel,59.87665409,,,,,,,,,,,,,,,,,,,,,p,1,1.4819,50,FALSE,FALSE,12,1,49,1,1,,,,,,,
,,,,,,0,2.218499863,#a3d0fb,,right_blue.png,o,,,,,,o,right_blue.png,right_orange.png,p,right,60fdf0adc7f5cc81445d07b0,001,2021-08-01_16h02.23.320,arrow_simon_norep,2021.1.2,MacIntel,59.87665409,,,,,,,,,,,,,,,,,,,,,o,1,1.5682,51,FALSE,FALSE,12,2,50,1,1,,,,,,,
,,,,,,0,2.348495287,#f3af84,,right_orange.png,p,,,,,,o,right_blue.png,right_orange.png,p,left,60fdf0adc7f5cc81445d07b0,001,2021-08-01_16h02.23.320,arrow_simon_norep,2021.1.2,MacIntel,59.87665409,,,,,,,,,,,,,,,,,,,,,q,0,1.6583,52,TRUE,FALSE,12,3,51,0,1,,,,,,,
,,,,,,0,2.017769411,#a3d0fb,,left_blue.png,w,,,,,,w,left_blue.png,left_orange.png,q,right,60fdf0adc7f5cc81445d07b0,001,2021-08-01_16h02.23.320,arrow_simon_norep,2021.1.2,MacIntel,59.87665409,,,,,,,,,,,,,,,,,,,,,w,1,1.5261,53,FALSE,FALSE,13,0,52,3,1,,,,,,,
,,,,,,0,2.238887147,#f3af84,,right_orange.png,p,,,,,,o,right_blue.png,right_orange.png,p,right,60fdf0adc7f5cc81445d07b0,001,2021-08-01_16h02.23.320,arrow_simon_norep,2021.1.2,MacIntel,59.87665409,,,,,,,,,,,,,,,,,,,,,p,1,1.6098,54,TRUE,FALSE,13,1,53,1,1,,,,,,,
,,,,,,0,1.72889387,#a3d0fb,,right_blue.png,o,,,,,,o,right_blue.png,right_orange.png,p,right,60fdf0adc7f5cc81445d07b0,001,2021-08-01_16h02.23.320,arrow_simon_norep,2021.1.2,MacIntel,59.87665409,,,,,,,,,,,,,,,,,,,,,w,0,1.6428,55,TRUE,FALSE,13,2,54,1,1,,,,,,,
,,,,,,0,2.497573041,#f3af84,,left_orange.png,q,,,,,,w,left_blue.png,left_orange.png,q,right,60fdf0adc7f5cc81445d07b0,001,2021-08-01_16h02.23.320,arrow_simon_norep,2021.1.2,MacIntel,59.87665409,,,,,,,,,,,,,,,,,,,,,q,1,1.6255,56,TRUE,FALSE,13,3,55,3,1,,,,,,,
,,,,,,0,2.020855377,#a3d0fb,,right_blue.png,o,,,,,,o,right_blue.png,right_orange.png,p,right,60fdf0adc7f5cc81445d07b0,001,2021-08-01_16h02.23.320,arrow_simon_norep,2021.1.2,MacIntel,59.87665409,,,,,,,,,,,,,,,,,,,,,o,1,1.5969,57,FALSE,FALSE,14,0,56,1,1,,,,,,,
,,,,,,0,1.556126925,#f3af84,,left_orange.png,q,,,,,,w,left_blue.png,left_orange.png,q,left,60fdf0adc7f5cc81445d07b0,001,2021-08-01_16h02.23.320,arrow_simon_norep,2021.1.2,MacIntel,59.87665409,,,,,,,,,,,,,,,,,,,,,q,1,1.5785,58,FALSE,FALSE,14,1,57,2,1,,,,,,,
,,,,,,0,1.846242161,#a3d0fb,,left_blue.png,w,,,,,,w,left_blue.png,left_orange.png,q,right,60fdf0adc7f5cc81445d07b0,001,2021-08-01_16h02.23.320,arrow_simon_norep,2021.1.2,MacIntel,59.87665409,,,,,,,,,,,,,,,,,,,,,w,1,1.8768,59,TRUE,FALSE,14,2,58,3,1,,,,,,,
,,,,,,0,1.525791245,#f3af84,,right_orange.png,p,,,,,,o,right_blue.png,right_orange.png,p,left,60fdf0adc7f5cc81445d07b0,001,2021-08-01_16h02.23.320,arrow_simon_norep,2021.1.2,MacIntel,59.87665409,,,,,,,,,,,,,,,,,,,,,w,0,1.2094,60,FALSE,TRUE,14,3,59,0,1,,,,,,,
,,,,,,,,,,,,,,,,,,,,,,60fdf0adc7f5cc81445d07b0,001,2021-08-01_16h02.23.320,arrow_simon_norep,2021.1.2,MacIntel,59.87665409,,,,,,,,,,,,,,,,,,,,,,,,,,,,,,,,space,87.007,2,0,2,0,1
,,,,,,0,2.035517532,#a3d0fb,,left_blue.png,w,,,,,,w,left_blue.png,left_orange.png,q,right,60fdf0adc7f5cc81445d07b0,001,2021-08-01_16h02.23.320,arrow_simon_norep,2021.1.2,MacIntel,59.87665409,,,,,,,,,,,,,,,,,,,,,w,1,2.0349,1,TRUE,FALSE,0,0,0,3,1,,,,,,,
,,,,,,0,1.932964063,#f3af84,,left_orange.png,q,,,,,,w,left_blue.png,left_orange.png,q,left,60fdf0adc7f5cc81445d07b0,001,2021-08-01_16h02.23.320,arrow_simon_norep,2021.1.2,MacIntel,59.87665409,,,,,,,,,,,,,,,,,,,,,q,1,1.28,2,FALSE,TRUE,0,1,1,2,1,,,,,,,
,,,,,,0,2.039114655,#a3d0fb,,right_blue.png,o,,,,,,o,right_blue.png,right_orange.png,p,right,60fdf0adc7f5cc81445d07b0,001,2021-08-01_16h02.23.320,arrow_simon_norep,2021.1.2,MacIntel,59.87665409,,,,,,,,,,,,,,,,,,,,,o,1,1.4266,3,FALSE,FALSE,0,2,2,1,1,,,,,,,
,,,,,,0,2.196909975,#f3af84,,left_orange.png,q,,,,,,w,left_blue.png,left_orange.png,q,left,60fdf0adc7f5cc81445d07b0,001,2021-08-01_16h02.23.320,arrow_simon_norep,2021.1.2,MacIntel,59.87665409,,,,,,,,,,,,,,,,,,,,,q,1,1.528,4,FALSE,FALSE,0,3,3,2,1,,,,,,,
,,,,,,0,2.421260176,#a3d0fb,,right_blue.png,o,,,,,,o,right_blue.png,right_orange.png,p,left,60fdf0adc7f5cc81445d07b0,001,2021-08-01_16h02.23.320,arrow_simon_norep,2021.1.2,MacIntel,59.87665409,,,,,,,,,,,,,,,,,,,,,w,0,1.6802,5,TRUE,FALSE,1,0,4,0,1,,,,,,,
,,,,,,0,2.163215881,#f3af84,,right_orange.png,p,,,,,,o,right_blue.png,right_orange.png,p,right,60fdf0adc7f5cc81445d07b0,001,2021-08-01_16h02.23.320,arrow_simon_norep,2021.1.2,MacIntel,59.87665409,,,,,,,,,,,,,,,,,,,,,p,1,1.5095,6,FALSE,FALSE,1,1,5,1,1,,,,,,,
,,,,,,0,1.935607544,#a3d0fb,,right_blue.png,o,,,,,,o,right_blue.png,right_orange.png,p,right,60fdf0adc7f5cc81445d07b0,001,2021-08-01_16h02.23.320,arrow_simon_norep,2021.1.2,MacIntel,59.87665409,,,,,,,,,,,,,,,,,,,,,o,1,1.4743,7,FALSE,FALSE,1,2,6,1,1,,,,,,,
,,,,,,0,2.18640693,#f3af84,,right_orange.png,p,,,,,,o,right_blue.png,right_orange.png,p,right,60fdf0adc7f5cc81445d07b0,001,2021-08-01_16h02.23.320,arrow_simon_norep,2021.1.2,MacIntel,59.87665409,,,,,,,,,,,,,,,,,,,,,p,1,1.5741,8,FALSE,FALSE,1,3,7,1,1,,,,,,,
,,,,,,0,1.740888059,#a3d0fb,,left_blue.png,w,,,,,,w,left_blue.png,left_orange.png,q,right,60fdf0adc7f5cc81445d07b0,001,2021-08-01_16h02.23.320,arrow_simon_norep,2021.1.2,MacIntel,59.87665409,,,,,,,,,,,,,,,,,,,,,w,1,1.5583,9,FALSE,FALSE,2,0,8,3,1,,,,,,,
,,,,,,0,1.551325629,#f3af84,,left_orange.png,q,,,,,,w,left_blue.png,left_orange.png,q,right,60fdf0adc7f5cc81445d07b0,001,2021-08-01_16h02.23.320,arrow_simon_norep,2021.1.2,MacIntel,59.87665409,,,,,,,,,,,,,,,,,,,,,q,1,1.4954,10,FALSE,FALSE,2,1,9,3,1,,,,,,,
,,,,,,0,1.979775575,#a3d0fb,,right_blue.png,o,,,,,,o,right_blue.png,right_orange.png,p,left,60fdf0adc7f5cc81445d07b0,001,2021-08-01_16h02.23.320,arrow_simon_norep,2021.1.2,MacIntel,59.87665409,,,,,,,,,,,,,,,,,,,,,o,1,1.5578,11,FALSE,FALSE,2,2,10,0,1,,,,,,,
,,,,,,1,2.303333669,#f3af84,,right_orange.png,p,,,,,,o,right_blue.png,right_orange.png,p,right,60fdf0adc7f5cc81445d07b0,001,2021-08-01_16h02.23.320,arrow_simon_norep,2021.1.2,MacIntel,59.87665409,,,,,,,,,,,,,,,,,,,,,q,0,1.5959,12,FALSE,FALSE,2,3,11,1,1,,,,,,,
,,,,,,0,1.741372659,#a3d0fb,,right_blue.png,o,,,,,,o,right_blue.png,right_orange.png,p,left,60fdf0adc7f5cc81445d07b0,001,2021-08-01_16h02.23.320,arrow_simon_norep,2021.1.2,MacIntel,59.87665409,,,,,,,,,,,,,,,,,,,,,o,1,1.5876,13,FALSE,FALSE,3,0,12,0,1,,,,,,,
,,,,,,0,1.810537074,#f3af84,,right_orange.png,p,,,,,,o,right_blue.png,right_orange.png,p,right,60fdf0adc7f5cc81445d07b0,001,2021-08-01_16h02.23.320,arrow_simon_norep,2021.1.2,MacIntel,59.87665409,,,,,,,,,,,,,,,,,,,,,p,1,1.5568,14,FALSE,FALSE,3,1,13,1,1,,,,,,,
,,,,,,0,2.297807754,#a3d0fb,,left_blue.png,w,,,,,,w,left_blue.png,left_orange.png,q,left,60fdf0adc7f5cc81445d07b0,001,2021-08-01_16h02.23.320,arrow_simon_norep,2021.1.2,MacIntel,59.87665409,,,,,,,,,,,,,,,,,,,,,w,1,1.5635,15,FALSE,FALSE,3,2,14,2,1,,,,,,,
,,,,,,0,1.815379467,#f3af84,,left_orange.png,q,,,,,,w,left_blue.png,left_orange.png,q,right,60fdf0adc7f5cc81445d07b0,001,2021-08-01_16h02.23.320,arrow_simon_norep,2021.1.2,MacIntel,59.87665409,,,,,,,,,,,,,,,,,,,,,q,1,1.5329,16,FALSE,FALSE,3,3,15,3,1,,,,,,,
,,,,,,0,2.435909121,#a3d0fb,,right_blue.png,o,,,,,,o,right_blue.png,right_orange.png,p,right,60fdf0adc7f5cc81445d07b0,001,2021-08-01_16h02.23.320,arrow_simon_norep,2021.1.2,MacIntel,59.87665409,,,,,,,,,,,,,,,,,,,,,o,1,1.6432,17,TRUE,FALSE,4,0,16,1,1,,,,,,,
,,,,,,0,1.839073936,#f3af84,,right_orange.png,p,,,,,,o,right_blue.png,right_orange.png,p,right,60fdf0adc7f5cc81445d07b0,001,2021-08-01_16h02.23.320,arrow_simon_norep,2021.1.2,MacIntel,59.87665409,,,,,,,,,,,,,,,,,,,,,p,1,1.5003,18,FALSE,FALSE,4,1,17,1,1,,,,,,,
,,,,,,0,2.024254737,#a3d0fb,,right_blue.png,o,,,,,,o,right_blue.png,right_orange.png,p,right,60fdf0adc7f5cc81445d07b0,001,2021-08-01_16h02.23.320,arrow_simon_norep,2021.1.2,MacIntel,59.87665409,,,,,,,,,,,,,,,,,,,,,o,1,1.5437,19,FALSE,FALSE,4,2,18,1,1,,,,,,,
,,,,,,0,1.865329959,#f3af84,,left_orange.png,q,,,,,,w,left_blue.png,left_orange.png,q,left,60fdf0adc7f5cc81445d07b0,001,2021-08-01_16h02.23.320,arrow_simon_norep,2021.1.2,MacIntel,59.87665409,,,,,,,,,,,,,,,,,,,,,q,1,1.6288,20,TRUE,FALSE,4,3,19,2,1,,,,,,,
,,,,,,0,2.401576271,#a3d0fb,,left_blue.png,w,,,,,,w,left_blue.png,left_orange.png,q,right,60fdf0adc7f5cc81445d07b0,001,2021-08-01_16h02.23.320,arrow_simon_norep,2021.1.2,MacIntel,59.87665409,,,,,,,,,,,,,,,,,,,,,o,0,1.6769,21,TRUE,FALSE,5,0,20,3,1,,,,,,,
,,,,,,0,2.307947218,#f3af84,,left_orange.png,q,,,,,,w,left_blue.png,left_orange.png,q,left,60fdf0adc7f5cc81445d07b0,001,2021-08-01_16h02.23.320,arrow_simon_norep,2021.1.2,MacIntel,59.87665409,,,,,,,,,,,,,,,,,,,,,q,1,1.6612,22,TRUE,FALSE,5,1,21,2,1,,,,,,,
,,,,,,0,1.765720926,#a3d0fb,,left_blue.png,w,,,,,,w,left_blue.png,left_orange.png,q,left,60fdf0adc7f5cc81445d07b0,001,2021-08-01_16h02.23.320,arrow_simon_norep,2021.1.2,MacIntel,59.87665409,,,,,,,,,,,,,,,,,,,,,w,1,1.5093,23,FALSE,FALSE,5,2,22,2,1,,,,,,,
,,,,,,0,1.908914092,#f3af84,,right_orange.png,p,,,,,,o,right_blue.png,right_orange.png,p,right,60fdf0adc7f5cc81445d07b0,001,2021-08-01_16h02.23.320,arrow_simon_norep,2021.1.2,MacIntel,59.87665409,,,,,,,,,,,,,,,,,,,,,p,1,1.5451,24,FALSE,FALSE,5,3,23,1,1,,,,,,,
,,,,,,0,1.733188026,#a3d0fb,,right_blue.png,o,,,,,,o,right_blue.png,right_orange.png,p,right,60fdf0adc7f5cc81445d07b0,001,2021-08-01_16h02.23.320,arrow_simon_norep,2021.1.2,MacIntel,59.87665409,,,,,,,,,,,,,,,,,,,,,o,1,1.4796,25,FALSE,FALSE,6,0,24,1,1,,,,,,,
,,,,,,0,2.160289998,#f3af84,,right_orange.png,p,,,,,,o,right_blue.png,right_orange.png,p,left,60fdf0adc7f5cc81445d07b0,001,2021-08-01_16h02.23.320,arrow_simon_norep,2021.1.2,MacIntel,59.87665409,,,,,,,,,,,,,,,,,,,,,p,1,1.6944,26,TRUE,FALSE,6,1,25,0,1,,,,,,,
,,,,,,1,2.142997621,#a3d0fb,,right_blue.png,o,,,,,,o,right_blue.png,right_orange.png,p,left,60fdf0adc7f5cc81445d07b0,001,2021-08-01_16h02.23.320,arrow_simon_norep,2021.1.2,MacIntel,59.87665409,,,,,,,,,,,,,,,,,,,,,w,0,1.5603,27,FALSE,FALSE,6,2,26,0,1,,,,,,,
,,,,,,1,2.284356183,#f3af84,,left_orange.png,q,,,,,,w,left_blue.png,left_orange.png,q,left,60fdf0adc7f5cc81445d07b0,001,2021-08-01_16h02.23.320,arrow_simon_norep,2021.1.2,MacIntel,59.87665409,,,,,,,,,,,,,,,,,,,,,q,1,1.6013,28,TRUE,FALSE,6,3,27,2,1,,,,,,,
,,,,,,0,1.70402753,#a3d0fb,,right_blue.png,o,,,,,,o,right_blue.png,right_orange.png,p,left,60fdf0adc7f5cc81445d07b0,001,2021-08-01_16h02.23.320,arrow_simon_norep,2021.1.2,MacIntel,59.87665409,,,,,,,,,,,,,,,,,,,,,o,1,1.5124,29,FALSE,FALSE,7,0,28,0,1,,,,,,,
,,,,,,0,1.904796987,#f3af84,,left_orange.png,q,,,,,,w,left_blue.png,left_orange.png,q,right,60fdf0adc7f5cc81445d07b0,001,2021-08-01_16h02.23.320,arrow_simon_norep,2021.1.2,MacIntel,59.87665409,,,,,,,,,,,,,,,,,,,,,q,1,1.5173,30,FALSE,FALSE,7,1,29,3,1,,,,,,,
,,,,,,0,2.141543498,#a3d0fb,,left_blue.png,w,,,,,,w,left_blue.png,left_orange.png,q,left,60fdf0adc7f5cc81445d07b0,001,2021-08-01_16h02.23.320,arrow_simon_norep,2021.1.2,MacIntel,59.87665409,,,,,,,,,,,,,,,,,,,,,w,1,1.5448,31,FALSE,FALSE,7,2,30,2,1,,,,,,,
,,,,,,0,1.644261038,#f3af84,,right_orange.png,p,,,,,,o,right_blue.png,right_orange.png,p,left,60fdf0adc7f5cc81445d07b0,001,2021-08-01_16h02.23.320,arrow_simon_norep,2021.1.2,MacIntel,59.87665409,,,,,,,,,,,,,,,,,,,,,p,1,1.5581,32,FALSE,FALSE,7,3,31,0,1,,,,,,,
,,,,,,0,1.589450586,#a3d0fb,,left_blue.png,w,,,,,,w,left_blue.png,left_orange.png,q,right,60fdf0adc7f5cc81445d07b0,001,2021-08-01_16h02.23.320,arrow_simon_norep,2021.1.2,MacIntel,59.87665409,,,,,,,,,,,,,,,,,,,,,w,1,1.4928,33,FALSE,FALSE,8,0,32,3,1,,,,,,,
,,,,,,0,1.548980641,#f3af84,,left_orange.png,q,,,,,,w,left_blue.png,left_orange.png,q,right,60fdf0adc7f5cc81445d07b0,001,2021-08-01_16h02.23.320,arrow_simon_norep,2021.1.2,MacIntel,59.87665409,,,,,,,,,,,,,,,,,,,,,q,1,1.5518,34,FALSE,FALSE,8,1,33,3,1,,,,,,,
,,,,,,0,1.53050747,#a3d0fb,,right_blue.png,o,,,,,,o,right_blue.png,right_orange.png,p,left,60fdf0adc7f5cc81445d07b0,001,2021-08-01_16h02.23.320,arrow_simon_norep,2021.1.2,MacIntel,59.87665409,,,,,,,,,,,,,,,,,,,,,o,1,1.5132,35,FALSE,FALSE,8,2,34,0,1,,,,,,,
,,,,,,0,1.510014412,#f3af84,,left_orange.png,q,,,,,,w,left_blue.png,left_orange.png,q,right,60fdf0adc7f5cc81445d07b0,001,2021-08-01_16h02.23.320,arrow_simon_norep,2021.1.2,MacIntel,59.87665409,,,,,,,,,,,,,,,,,,,,,q,1,1.5575,36,FALSE,FALSE,8,3,35,3,1,,,,,,,
,,,,,,0,2.382358842,#a3d0fb,,right_blue.png,o,,,,,,o,right_blue.png,right_orange.png,p,right,60fdf0adc7f5cc81445d07b0,001,2021-08-01_16h02.23.320,arrow_simon_norep,2021.1.2,MacIntel,59.87665409,,,,,,,,,,,,,,,,,,,,,o,1,1.6937,37,TRUE,FALSE,9,0,36,1,1,,,,,,,
,,,,,,0,2.071610149,#f3af84,,right_orange.png,p,,,,,,o,right_blue.png,right_orange.png,p,left,60fdf0adc7f5cc81445d07b0,001,2021-08-01_16h02.23.320,arrow_simon_norep,2021.1.2,MacIntel,59.87665409,,,,,,,,,,,,,,,,,,,,,p,1,1.5632,38,FALSE,FALSE,9,1,37,0,1,,,,,,,
,,,,,,0,2.20020916,#a3d0fb,,right_blue.png,o,,,,,,o,right_blue.png,right_orange.png,p,left,60fdf0adc7f5cc81445d07b0,001,2021-08-01_16h02.23.320,arrow_simon_norep,2021.1.2,MacIntel,59.87665409,,,,,,,,,,,,,,,,,,,,,o,1,1.644,39,TRUE,FALSE,9,2,38,0,1,,,,,,,
,,,,,,0,1.759679615,#f3af84,,right_orange.png,p,,,,,,o,right_blue.png,right_orange.png,p,left,60fdf0adc7f5cc81445d07b0,001,2021-08-01_16h02.23.320,arrow_simon_norep,2021.1.2,MacIntel,59.87665409,,,,,,,,,,,,,,,,,,,,,p,1,1.5902,40,FALSE,FALSE,9,3,39,0,1,,,,,,,
,,,,,,1,1.679458716,#a3d0fb,,right_blue.png,o,,,,,,o,right_blue.png,right_orange.png,p,left,60fdf0adc7f5cc81445d07b0,001,2021-08-01_16h02.23.320,arrow_simon_norep,2021.1.2,MacIntel,59.87665409,,,,,,,,,,,,,,,,,,,,,w,0,1.5799,41,FALSE,FALSE,10,0,40,0,1,,,,,,,
,,,,,,1,2.462264356,#f3af84,,left_orange.png,q,,,,,,w,left_blue.png,left_orange.png,q,right,60fdf0adc7f5cc81445d07b0,001,2021-08-01_16h02.23.320,arrow_simon_norep,2021.1.2,MacIntel,59.87665409,,,,,,,,,,,,,,,,,,,,,p,0,1.8084,42,TRUE,FALSE,10,1,41,3,1,,,,,,,
,,,,,,1,2.253822851,#a3d0fb,,left_blue.png,w,,,,,,w,left_blue.png,left_orange.png,q,right,60fdf0adc7f5cc81445d07b0,001,2021-08-01_16h02.23.320,arrow_simon_norep,2021.1.2,MacIntel,59.87665409,,,,,,,,,,,,,,,,,,,,,w,1,1.6965,43,TRUE,FALSE,10,2,42,3,1,,,,,,,
,,,,,,0,2.118297361,#f3af84,,left_orange.png,q,,,,,,w,left_blue.png,left_orange.png,q,left,60fdf0adc7f5cc81445d07b0,001,2021-08-01_16h02.23.320,arrow_simon_norep,2021.1.2,MacIntel,59.87665409,,,,,,,,,,,,,,,,,,,,,q,1,1.4838,44,FALSE,FALSE,10,3,43,2,1,,,,,,,
,,,,,,0,1.928112285,#a3d0fb,,left_blue.png,w,,,,,,w,left_blue.png,left_orange.png,q,left,60fdf0adc7f5cc81445d07b0,001,2021-08-01_16h02.23.320,arrow_simon_norep,2021.1.2,MacIntel,59.87665409,,,,,,,,,,,,,,,,,,,,,w,1,1.5572,45,FALSE,FALSE,11,0,44,2,1,,,,,,,
,,,,,,0,2.355874365,#f3af84,,left_orange.png,q,,,,,,w,left_blue.png,left_orange.png,q,right,60fdf0adc7f5cc81445d07b0,001,2021-08-01_16h02.23.320,arrow_simon_norep,2021.1.2,MacIntel,59.87665409,,,,,,,,,,,,,,,,,,,,,p,0,1.7428,46,TRUE,FALSE,11,1,45,3,1,,,,,,,
