instruct_resp_simon.keys,instruct_resp_simon.corr,instruct_resp_simon.rt,trial_resp_simon.keys,trial_resp_simon.corr,trial_resp_simon.rt,kerr,target_onset,target_color,target_pos,target_file,target_resp,trials_train_simon.thisRepN,trials_train_simon.thisTrialN,trials_train_simon.thisN,trials_train_simon.thisIndex,trials_train_simon.ran,odd_target_resp,odd_target_file,even_target_file,even_target_resp,target_side,participant,session,date,expName,psychopyVersion,OS,frameRate,train_block_note_resp.keys,train_block_note_resp.rt,blocks_train.thisRepN,blocks_train.thisTrialN,blocks_train.thisN,blocks_train.thisIndex,blocks_train.ran,instruct_resp_timing.keys,instruct_resp_timing.corr,instruct_resp_timing.rt,trial_resp_timing.keys,trial_resp_timing.rt,trials_train_timing.thisRepN,trials_train_timing.thisTrialN,trials_train_timing.thisN,trials_train_timing.thisIndex,trials_train_timing.ran,instruct_resp.keys,instruct_resp.corr,instruct_resp.rt,trial_resp.keys,trial_resp.corr,trial_resp.rt,trial_num,too_slow,too_soon,trials.thisRepN,trials.thisTrialN,trials.thisN,trials.thisIndex,trials.ran,block_note_resp.keys,block_note_resp.rt,blocks.thisRepN,blocks.thisTrialN,blocks.thisN,blocks.thisIndex,blocks.ran
space,0,76.372,w,1,1.673,0,0.234524173,#a3d0fb,,left_blue.png,w,0,0,0,3,1,w,left_blue.png,left_orange.png,q,right,60febf9b481b65a36fd8a083,001,2021-08-01_13h28.47.676,arrow_simon_norep,2021.1.2,MacIntel,60.45949214,,,,,,,,,,,,,,,,,,,,,,,,,,,,,,,,,,,,,,
,,,p,1,1.471,0,0.351063015,#f3af84,,right_orange.png,p,0,1,1,1,1,o,right_blue.png,right_orange.png,p,right,60febf9b481b65a36fd8a083,001,2021-08-01_13h28.47.676,arrow_simon_norep,2021.1.2,MacIntel,60.45949214,,,,,,,,,,,,,,,,,,,,,,,,,,,,,,,,,,,,,,
,,,o,0,2.404,1,0.744043927,#a3d0fb,,left_blue.png,w,0,2,2,2,1,w,left_blue.png,left_orange.png,q,left,60febf9b481b65a36fd8a083,001,2021-08-01_13h28.47.676,arrow_simon_norep,2021.1.2,MacIntel,60.45949214,,,,,,,,,,,,,,,,,,,,,,,,,,,,,,,,,,,,,,
,,,p,1,1.086,0,0.194511874,#f3af84,,right_orange.png,p,0,3,3,1,1,o,right_blue.png,right_orange.png,p,right,60febf9b481b65a36fd8a083,001,2021-08-01_13h28.47.676,arrow_simon_norep,2021.1.2,MacIntel,60.45949214,,,,,,,,,,,,,,,,,,,,,,,,,,,,,,,,,,,,,,
,,,w,1,1.268,0,0.11786539,#a3d0fb,,left_blue.png,w,1,0,4,2,1,w,left_blue.png,left_orange.png,q,left,60febf9b481b65a36fd8a083,001,2021-08-01_13h28.47.676,arrow_simon_norep,2021.1.2,MacIntel,60.45949214,,,,,,,,,,,,,,,,,,,,,,,,,,,,,,,,,,,,,,
,,,q,1,1.07,0,0.091112653,#f3af84,,left_orange.png,q,1,1,5,3,1,w,left_blue.png,left_orange.png,q,right,60febf9b481b65a36fd8a083,001,2021-08-01_13h28.47.676,arrow_simon_norep,2021.1.2,MacIntel,60.45949214,,,,,,,,,,,,,,,,,,,,,,,,,,,,,,,,,,,,,,
,,,o,0,1.489,1,0.749911417,#a3d0fb,,left_blue.png,w,1,2,6,2,1,w,left_blue.png,left_orange.png,q,left,60febf9b481b65a36fd8a083,001,2021-08-01_13h28.47.676,arrow_simon_norep,2021.1.2,MacIntel,60.45949214,,,,,,,,,,,,,,,,,,,,,,,,,,,,,,,,,,,,,,
,,,q,1,2.451,0,0.885292744,#f3af84,,left_orange.png,q,1,3,7,3,1,w,left_blue.png,left_orange.png,q,right,60febf9b481b65a36fd8a083,001,2021-08-01_13h28.47.676,arrow_simon_norep,2021.1.2,MacIntel,60.45949214,,,,,,,,,,,,,,,,,,,,,,,,,,,,,,,,,,,,,,
,,,w,1,1.751,0,0.875476834,#a3d0fb,,left_blue.png,w,2,0,8,2,1,w,left_blue.png,left_orange.png,q,left,60febf9b481b65a36fd8a083,001,2021-08-01_13h28.47.676,arrow_simon_norep,2021.1.2,MacIntel,60.45949214,,,,,,,,,,,,,,,,,,,,,,,,,,,,,,,,,,,,,,
,,,p,1,1.203,0,0.182737593,#f3af84,,right_orange.png,p,2,1,9,0,1,o,right_blue.png,right_orange.png,p,left,60febf9b481b65a36fd8a083,001,2021-08-01_13h28.47.676,arrow_simon_norep,2021.1.2,MacIntel,60.45949214,,,,,,,,,,,,,,,,,,,,,,,,,,,,,,,,,,,,,,
,,,w,0,1.087,1,0.099944624,#a3d0fb,,right_blue.png,o,2,2,10,1,1,o,right_blue.png,right_orange.png,p,right,60febf9b481b65a36fd8a083,001,2021-08-01_13h28.47.676,arrow_simon_norep,2021.1.2,MacIntel,60.45949214,,,,,,,,,,,,,,,,,,,,,,,,,,,,,,,,,,,,,,
,,,q,1,1.653,0,0.145348384,#f3af84,,left_orange.png,q,2,3,11,3,1,w,left_blue.png,left_orange.png,q,right,60febf9b481b65a36fd8a083,001,2021-08-01_13h28.47.676,arrow_simon_norep,2021.1.2,MacIntel,60.45949214,,,,,,,,,,,,,,,,,,,,,,,,,,,,,,,,,,,,,,
,,,o,1,2.607,0,0.978141741,#a3d0fb,,right_blue.png,o,3,0,12,0,1,o,right_blue.png,right_orange.png,p,left,60febf9b481b65a36fd8a083,001,2021-08-01_13h28.47.676,arrow_simon_norep,2021.1.2,MacIntel,60.45949214,,,,,,,,,,,,,,,,,,,,,,,,,,,,,,,,,,,,,,
,,,q,1,2.056,0,0.723170717,#f3af84,,left_orange.png,q,3,1,13,3,1,w,left_blue.png,left_orange.png,q,right,60febf9b481b65a36fd8a083,001,2021-08-01_13h28.47.676,arrow_simon_norep,2021.1.2,MacIntel,60.45949214,,,,,,,,,,,,,,,,,,,,,,,,,,,,,,,,,,,,,,
,,,o,0,1.475,1,0.604447326,#a3d0fb,,left_blue.png,w,3,2,14,2,1,w,left_blue.png,left_orange.png,q,left,60febf9b481b65a36fd8a083,001,2021-08-01_13h28.47.676,arrow_simon_norep,2021.1.2,MacIntel,60.45949214,,,,,,,,,,,,,,,,,,,,,,,,,,,,,,,,,,,,,,
,,,p,1,1.869,0,0.762492227,#f3af84,,right_orange.png,p,3,3,15,0,1,o,right_blue.png,right_orange.png,p,left,60febf9b481b65a36fd8a083,001,2021-08-01_13h28.47.676,arrow_simon_norep,2021.1.2,MacIntel,60.45949214,,,,,,,,,,,,,,,,,,,,,,,,,,,,,,,,,,,,,,
,,,p,0,1.418,1,0.188011074,#a3d0fb,,right_blue.png,o,4,0,16,1,1,o,right_blue.png,right_orange.png,p,right,60febf9b481b65a36fd8a083,001,2021-08-01_13h28.47.676,arrow_simon_norep,2021.1.2,MacIntel,60.45949214,,,,,,,,,,,,,,,,,,,,,,,,,,,,,,,,,,,,,,
,,,q,1,1.808,0,0.485398688,#f3af84,,left_orange.png,q,4,1,17,2,1,w,left_blue.png,left_orange.png,q,left,60febf9b481b65a36fd8a083,001,2021-08-01_13h28.47.676,arrow_simon_norep,2021.1.2,MacIntel,60.45949214,,,,,,,,,,,,,,,,,,,,,,,,,,,,,,,,,,,,,,
,,,w,1,2.286,0,0.973472239,#a3d0fb,,left_blue.png,w,4,2,18,3,1,w,left_blue.png,left_orange.png,q,right,60febf9b481b65a36fd8a083,001,2021-08-01_13h28.47.676,arrow_simon_norep,2021.1.2,MacIntel,60.45949214,,,,,,,,,,,,,,,,,,,,,,,,,,,,,,,,,,,,,,
,,,p,1,2.037,0,0.380650642,#f3af84,,right_orange.png,p,4,3,19,1,1,o,right_blue.png,right_orange.png,p,right,60febf9b481b65a36fd8a083,001,2021-08-01_13h28.47.676,arrow_simon_norep,2021.1.2,MacIntel,60.45949214,,,,,,,,,,,,,,,,,,,,,,,,,,,,,,,,,,,,,,
,,,o,1,1.935,0,0.924904639,#a3d0fb,,right_blue.png,o,5,0,20,1,1,o,right_blue.png,right_orange.png,p,right,60febf9b481b65a36fd8a083,001,2021-08-01_13h28.47.676,arrow_simon_norep,2021.1.2,MacIntel,60.45949214,,,,,,,,,,,,,,,,,,,,,,,,,,,,,,,,,,,,,,
,,,p,1,0.951,0,0.076026323,#f3af84,,right_orange.png,p,5,1,21,0,1,o,right_blue.png,right_orange.png,p,left,60febf9b481b65a36fd8a083,001,2021-08-01_13h28.47.676,arrow_simon_norep,2021.1.2,MacIntel,60.45949214,,,,,,,,,,,,,,,,,,,,,,,,,,,,,,,,,,,,,,
,,,o,1,1.291,0,0.561702771,#a3d0fb,,right_blue.png,o,5,2,22,1,1,o,right_blue.png,right_orange.png,p,right,60febf9b481b65a36fd8a083,001,2021-08-01_13h28.47.676,arrow_simon_norep,2021.1.2,MacIntel,60.45949214,,,,,,,,,,,,,,,,,,,,,,,,,,,,,,,,,,,,,,
,,,p,1,1.469,0,0.94811289,#f3af84,,right_orange.png,p,5,3,23,1,1,o,right_blue.png,right_orange.png,p,right,60febf9b481b65a36fd8a083,001,2021-08-01_13h28.47.676,arrow_simon_norep,2021.1.2,MacIntel,60.45949214,,,,,,,,,,,,,,,,,,,,,,,,,,,,,,,,,,,,,,
,,,p,0,1.023,1,0.555512727,#a3d0fb,,right_blue.png,o,6,0,24,1,1,o,right_blue.png,right_orange.png,p,right,60febf9b481b65a36fd8a083,001,2021-08-01_13h28.47.676,arrow_simon_norep,2021.1.2,MacIntel,60.45949214,,,,,,,,,,,,,,,,,,,,,,,,,,,,,,,,,,,,,,
,,,p,1,1.325,0,0.773480668,#f3af84,,right_orange.png,p,6,1,25,0,1,o,right_blue.png,right_orange.png,p,left,60febf9b481b65a36fd8a083,001,2021-08-01_13h28.47.676,arrow_simon_norep,2021.1.2,MacIntel,60.45949214,,,,,,,,,,,,,,,,,,,,,,,,,,,,,,,,,,,,,,
,,,o,1,1.386,0,0.302157365,#a3d0fb,,right_blue.png,o,6,2,26,1,1,o,right_blue.png,right_orange.png,p,right,60febf9b481b65a36fd8a083,001,2021-08-01_13h28.47.676,arrow_simon_norep,2021.1.2,MacIntel,60.45949214,,,,,,,,,,,,,,,,,,,,,,,,,,,,,,,,,,,,,,
,,,q,1,0.953,0,0.013026745,#f3af84,,left_orange.png,q,6,3,27,3,1,w,left_blue.png,left_orange.png,q,right,60febf9b481b65a36fd8a083,001,2021-08-01_13h28.47.676,arrow_simon_norep,2021.1.2,MacIntel,60.45949214,,,,,,,,,,,,,,,,,,,,,,,,,,,,,,,,,,,,,,
,,,p,0,1.14,1,0.575418336,#a3d0fb,,right_blue.png,o,7,0,28,0,1,o,right_blue.png,right_orange.png,p,left,60febf9b481b65a36fd8a083,001,2021-08-01_13h28.47.676,arrow_simon_norep,2021.1.2,MacIntel,60.45949214,,,,,,,,,,,,,,,,,,,,,,,,,,,,,,,,,,,,,,
,,,p,1,0.751,0,0.224262456,#f3af84,,right_orange.png,p,7,1,29,0,1,o,right_blue.png,right_orange.png,p,left,60febf9b481b65a36fd8a083,001,2021-08-01_13h28.47.676,arrow_simon_norep,2021.1.2,MacIntel,60.45949214,,,,,,,,,,,,,,,,,,,,,,,,,,,,,,,,,,,,,,
,,,o,1,1.208,0,0.429458859,#a3d0fb,,right_blue.png,o,7,2,30,0,1,o,right_blue.png,right_orange.png,p,left,60febf9b481b65a36fd8a083,001,2021-08-01_13h28.47.676,arrow_simon_norep,2021.1.2,MacIntel,60.45949214,,,,,,,,,,,,,,,,,,,,,,,,,,,,,,,,,,,,,,
,,,q,1,1.652,0,0.614329596,#f3af84,,left_orange.png,q,7,3,31,3,1,w,left_blue.png,left_orange.png,q,right,60febf9b481b65a36fd8a083,001,2021-08-01_13h28.47.676,arrow_simon_norep,2021.1.2,MacIntel,60.45949214,,,,,,,,,,,,,,,,,,,,,,,,,,,,,,,,,,,,,,
,,,o,1,1.485,0,0.587214595,#a3d0fb,,right_blue.png,o,8,0,32,1,1,o,right_blue.png,right_orange.png,p,right,60febf9b481b65a36fd8a083,001,2021-08-01_13h28.47.676,arrow_simon_norep,2021.1.2,MacIntel,60.45949214,,,,,,,,,,,,,,,,,,,,,,,,,,,,,,,,,,,,,,
,,,q,1,1.203,0,0.555739614,#f3af84,,left_orange.png,q,8,1,33,3,1,w,left_blue.png,left_orange.png,q,right,60febf9b481b65a36fd8a083,001,2021-08-01_13h28.47.676,arrow_simon_norep,2021.1.2,MacIntel,60.45949214,,,,,,,,,,,,,,,,,,,,,,,,,,,,,,,,,,,,,,
,,,w,1,1.851,0,0.864919145,#a3d0fb,,left_blue.png,w,8,2,34,2,1,w,left_blue.png,left_orange.png,q,left,60febf9b481b65a36fd8a083,001,2021-08-01_13h28.47.676,arrow_simon_norep,2021.1.2,MacIntel,60.45949214,,,,,,,,,,,,,,,,,,,,,,,,,,,,,,,,,,,,,,
,,,q,1,1.5,0,0.922537789,#f3af84,,left_orange.png,q,8,3,35,2,1,w,left_blue.png,left_orange.png,q,left,60febf9b481b65a36fd8a083,001,2021-08-01_13h28.47.676,arrow_simon_norep,2021.1.2,MacIntel,60.45949214,,,,,,,,,,,,,,,,,,,,,,,,,,,,,,,,,,,,,,
,,,o,1,1.389,0,0.712288737,#a3d0fb,,right_blue.png,o,9,0,36,1,1,o,right_blue.png,right_orange.png,p,right,60febf9b481b65a36fd8a083,001,2021-08-01_13h28.47.676,arrow_simon_norep,2021.1.2,MacIntel,60.45949214,,,,,,,,,,,,,,,,,,,,,,,,,,,,,,,,,,,,,,
,,,p,1,1.288,0,0.583354928,#f3af84,,right_orange.png,p,9,1,37,1,1,o,right_blue.png,right_orange.png,p,right,60febf9b481b65a36fd8a083,001,2021-08-01_13h28.47.676,arrow_simon_norep,2021.1.2,MacIntel,60.45949214,,,,,,,,,,,,,,,,,,,,,,,,,,,,,,,,,,,,,,
,,,o,1,1.419,0,0.742782739,#a3d0fb,,right_blue.png,o,9,2,38,1,1,o,right_blue.png,right_orange.png,p,right,60febf9b481b65a36fd8a083,001,2021-08-01_13h28.47.676,arrow_simon_norep,2021.1.2,MacIntel,60.45949214,,,,,,,,,,,,,,,,,,,,,,,,,,,,,,,,,,,,,,
,,,w,0,1.252,1,0.626078022,#f3af84,,right_orange.png,p,9,3,39,0,1,o,right_blue.png,right_orange.png,p,left,60febf9b481b65a36fd8a083,001,2021-08-01_13h28.47.676,arrow_simon_norep,2021.1.2,MacIntel,60.45949214,,,,,,,,,,,,,,,,,,,,,,,,,,,,,,,,,,,,,,
,,,q,0,1.135,1,0.248276794,#a3d0fb,,left_blue.png,w,10,0,40,3,1,w,left_blue.png,left_orange.png,q,right,60febf9b481b65a36fd8a083,001,2021-08-01_13h28.47.676,arrow_simon_norep,2021.1.2,MacIntel,60.45949214,,,,,,,,,,,,,,,,,,,,,,,,,,,,,,,,,,,,,,
,,,q,1,1.222,0,0.303676652,#f3af84,,left_orange.png,q,10,1,41,3,1,w,left_blue.png,left_orange.png,q,right,60febf9b481b65a36fd8a083,001,2021-08-01_13h28.47.676,arrow_simon_norep,2021.1.2,MacIntel,60.45949214,,,,,,,,,,,,,,,,,,,,,,,,,,,,,,,,,,,,,,
,,,w,1,1.673,0,0.908967959,#a3d0fb,,left_blue.png,w,10,2,42,2,1,w,left_blue.png,left_orange.png,q,left,60febf9b481b65a36fd8a083,001,2021-08-01_13h28.47.676,arrow_simon_norep,2021.1.2,MacIntel,60.45949214,,,,,,,,,,,,,,,,,,,,,,,,,,,,,,,,,,,,,,
,,,q,1,1.134,0,0.577631084,#f3af84,,left_orange.png,q,10,3,43,2,1,w,left_blue.png,left_orange.png,q,left,60febf9b481b65a36fd8a083,001,2021-08-01_13h28.47.676,arrow_simon_norep,2021.1.2,MacIntel,60.45949214,,,,,,,,,,,,,,,,,,,,,,,,,,,,,,,,,,,,,,
,,,w,1,1.552,0,0.749658326,#a3d0fb,,left_blue.png,w,11,0,44,3,1,w,left_blue.png,left_orange.png,q,right,60febf9b481b65a36fd8a083,001,2021-08-01_13h28.47.676,arrow_simon_norep,2021.1.2,MacIntel,60.45949214,,,,,,,,,,,,,,,,,,,,,,,,,,,,,,,,,,,,,,
,,,p,1,0.903,0,0.125844002,#f3af84,,right_orange.png,p,11,1,45,0,1,o,right_blue.png,right_orange.png,p,left,60febf9b481b65a36fd8a083,001,2021-08-01_13h28.47.676,arrow_simon_norep,2021.1.2,MacIntel,60.45949214,,,,,,,,,,,,,,,,,,,,,,,,,,,,,,,,,,,,,,
,,,o,1,1.619,0,0.596398113,#a3d0fb,,right_blue.png,o,11,2,46,0,1,o,right_blue.png,right_orange.png,p,left,60febf9b481b65a36fd8a083,001,2021-08-01_13h28.47.676,arrow_simon_norep,2021.1.2,MacIntel,60.45949214,,,,,,,,,,,,,,,,,,,,,,,,,,,,,,,,,,,,,,
,,,p,1,1.224,0,0.498126612,#f3af84,,right_orange.png,p,11,3,47,0,1,o,right_blue.png,right_orange.png,p,left,60febf9b481b65a36fd8a083,001,2021-08-01_13h28.47.676,arrow_simon_norep,2021.1.2,MacIntel,60.45949214,,,,,,,,,,,,,,,,,,,,,,,,,,,,,,,,,,,,,,
,,,o,1,0.952,0,0.211274713,#a3d0fb,,right_blue.png,o,12,0,48,0,1,o,right_blue.png,right_orange.png,p,left,60febf9b481b65a36fd8a083,001,2021-08-01_13h28.47.676,arrow_simon_norep,2021.1.2,MacIntel,60.45949214,,,,,,,,,,,,,,,,,,,,,,,,,,,,,,,,,,,,,,
,,,q,1,1.94,0,0.800855317,#f3af84,,left_orange.png,q,12,1,49,2,1,w,left_blue.png,left_orange.png,q,left,60febf9b481b65a36fd8a083,001,2021-08-01_13h28.47.676,arrow_simon_norep,2021.1.2,MacIntel,60.45949214,,,,,,,,,,,,,,,,,,,,,,,,,,,,,,,,,,,,,,
,,,w,1,1.402,0,0.610116291,#a3d0fb,,left_blue.png,w,12,2,50,2,1,w,left_blue.png,left_orange.png,q,left,60febf9b481b65a36fd8a083,001,2021-08-01_13h28.47.676,arrow_simon_norep,2021.1.2,MacIntel,60.45949214,,,,,,,,,,,,,,,,,,,,,,,,,,,,,,,,,,,,,,
,,,q,1,1.89,0,0.705194917,#f3af84,,left_orange.png,q,12,3,51,3,1,w,left_blue.png,left_orange.png,q,right,60febf9b481b65a36fd8a083,001,2021-08-01_13h28.47.676,arrow_simon_norep,2021.1.2,MacIntel,60.45949214,,,,,,,,,,,,,,,,,,,,,,,,,,,,,,,,,,,,,,
,,,o,1,1.818,0,0.738570587,#a3d0fb,,right_blue.png,o,13,0,52,0,1,o,right_blue.png,right_orange.png,p,left,60febf9b481b65a36fd8a083,001,2021-08-01_13h28.47.676,arrow_simon_norep,2021.1.2,MacIntel,60.45949214,,,,,,,,,,,,,,,,,,,,,,,,,,,,,,,,,,,,,,
,,,q,1,1.903,0,0.94961417,#f3af84,,left_orange.png,q,13,1,53,2,1,w,left_blue.png,left_orange.png,q,left,60febf9b481b65a36fd8a083,001,2021-08-01_13h28.47.676,arrow_simon_norep,2021.1.2,MacIntel,60.45949214,,,,,,,,,,,,,,,,,,,,,,,,,,,,,,,,,,,,,,
,,,w,1,1.206,0,0.516239778,#a3d0fb,,left_blue.png,w,13,2,54,2,1,w,left_blue.png,left_orange.png,q,left,60febf9b481b65a36fd8a083,001,2021-08-01_13h28.47.676,arrow_simon_norep,2021.1.2,MacIntel,60.45949214,,,,,,,,,,,,,,,,,,,,,,,,,,,,,,,,,,,,,,
,,,p,1,1.653,0,0.870800286,#f3af84,,right_orange.png,p,13,3,55,1,1,o,right_blue.png,right_orange.png,p,right,60febf9b481b65a36fd8a083,001,2021-08-01_13h28.47.676,arrow_simon_norep,2021.1.2,MacIntel,60.45949214,,,,,,,,,,,,,,,,,,,,,,,,,,,,,,,,,,,,,,
,,,w,0,1.756,1,0.483983886,#a3d0fb,,right_blue.png,o,14,0,56,0,1,o,right_blue.png,right_orange.png,p,left,60febf9b481b65a36fd8a083,001,2021-08-01_13h28.47.676,arrow_simon_norep,2021.1.2,MacIntel,60.45949214,,,,,,,,,,,,,,,,,,,,,,,,,,,,,,,,,,,,,,
,,,q,1,1.101,0,0.376798408,#f3af84,,left_orange.png,q,14,1,57,3,1,w,left_blue.png,left_orange.png,q,right,60febf9b481b65a36fd8a083,001,2021-08-01_13h28.47.676,arrow_simon_norep,2021.1.2,MacIntel,60.45949214,,,,,,,,,,,,,,,,,,,,,,,,,,,,,,,,,,,,,,
,,,w,1,1.903,0,0.167605438,#a3d0fb,,left_blue.png,w,14,2,58,3,1,w,left_blue.png,left_orange.png,q,right,60febf9b481b65a36fd8a083,001,2021-08-01_13h28.47.676,arrow_simon_norep,2021.1.2,MacIntel,60.45949214,,,,,,,,,,,,,,,,,,,,,,,,,,,,,,,,,,,,,,
,,,q,1,1.219,0,0.739501243,#f3af84,,left_orange.png,q,14,3,59,2,1,w,left_blue.png,left_orange.png,q,left,60febf9b481b65a36fd8a083,001,2021-08-01_13h28.47.676,arrow_simon_norep,2021.1.2,MacIntel,60.45949214,,,,,,,,,,,,,,,,,,,,,,,,,,,,,,,,,,,,,,
,,,,,,,,,,,,,,,,,,,,,,60febf9b481b65a36fd8a083,001,2021-08-01_13h28.47.676,arrow_simon_norep,2021.1.2,MacIntel,60.45949214,space,30.172,0,0,0,0,1,,,,,,,,,,,,,,,,,,,,,,,,,,,,,,,
,,,w,1,1.751,0,0.265688431,#a3d0fb,,left_blue.png,w,0,0,0,2,1,w,left_blue.png,left_orange.png,q,left,60febf9b481b65a36fd8a083,001,2021-08-01_13h28.47.676,arrow_simon_norep,2021.1.2,MacIntel,60.45949214,,,,,,,,,,,,,,,,,,,,,,,,,,,,,,,,,,,,,,
,,,q,1,1.239,0,0.569581761,#f3af84,,left_orange.png,q,0,1,1,2,1,w,left_blue.png,left_orange.png,q,left,60febf9b481b65a36fd8a083,001,2021-08-01_13h28.47.676,arrow_simon_norep,2021.1.2,MacIntel,60.45949214,,,,,,,,,,,,,,,,,,,,,,,,,,,,,,,,,,,,,,
,,,q,0,1.287,1,0.728636415,#a3d0fb,,left_blue.png,w,0,2,2,2,1,w,left_blue.png,left_orange.png,q,left,60febf9b481b65a36fd8a083,001,2021-08-01_13h28.47.676,arrow_simon_norep,2021.1.2,MacIntel,60.45949214,,,,,,,,,,,,,,,,,,,,,,,,,,,,,,,,,,,,,,
,,,p,1,0.975,0,0.225090904,#f3af84,,right_orange.png,p,0,3,3,0,1,o,right_blue.png,right_orange.png,p,left,60febf9b481b65a36fd8a083,001,2021-08-01_13h28.47.676,arrow_simon_norep,2021.1.2,MacIntel,60.45949214,,,,,,,,,,,,,,,,,,,,,,,,,,,,,,,,,,,,,,
,,,q,0,1.284,1,0.611955693,#a3d0fb,,left_blue.png,w,1,0,4,3,1,w,left_blue.png,left_orange.png,q,right,60febf9b481b65a36fd8a083,001,2021-08-01_13h28.47.676,arrow_simon_norep,2021.1.2,MacIntel,60.45949214,,,,,,,,,,,,,,,,,,,,,,,,,,,,,,,,,,,,,,
,,,q,1,1.505,0,0.565100903,#f3af84,,left_orange.png,q,1,1,5,2,1,w,left_blue.png,left_orange.png,q,left,60febf9b481b65a36fd8a083,001,2021-08-01_13h28.47.676,arrow_simon_norep,2021.1.2,MacIntel,60.45949214,,,,,,,,,,,,,,,,,,,,,,,,,,,,,,,,,,,,,,
,,,o,1,1.008,0,0.147779527,#a3d0fb,,right_blue.png,o,1,2,6,1,1,o,right_blue.png,right_orange.png,p,right,60febf9b481b65a36fd8a083,001,2021-08-01_13h28.47.676,arrow_simon_norep,2021.1.2,MacIntel,60.45949214,,,,,,,,,,,,,,,,,,,,,,,,,,,,,,,,,,,,,,
,,,p,1,0.955,0,0.325075183,#f3af84,,right_orange.png,p,1,3,7,1,1,o,right_blue.png,right_orange.png,p,right,60febf9b481b65a36fd8a083,001,2021-08-01_13h28.47.676,arrow_simon_norep,2021.1.2,MacIntel,60.45949214,,,,,,,,,,,,,,,,,,,,,,,,,,,,,,,,,,,,,,
,,,w,0,1.3,1,0.645844143,#a3d0fb,,right_blue.png,o,2,0,8,0,1,o,right_blue.png,right_orange.png,p,left,60febf9b481b65a36fd8a083,001,2021-08-01_13h28.47.676,arrow_simon_norep,2021.1.2,MacIntel,60.45949214,,,,,,,,,,,,,,,,,,,,,,,,,,,,,,,,,,,,,,
,,,p,1,1.352,0,0.326119509,#f3af84,,right_orange.png,p,2,1,9,0,1,o,right_blue.png,right_orange.png,p,left,60febf9b481b65a36fd8a083,001,2021-08-01_13h28.47.676,arrow_simon_norep,2021.1.2,MacIntel,60.45949214,,,,,,,,,,,,,,,,,,,,,,,,,,,,,,,,,,,,,,
,,,o,1,0.97,0,0.295267533,#a3d0fb,,right_blue.png,o,2,2,10,0,1,o,right_blue.png,right_orange.png,p,left,60febf9b481b65a36fd8a083,001,2021-08-01_13h28.47.676,arrow_simon_norep,2021.1.2,MacIntel,60.45949214,,,,,,,,,,,,,,,,,,,,,,,,,,,,,,,,,,,,,,
,,,q,1,1.237,0,0.387057616,#f3af84,,left_orange.png,q,2,3,11,3,1,w,left_blue.png,left_orange.png,q,right,60febf9b481b65a36fd8a083,001,2021-08-01_13h28.47.676,arrow_simon_norep,2021.1.2,MacIntel,60.45949214,,,,,,,,,,,,,,,,,,,,,,,,,,,,,,,,,,,,,,
,,,w,1,1.758,0,0.824335753,#a3d0fb,,left_blue.png,w,3,0,12,2,1,w,left_blue.png,left_orange.png,q,left,60febf9b481b65a36fd8a083,001,2021-08-01_13h28.47.676,arrow_simon_norep,2021.1.2,MacIntel,60.45949214,,,,,,,,,,,,,,,,,,,,,,,,,,,,,,,,,,,,,,
,,,p,1,1.206,0,0.454806275,#f3af84,,right_orange.png,p,3,1,13,0,1,o,right_blue.png,right_orange.png,p,left,60febf9b481b65a36fd8a083,001,2021-08-01_13h28.47.676,arrow_simon_norep,2021.1.2,MacIntel,60.45949214,,,,,,,,,,,,,,,,,,,,,,,,,,,,,,,,,,,,,,
,,,w,1,1.172,0,0.535126945,#a3d0fb,,left_blue.png,w,3,2,14,3,1,w,left_blue.png,left_orange.png,q,right,60febf9b481b65a36fd8a083,001,2021-08-01_13h28.47.676,arrow_simon_norep,2021.1.2,MacIntel,60.45949214,,,,,,,,,,,,,,,,,,,,,,,,,,,,,,,,,,,,,,
,,,p,1,1.234,0,0.431475983,#f3af84,,right_orange.png,p,3,3,15,0,1,o,right_blue.png,right_orange.png,p,left,60febf9b481b65a36fd8a083,001,2021-08-01_13h28.47.676,arrow_simon_norep,2021.1.2,MacIntel,60.45949214,,,,,,,,,,,,,,,,,,,,,,,,,,,,,,,,,,,,,,
,,,w,1,1.569,0,0.821814921,#a3d0fb,,left_blue.png,w,4,0,16,3,1,w,left_blue.png,left_orange.png,q,right,60febf9b481b65a36fd8a083,001,2021-08-01_13h28.47.676,arrow_simon_norep,2021.1.2,MacIntel,60.45949214,,,,,,,,,,,,,,,,,,,,,,,,,,,,,,,,,,,,,,
,,,p,1,1.439,0,0.848742973,#f3af84,,right_orange.png,p,4,1,17,0,1,o,right_blue.png,right_orange.png,p,left,60febf9b481b65a36fd8a083,001,2021-08-01_13h28.47.676,arrow_simon_norep,2021.1.2,MacIntel,60.45949214,,,,,,,,,,,,,,,,,,,,,,,,,,,,,,,,,,,,,,
,,,w,1,1.302,0,0.782110238,#a3d0fb,,left_blue.png,w,4,2,18,2,1,w,left_blue.png,left_orange.png,q,left,60febf9b481b65a36fd8a083,001,2021-08-01_13h28.47.676,arrow_simon_norep,2021.1.2,MacIntel,60.45949214,,,,,,,,,,,,,,,,,,,,,,,,,,,,,,,,,,,,,,
,,,p,1,1.554,0,0.982307368,#f3af84,,right_orange.png,p,4,3,19,1,1,o,right_blue.png,right_orange.png,p,right,60febf9b481b65a36fd8a083,001,2021-08-01_13h28.47.676,arrow_simon_norep,2021.1.2,MacIntel,60.45949214,,,,,,,,,,,,,,,,,,,,,,,,,,,,,,,,,,,,,,
,,,o,1,0.967,0,0.305289104,#a3d0fb,,right_blue.png,o,5,0,20,1,1,o,right_blue.png,right_orange.png,p,right,60febf9b481b65a36fd8a083,001,2021-08-01_13h28.47.676,arrow_simon_norep,2021.1.2,MacIntel,60.45949214,,,,,,,,,,,,,,,,,,,,,,,,,,,,,,,,,,,,,,
,,,w,0,0.822,1,0.227055314,#f3af84,,right_orange.png,p,5,1,21,0,1,o,right_blue.png,right_orange.png,p,left,60febf9b481b65a36fd8a083,001,2021-08-01_13h28.47.676,arrow_simon_norep,2021.1.2,MacIntel,60.45949214,,,,,,,,,,,,,,,,,,,,,,,,,,,,,,,,,,,,,,
,,,o,1,1.469,0,0.367521105,#a3d0fb,,right_blue.png,o,5,2,22,0,1,o,right_blue.png,right_orange.png,p,left,60febf9b481b65a36fd8a083,001,2021-08-01_13h28.47.676,arrow_simon_norep,2021.1.2,MacIntel,60.45949214,,,,,,,,,,,,,,,,,,,,,,,,,,,,,,,,,,,,,,
,,,p,1,0.856,0,0.185939329,#f3af84,,right_orange.png,p,5,3,23,1,1,o,right_blue.png,right_orange.png,p,right,60febf9b481b65a36fd8a083,001,2021-08-01_13h28.47.676,arrow_simon_norep,2021.1.2,MacIntel,60.45949214,,,,,,,,,,,,,,,,,,,,,,,,,,,,,,,,,,,,,,
,,,o,1,1.552,0,0.849756931,#a3d0fb,,right_blue.png,o,6,0,24,0,1,o,right_blue.png,right_orange.png,p,left,60febf9b481b65a36fd8a083,001,2021-08-01_13h28.47.676,arrow_simon_norep,2021.1.2,MacIntel,60.45949214,,,,,,,,,,,,,,,,,,,,,,,,,,,,,,,,,,,,,,
,,,q,1,1.275,0,0.678174879,#f3af84,,left_orange.png,q,6,1,25,3,1,w,left_blue.png,left_orange.png,q,right,60febf9b481b65a36fd8a083,001,2021-08-01_13h28.47.676,arrow_simon_norep,2021.1.2,MacIntel,60.45949214,,,,,,,,,,,,,,,,,,,,,,,,,,,,,,,,,,,,,,
,,,w,1,1.087,0,0.365124544,#a3d0fb,,left_blue.png,w,6,2,26,3,1,w,left_blue.png,left_orange.png,q,right,60febf9b481b65a36fd8a083,001,2021-08-01_13h28.47.676,arrow_simon_norep,2021.1.2,MacIntel,60.45949214,,,,,,,,,,,,,,,,,,,,,,,,,,,,,,,,,,,,,,
,,,o,0,1.002,1,0.118601828,#f3af84,,left_orange.png,q,6,3,27,3,1,w,left_blue.png,left_orange.png,q,right,60febf9b481b65a36fd8a083,001,2021-08-01_13h28.47.676,arrow_simon_norep,2021.1.2,MacIntel,60.45949214,,,,,,,,,,,,,,,,,,,,,,,,,,,,,,,,,,,,,,
,,,w,1,0.97,0,0.177069319,#a3d0fb,,left_blue.png,w,7,0,28,2,1,w,left_blue.png,left_orange.png,q,left,60febf9b481b65a36fd8a083,001,2021-08-01_13h28.47.676,arrow_simon_norep,2021.1.2,MacIntel,60.45949214,,,,,,,,,,,,,,,,,,,,,,,,,,,,,,,,,,,,,,
,,,q,1,1.589,0,0.936817618,#f3af84,,left_orange.png,q,7,1,29,2,1,w,left_blue.png,left_orange.png,q,left,60febf9b481b65a36fd8a083,001,2021-08-01_13h28.47.676,arrow_simon_norep,2021.1.2,MacIntel,60.45949214,,,,,,,,,,,,,,,,,,,,,,,,,,,,,,,,,,,,,,
,,,o,1,0.94,0,0.327592983,#a3d0fb,,right_blue.png,o,7,2,30,1,1,o,right_blue.png,right_orange.png,p,right,60febf9b481b65a36fd8a083,001,2021-08-01_13h28.47.676,arrow_simon_norep,2021.1.2,MacIntel,60.45949214,,,,,,,,,,,,,,,,,,,,,,,,,,,,,,,,,,,,,,
,,,q,1,0.836,0,0.04429926,#f3af84,,left_orange.png,q,7,3,31,2,1,w,left_blue.png,left_orange.png,q,left,60febf9b481b65a36fd8a083,001,2021-08-01_13h28.47.676,arrow_simon_norep,2021.1.2,MacIntel,60.45949214,,,,,,,,,,,,,,,,,,,,,,,,,,,,,,,,,,,,,,
,,,w,1,0.852,0,0.14824997,#a3d0fb,,left_blue.png,w,8,0,32,2,1,w,left_blue.png,left_orange.png,q,left,60febf9b481b65a36fd8a083,001,2021-08-01_13h28.47.676,arrow_simon_norep,2021.1.2,MacIntel,60.45949214,,,,,,,,,,,,,,,,,,,,,,,,,,,,,,,,,,,,,,
,,,q,1,1.821,0,0.828918564,#f3af84,,left_orange.png,q,8,1,33,2,1,w,left_blue.png,left_orange.png,q,left,60febf9b481b65a36fd8a083,001,2021-08-01_13h28.47.676,arrow_simon_norep,2021.1.2,MacIntel,60.45949214,,,,,,,,,,,,,,,,,,,,,,,,,,,,,,,,,,,,,,
,,,w,1,0.703,0,0.073459716,#a3d0fb,,left_blue.png,w,8,2,34,2,1,w,left_blue.png,left_orange.png,q,left,60febf9b481b65a36fd8a083,001,2021-08-01_13h28.47.676,arrow_simon_norep,2021.1.2,MacIntel,60.45949214,,,,,,,,,,,,,,,,,,,,,,,,,,,,,,,,,,,,,,
,,,p,1,1.005,0,0.6288362,#f3af84,,right_orange.png,p,8,3,35,1,1,o,right_blue.png,right_orange.png,p,right,60febf9b481b65a36fd8a083,001,2021-08-01_13h28.47.676,arrow_simon_norep,2021.1.2,MacIntel,60.45949214,,,,,,,,,,,,,,,,,,,,,,,,,,,,,,,,,,,,,,
,,,w,1,1.591,0,0.876944642,#a3d0fb,,left_blue.png,w,9,0,36,3,1,w,left_blue.png,left_orange.png,q,right,60febf9b481b65a36fd8a083,001,2021-08-01_13h28.47.676,arrow_simon_norep,2021.1.2,MacIntel,60.45949214,,,,,,,,,,,,,,,,,,,,,,,,,,,,,,,,,,,,,,
,,,p,1,0.986,0,0.54208859,#f3af84,,right_orange.png,p,9,1,37,1,1,o,right_blue.png,right_orange.png,p,right,60febf9b481b65a36fd8a083,001,2021-08-01_13h28.47.676,arrow_simon_norep,2021.1.2,MacIntel,60.45949214,,,,,,,,,,,,,,,,,,,,,,,,,,,,,,,,,,,,,,
,,,p,0,0.885,1,0.498207933,#a3d0fb,,right_blue.png,o,9,2,38,1,1,o,right_blue.png,right_orange.png,p,right,60febf9b481b65a36fd8a083,001,2021-08-01_13h28.47.676,arrow_simon_norep,2021.1.2,MacIntel,60.45949214,,,,,,,,,,,,,,,,,,,,,,,,,,,,,,,,,,,,,,
,,,p,1,1.2,0,0.809040024,#f3af84,,right_orange.png,p,9,3,39,1,1,o,right_blue.png,right_orange.png,p,right,60febf9b481b65a36fd8a083,001,2021-08-01_13h28.47.676,arrow_simon_norep,2021.1.2,MacIntel,60.45949214,,,,,,,,,,,,,,,,,,,,,,,,,,,,,,,,,,,,,,
,,,o,1,1.172,0,0.781025097,#a3d0fb,,right_blue.png,o,10,0,40,1,1,o,right_blue.png,right_orange.png,p,right,60febf9b481b65a36fd8a083,001,2021-08-01_13h28.47.676,arrow_simon_norep,2021.1.2,MacIntel,60.45949214,,,,,,,,,,,,,,,,,,,,,,,,,,,,,,,,,,,,,,
,,,q,1,1.691,0,0.846332979,#f3af84,,left_orange.png,q,10,1,41,3,1,w,left_blue.png,left_orange.png,q,right,60febf9b481b65a36fd8a083,001,2021-08-01_13h28.47.676,arrow_simon_norep,2021.1.2,MacIntel,60.45949214,,,,,,,,,,,,,,,,,,,,,,,,,,,,,,,,,,,,,,
,,,o,1,0.988,0,0.105799077,#a3d0fb,,right_blue.png,o,10,2,42,0,1,o,right_blue.png,right_orange.png,p,left,60febf9b481b65a36fd8a083,001,2021-08-01_13h28.47.676,arrow_simon_norep,2021.1.2,MacIntel,60.45949214,,,,,,,,,,,,,,,,,,,,,,,,,,,,,,,,,,,,,,
,,,q,1,1.004,0,0.056185832,#f3af84,,left_orange.png,q,10,3,43,2,1,w,left_blue.png,left_orange.png,q,left,60febf9b481b65a36fd8a083,001,2021-08-01_13h28.47.676,arrow_simon_norep,2021.1.2,MacIntel,60.45949214,,,,,,,,,,,,,,,,,,,,,,,,,,,,,,,,,,,,,,
,,,o,1,1.058,0,0.160899916,#a3d0fb,,right_blue.png,o,11,0,44,0,1,o,right_blue.png,right_orange.png,p,left,60febf9b481b65a36fd8a083,001,2021-08-01_13h28.47.676,arrow_simon_norep,2021.1.2,MacIntel,60.45949214,,,,,,,,,,,,,,,,,,,,,,,,,,,,,,,,,,,,,,
,,,q,1,1.268,0,0.54353197,#f3af84,,left_orange.png,q,11,1,45,3,1,w,left_blue.png,left_orange.png,q,right,60febf9b481b65a36fd8a083,001,2021-08-01_13h28.47.676,arrow_simon_norep,2021.1.2,MacIntel,60.45949214,,,,,,,,,,,,,,,,,,,,,,,,,,,,,,,,,,,,,,
,,,o,1,1.59,0,0.929171966,#a3d0fb,,right_blue.png,o,11,2,46,0,1,o,right_blue.png,right_orange.png,p,left,60febf9b481b65a36fd8a083,001,2021-08-01_13h28.47.676,arrow_simon_norep,2021.1.2,MacIntel,60.45949214,,,,,,,,,,,,,,,,,,,,,,,,,,,,,,,,,,,,,,
,,,p,1,1.419,0,0.825808598,#f3af84,,right_orange.png,p,11,3,47,1,1,o,right_blue.png,right_orange.png,p,right,60febf9b481b65a36fd8a083,001,2021-08-01_13h28.47.676,arrow_simon_norep,2021.1.2,MacIntel,60.45949214,,,,,,,,,,,,,,,,,,,,,,,,,,,,,,,,,,,,,,
,,,w,1,1.287,0,0.05945539,#a3d0fb,,left_blue.png,w,12,0,48,2,1,w,left_blue.png,left_orange.png,q,left,60febf9b481b65a36fd8a083,001,2021-08-01_13h28.47.676,arrow_simon_norep,2021.1.2,MacIntel,60.45949214,,,,,,,,,,,,,,,,,,,,,,,,,,,,,,,,,,,,,,
,,,p,1,0.836,0,0.449798191,#f3af84,,right_orange.png,p,12,1,49,1,1,o,right_blue.png,right_orange.png,p,right,60febf9b481b65a36fd8a083,001,2021-08-01_13h28.47.676,arrow_simon_norep,2021.1.2,MacIntel,60.45949214,,,,,,,,,,,,,,,,,,,,,,,,,,,,,,,,,,,,,,
,,,w,1,0.869,0,0.138179499,#a3d0fb,,left_blue.png,w,12,2,50,3,1,w,left_blue.png,left_orange.png,q,right,60febf9b481b65a36fd8a083,001,2021-08-01_13h28.47.676,arrow_simon_norep,2021.1.2,MacIntel,60.45949214,,,,,,,,,,,,,,,,,,,,,,,,,,,,,,,,,,,,,,
,,,q,1,1.335,0,0.700599219,#f3af84,,left_orange.png,q,12,3,51,2,1,w,left_blue.png,left_orange.png,q,left,60febf9b481b65a36fd8a083,001,2021-08-01_13h28.47.676,arrow_simon_norep,2021.1.2,MacIntel,60.45949214,,,,,,,,,,,,,,,,,,,,,,,,,,,,,,,,,,,,,,
,,,w,1,1.92,0,0.964639742,#a3d0fb,,left_blue.png,w,13,0,52,3,1,w,left_blue.png,left_orange.png,q,right,60febf9b481b65a36fd8a083,001,2021-08-01_13h28.47.676,arrow_simon_norep,2021.1.2,MacIntel,60.45949214,,,,,,,,,,,,,,,,,,,,,,,,,,,,,,,,,,,,,,
,,,p,1,0.671,0,0.101080111,#f3af84,,right_orange.png,p,13,1,53,1,1,o,right_blue.png,right_orange.png,p,right,60febf9b481b65a36fd8a083,001,2021-08-01_13h28.47.676,arrow_simon_norep,2021.1.2,MacIntel,60.45949214,,,,,,,,,,,,,,,,,,,,,,,,,,,,,,,,,,,,,,
,,,o,1,1.105,0,0.588582038,#a3d0fb,,right_blue.png,o,13,2,54,1,1,o,right_blue.png,right_orange.png,p,right,60febf9b481b65a36fd8a083,001,2021-08-01_13h28.47.676,arrow_simon_norep,2021.1.2,MacIntel,60.45949214,,,,,,,,,,,,,,,,,,,,,,,,,,,,,,,,,,,,,,
,,,q,1,1.251,0,0.492765543,#f3af84,,left_orange.png,q,13,3,55,3,1,w,left_blue.png,left_orange.png,q,right,60febf9b481b65a36fd8a083,001,2021-08-01_13h28.47.676,arrow_simon_norep,2021.1.2,MacIntel,60.45949214,,,,,,,,,,,,,,,,,,,,,,,,,,,,,,,,,,,,,,
,,,w,1,0.905,0,0.045793727,#a3d0fb,,left_blue.png,w,14,0,56,3,1,w,left_blue.png,left_orange.png,q,right,60febf9b481b65a36fd8a083,001,2021-08-01_13h28.47.676,arrow_simon_norep,2021.1.2,MacIntel,60.45949214,,,,,,,,,,,,,,,,,,,,,,,,,,,,,,,,,,,,,,
,,,o,0,1.123,1,0.620513398,#f3af84,,right_orange.png,p,14,1,57,0,1,o,right_blue.png,right_orange.png,p,left,60febf9b481b65a36fd8a083,001,2021-08-01_13h28.47.676,arrow_simon_norep,2021.1.2,MacIntel,60.45949214,,,,,,,,,,,,,,,,,,,,,,,,,,,,,,,,,,,,,,
,,,o,1,1.223,0,0.194824108,#a3d0fb,,right_blue.png,o,14,2,58,0,1,o,right_blue.png,right_orange.png,p,left,60febf9b481b65a36fd8a083,001,2021-08-01_13h28.47.676,arrow_simon_norep,2021.1.2,MacIntel,60.45949214,,,,,,,,,,,,,,,,,,,,,,,,,,,,,,,,,,,,,,
,,,q,1,1.053,0,0.434258841,#f3af84,,left_orange.png,q,14,3,59,3,1,w,left_blue.png,left_orange.png,q,right,60febf9b481b65a36fd8a083,001,2021-08-01_13h28.47.676,arrow_simon_norep,2021.1.2,MacIntel,60.45949214,,,,,,,,,,,,,,,,,,,,,,,,,,,,,,,,,,,,,,
,,,,,,,,,,,,,,,,,,,,,,60febf9b481b65a36fd8a083,001,2021-08-01_13h28.47.676,arrow_simon_norep,2021.1.2,MacIntel,60.45949214,space,2.134,1,0,1,0,1,,,,,,,,,,,,,,,,,,,,,,,,,,,,,,,
,,,,,,,,,,,,,,,,,,,,,,60febf9b481b65a36fd8a083,001,2021-08-01_13h28.47.676,arrow_simon_norep,2021.1.2,MacIntel,60.45949214,,,,,,,,space,0,43.789,o,1.586,0,0,0,0,1,,,,,,,,,,,,,,,,,,,,,
,,,,,,,,,,,,,,,,,,,,,,60febf9b481b65a36fd8a083,001,2021-08-01_13h28.47.676,arrow_simon_norep,2021.1.2,MacIntel,60.45949214,,,,,,,,,,,p,2.77,1,0,1,0,1,,,,,,,,,,,,,,,,,,,,,
,,,,,,,,,,,,,,,,,,,,,,60febf9b481b65a36fd8a083,001,2021-08-01_13h28.47.676,arrow_simon_norep,2021.1.2,MacIntel,60.45949214,,,,,,,,,,,o,2.584,2,0,2,0,1,,,,,,,,,,,,,,,,,,,,,
,,,,,,,,,,,,,,,,,,,,,,60febf9b481b65a36fd8a083,001,2021-08-01_13h28.47.676,arrow_simon_norep,2021.1.2,MacIntel,60.45949214,,,,,,,,,,,p,2.454,3,0,3,0,1,,,,,,,,,,,,,,,,,,,,,
,,,,,,,,,,,,,,,,,,,,,,60febf9b481b65a36fd8a083,001,2021-08-01_13h28.47.676,arrow_simon_norep,2021.1.2,MacIntel,60.45949214,,,,,,,,,,,o,2.42,4,0,4,0,1,,,,,,,,,,,,,,,,,,,,,
,,,,,,,,,,,,,,,,,,,,,,60febf9b481b65a36fd8a083,001,2021-08-01_13h28.47.676,arrow_simon_norep,2021.1.2,MacIntel,60.45949214,,,,,,,,,,,p,2.435,5,0,5,0,1,,,,,,,,,,,,,,,,,,,,,
,,,,,,,,,,,,,,,,,,,,,,60febf9b481b65a36fd8a083,001,2021-08-01_13h28.47.676,arrow_simon_norep,2021.1.2,MacIntel,60.45949214,,,,,,,,,,,w,2.389,6,0,6,0,1,,,,,,,,,,,,,,,,,,,,,
,,,,,,,,,,,,,,,,,,,,,,60febf9b481b65a36fd8a083,001,2021-08-01_13h28.47.676,arrow_simon_norep,2021.1.2,MacIntel,60.45949214,,,,,,,,,,,q,2.351,7,0,7,0,1,,,,,,,,,,,,,,,,,,,,,
,,,,,,,,,,,,,,,,,,,,,,60febf9b481b65a36fd8a083,001,2021-08-01_13h28.47.676,arrow_simon_norep,2021.1.2,MacIntel,60.45949214,,,,,,,,,,,o,2.389,8,0,8,0,1,,,,,,,,,,,,,,,,,,,,,
,,,,,,,,,,,,,,,,,,,,,,60febf9b481b65a36fd8a083,001,2021-08-01_13h28.47.676,arrow_simon_norep,2021.1.2,MacIntel,60.45949214,,,,,,,,,,,p,2.394,9,0,9,0,1,,,,,,,,,,,,,,,,,,,,,
,,,,,,,,,,,,,,,,,,,,,,60febf9b481b65a36fd8a083,001,2021-08-01_13h28.47.676,arrow_simon_norep,2021.1.2,MacIntel,60.45949214,,,,,,,,,,,o,2.534,10,0,10,0,1,,,,,,,,,,,,,,,,,,,,,
,,,,,,,,,,,,,,,,,,,,,,60febf9b481b65a36fd8a083,001,2021-08-01_13h28.47.676,arrow_simon_norep,2021.1.2,MacIntel,60.45949214,,,,,,,,,,,p,2.522,11,0,11,0,1,,,,,,,,,,,,,,,,,,,,,
,,,,,,,,,,,,,,,,,,,,,,60febf9b481b65a36fd8a083,001,2021-08-01_13h28.47.676,arrow_simon_norep,2021.1.2,MacIntel,60.45949214,,,,,,,,,,,o,2.585,12,0,12,0,1,,,,,,,,,,,,,,,,,,,,,
,,,,,,,,,,,,,,,,,,,,,,60febf9b481b65a36fd8a083,001,2021-08-01_13h28.47.676,arrow_simon_norep,2021.1.2,MacIntel,60.45949214,,,,,,,,,,,p,2.555,13,0,13,0,1,,,,,,,,,,,,,,,,,,,,,
,,,,,,,,,,,,,,,,,,,,,,60febf9b481b65a36fd8a083,001,2021-08-01_13h28.47.676,arrow_simon_norep,2021.1.2,MacIntel,60.45949214,,,,,,,,,,,w,2.541,14,0,14,0,1,,,,,,,,,,,,,,,,,,,,,
,,,,,,,,,,,,,,,,,,,,,,60febf9b481b65a36fd8a083,001,2021-08-01_13h28.47.676,arrow_simon_norep,2021.1.2,MacIntel,60.45949214,,,,,,,,,,,q,2.535,15,0,15,0,1,,,,,,,,,,,,,,,,,,,,,
,,,,,,,,,,,,,,,,,,,,,,60febf9b481b65a36fd8a083,001,2021-08-01_13h28.47.676,arrow_simon_norep,2021.1.2,MacIntel,60.45949214,,,,,,,,,,,o,2.401,16,0,16,0,1,,,,,,,,,,,,,,,,,,,,,
,,,,,,,,,,,,,,,,,,,,,,60febf9b481b65a36fd8a083,001,2021-08-01_13h28.47.676,arrow_simon_norep,2021.1.2,MacIntel,60.45949214,,,,,,,,,,,p,2.539,17,0,17,0,1,,,,,,,,,,,,,,,,,,,,,
,,,,,,,,,,,,,,,,,,,,,,60febf9b481b65a36fd8a083,001,2021-08-01_13h28.47.676,arrow_simon_norep,2021.1.2,MacIntel,60.45949214,,,,,,,,,,,o,2.576,18,0,18,0,1,,,,,,,,,,,,,,,,,,,,,
,,,,,,,,,,,,,,,,,,,,,,60febf9b481b65a36fd8a083,001,2021-08-01_13h28.47.676,arrow_simon_norep,2021.1.2,MacIntel,60.45949214,,,,,,,,,,,p,2.184,19,0,19,0,1,,,,,,,,,,,,,,,,,,,,,
,,,,,,,,,,,,,,,,,,,,,,60febf9b481b65a36fd8a083,001,2021-08-01_13h28.47.676,arrow_simon_norep,2021.1.2,MacIntel,60.45949214,,,,,,,,,,,o,2.536,20,0,20,0,1,,,,,,,,,,,,,,,,,,,,,
,,,,,,,,,,,,,,,,,,,,,,60febf9b481b65a36fd8a083,001,2021-08-01_13h28.47.676,arrow_simon_norep,2021.1.2,MacIntel,60.45949214,,,,,,,,,,,p,2.572,21,0,21,0,1,,,,,,,,,,,,,,,,,,,,,
,,,,,,,,,,,,,,,,,,,,,,60febf9b481b65a36fd8a083,001,2021-08-01_13h28.47.676,arrow_simon_norep,2021.1.2,MacIntel,60.45949214,,,,,,,,,,,o,2.538,22,0,22,0,1,,,,,,,,,,,,,,,,,,,,,
,,,,,,,,,,,,,,,,,,,,,,60febf9b481b65a36fd8a083,001,2021-08-01_13h28.47.676,arrow_simon_norep,2021.1.2,MacIntel,60.45949214,,,,,,,,,,,p,2.518,23,0,23,0,1,,,,,,,,,,,,,,,,,,,,,
,,,,,,,,,,,,,,,,,,,,,,60febf9b481b65a36fd8a083,001,2021-08-01_13h28.47.676,arrow_simon_norep,2021.1.2,MacIntel,60.45949214,,,,,,,,,,,o,2.569,24,0,24,0,1,,,,,,,,,,,,,,,,,,,,,
,,,,,,,,,,,,,,,,,,,,,,60febf9b481b65a36fd8a083,001,2021-08-01_13h28.47.676,arrow_simon_norep,2021.1.2,MacIntel,60.45949214,,,,,,,,,,,p,2.508,25,0,25,0,1,,,,,,,,,,,,,,,,,,,,,
,,,,,,,,,,,,,,,,,,,,,,60febf9b481b65a36fd8a083,001,2021-08-01_13h28.47.676,arrow_simon_norep,2021.1.2,MacIntel,60.45949214,,,,,,,,,,,o,2.456,26,0,26,0,1,,,,,,,,,,,,,,,,,,,,,
,,,,,,,,,,,,,,,,,,,,,,60febf9b481b65a36fd8a083,001,2021-08-01_13h28.47.676,arrow_simon_norep,2021.1.2,MacIntel,60.45949214,,,,,,,,,,,w,2.551,27,0,27,0,1,,,,,,,,,,,,,,,,,,,,,
,,,,,,,,,,,,,,,,,,,,,,60febf9b481b65a36fd8a083,001,2021-08-01_13h28.47.676,arrow_simon_norep,2021.1.2,MacIntel,60.45949214,,,,,,,,,,,w,2.419,28,0,28,0,1,,,,,,,,,,,,,,,,,,,,,
,,,,,,,,,,,,,,,,,,,,,,60febf9b481b65a36fd8a083,001,2021-08-01_13h28.47.676,arrow_simon_norep,2021.1.2,MacIntel,60.45949214,,,,,,,,,,,q,2.419,29,0,29,0,1,,,,,,,,,,,,,,,,,,,,,
,,,,,,,,,,,,,,,,,,,,,,60febf9b481b65a36fd8a083,001,2021-08-01_13h28.47.676,arrow_simon_norep,2021.1.2,MacIntel,60.45949214,,,,,,,,,,,o,2.422,30,0,30,0,1,,,,,,,,,,,,,,,,,,,,,
,,,,,,,,,,,,,,,,,,,,,,60febf9b481b65a36fd8a083,001,2021-08-01_13h28.47.676,arrow_simon_norep,2021.1.2,MacIntel,60.45949214,,,,,,,,,,,p,2.586,31,0,31,0,1,,,,,,,,,,,,,,,,,,,,,
,,,,,,,,,,,,,,,,,,,,,,60febf9b481b65a36fd8a083,001,2021-08-01_13h28.47.676,arrow_simon_norep,2021.1.2,MacIntel,60.45949214,,,,,,,,,,,o,2.487,32,0,32,0,1,,,,,,,,,,,,,,,,,,,,,
,,,,,,,,,,,,,,,,,,,,,,60febf9b481b65a36fd8a083,001,2021-08-01_13h28.47.676,arrow_simon_norep,2021.1.2,MacIntel,60.45949214,,,,,,,,,,,p,2.455,33,0,33,0,1,,,,,,,,,,,,,,,,,,,,,
,,,,,,,,,,,,,,,,,,,,,,60febf9b481b65a36fd8a083,001,2021-08-01_13h28.47.676,arrow_simon_norep,2021.1.2,MacIntel,60.45949214,,,,,,,,,,,o,2.418,34,0,34,0,1,,,,,,,,,,,,,,,,,,,,,
,,,,,,,,,,,,,,,,,,,,,,60febf9b481b65a36fd8a083,001,2021-08-01_13h28.47.676,arrow_simon_norep,2021.1.2,MacIntel,60.45949214,,,,,,,,,,,q,2.501,35,0,35,0,1,,,,,,,,,,,,,,,,,,,,,
,,,,,,,,,,,,,,,,,,,,,,60febf9b481b65a36fd8a083,001,2021-08-01_13h28.47.676,arrow_simon_norep,2021.1.2,MacIntel,60.45949214,,,,,,,,,,,w,2.571,36,0,36,0,1,,,,,,,,,,,,,,,,,,,,,
,,,,,,,,,,,,,,,,,,,,,,60febf9b481b65a36fd8a083,001,2021-08-01_13h28.47.676,arrow_simon_norep,2021.1.2,MacIntel,60.45949214,,,,,,,,,,,p,2.469,37,0,37,0,1,,,,,,,,,,,,,,,,,,,,,
,,,,,,,,,,,,,,,,,,,,,,60febf9b481b65a36fd8a083,001,2021-08-01_13h28.47.676,arrow_simon_norep,2021.1.2,MacIntel,60.45949214,,,,,,,,,,,w,2.371,38,0,38,0,1,,,,,,,,,,,,,,,,,,,,,
,,,,,,,,,,,,,,,,,,,,,,60febf9b481b65a36fd8a083,001,2021-08-01_13h28.47.676,arrow_simon_norep,2021.1.2,MacIntel,60.45949214,,,,,,,,,,,p,2.356,39,0,39,0,1,,,,,,,,,,,,,,,,,,,,,
,,,,,,,,,,,,,,,,,,,,,,60febf9b481b65a36fd8a083,001,2021-08-01_13h28.47.676,arrow_simon_norep,2021.1.2,MacIntel,60.45949214,,,,,,,,,,,o,2.338,40,0,40,0,1,,,,,,,,,,,,,,,,,,,,,
,,,,,,,,,,,,,,,,,,,,,,60febf9b481b65a36fd8a083,001,2021-08-01_13h28.47.676,arrow_simon_norep,2021.1.2,MacIntel,60.45949214,,,,,,,,,,,p,2.458,41,0,41,0,1,,,,,,,,,,,,,,,,,,,,,
,,,,,,,,,,,,,,,,,,,,,,60febf9b481b65a36fd8a083,001,2021-08-01_13h28.47.676,arrow_simon_norep,2021.1.2,MacIntel,60.45949214,,,,,,,,,,,o,2.536,42,0,42,0,1,,,,,,,,,,,,,,,,,,,,,
,,,,,,,,,,,,,,,,,,,,,,60febf9b481b65a36fd8a083,001,2021-08-01_13h28.47.676,arrow_simon_norep,2021.1.2,MacIntel,60.45949214,,,,,,,,,,,q,2.519,43,0,43,0,1,,,,,,,,,,,,,,,,,,,,,
,,,,,,,,,,,,,,,,,,,,,,60febf9b481b65a36fd8a083,001,2021-08-01_13h28.47.676,arrow_simon_norep,2021.1.2,MacIntel,60.45949214,,,,,,,,,,,w,2.406,44,0,44,0,1,,,,,,,,,,,,,,,,,,,,,
,,,,,,,,,,,,,,,,,,,,,,60febf9b481b65a36fd8a083,001,2021-08-01_13h28.47.676,arrow_simon_norep,2021.1.2,MacIntel,60.45949214,,,,,,,,,,,p,2.458,45,0,45,0,1,,,,,,,,,,,,,,,,,,,,,
,,,,,,,,,,,,,,,,,,,,,,60febf9b481b65a36fd8a083,001,2021-08-01_13h28.47.676,arrow_simon_norep,2021.1.2,MacIntel,60.45949214,,,,,,,,,,,o,2.551,46,0,46,0,1,,,,,,,,,,,,,,,,,,,,,
,,,,,,,,,,,,,,,,,,,,,,60febf9b481b65a36fd8a083,001,2021-08-01_13h28.47.676,arrow_simon_norep,2021.1.2,MacIntel,60.45949214,,,,,,,,,,,p,2.491,47,0,47,0,1,,,,,,,,,,,,,,,,,,,,,
,,,,,,,,,,,,,,,,,,,,,,60febf9b481b65a36fd8a083,001,2021-08-01_13h28.47.676,arrow_simon_norep,2021.1.2,MacIntel,60.45949214,,,,,,,,,,,o,2.456,48,0,48,0,1,,,,,,,,,,,,,,,,,,,,,
,,,,,,,,,,,,,,,,,,,,,,60febf9b481b65a36fd8a083,001,2021-08-01_13h28.47.676,arrow_simon_norep,2021.1.2,MacIntel,60.45949214,,,,,,,,,,,p,2.535,49,0,49,0,1,,,,,,,,,,,,,,,,,,,,,
,,,,,,,,,,,,,,,,,,,,,,60febf9b481b65a36fd8a083,001,2021-08-01_13h28.47.676,arrow_simon_norep,2021.1.2,MacIntel,60.45949214,,,,,,,,,,,o,2.506,50,0,50,0,1,,,,,,,,,,,,,,,,,,,,,
,,,,,,,,,,,,,,,,,,,,,,60febf9b481b65a36fd8a083,001,2021-08-01_13h28.47.676,arrow_simon_norep,2021.1.2,MacIntel,60.45949214,,,,,,,,,,,p,2.505,51,0,51,0,1,,,,,,,,,,,,,,,,,,,,,
,,,,,,,,,,,,,,,,,,,,,,60febf9b481b65a36fd8a083,001,2021-08-01_13h28.47.676,arrow_simon_norep,2021.1.2,MacIntel,60.45949214,,,,,,,,,,,o,2.419,52,0,52,0,1,,,,,,,,,,,,,,,,,,,,,
,,,,,,,,,,,,,,,,,,,,,,60febf9b481b65a36fd8a083,001,2021-08-01_13h28.47.676,arrow_simon_norep,2021.1.2,MacIntel,60.45949214,,,,,,,,,,,p,2.502,53,0,53,0,1,,,,,,,,,,,,,,,,,,,,,
,,,,,,,,,,,,,,,,,,,,,,60febf9b481b65a36fd8a083,001,2021-08-01_13h28.47.676,arrow_simon_norep,2021.1.2,MacIntel,60.45949214,,,,,,,,,,,o,2.485,54,0,54,0,1,,,,,,,,,,,,,,,,,,,,,
,,,,,,,,,,,,,,,,,,,,,,60febf9b481b65a36fd8a083,001,2021-08-01_13h28.47.676,arrow_simon_norep,2021.1.2,MacIntel,60.45949214,,,,,,,,,,,p,2.541,55,0,55,0,1,,,,,,,,,,,,,,,,,,,,,
,,,,,,,,,,,,,,,,,,,,,,60febf9b481b65a36fd8a083,001,2021-08-01_13h28.47.676,arrow_simon_norep,2021.1.2,MacIntel,60.45949214,,,,,,,,,,,o,2.552,56,0,56,0,1,,,,,,,,,,,,,,,,,,,,,
,,,,,,,,,,,,,,,,,,,,,,60febf9b481b65a36fd8a083,001,2021-08-01_13h28.47.676,arrow_simon_norep,2021.1.2,MacIntel,60.45949214,,,,,,,,,,,q,2.453,57,0,57,0,1,,,,,,,,,,,,,,,,,,,,,
,,,,,,,,,,,,,,,,,,,,,,60febf9b481b65a36fd8a083,001,2021-08-01_13h28.47.676,arrow_simon_norep,2021.1.2,MacIntel,60.45949214,,,,,,,,,,,w,2.523,58,0,58,0,1,,,,,,,,,,,,,,,,,,,,,
,,,,,,,,,,,,,,,,,,,,,,60febf9b481b65a36fd8a083,001,2021-08-01_13h28.47.676,arrow_simon_norep,2021.1.2,MacIntel,60.45949214,,,,,,,,,,,p,2.454,59,0,59,0,1,,,,,,,,,,,,,,,,,,,,,
,,,,,,0,1.893829437,#a3d0fb,,left_blue.png,w,,,,,,w,left_blue.png,left_orange.png,q,right,60febf9b481b65a36fd8a083,001,2021-08-01_13h28.47.676,arrow_simon_norep,2021.1.2,MacIntel,60.45949214,,,,,,,,,,,,,,,,,,space,0,34.944,w,1,1.537,1,FALSE,FALSE,0,0,0,3,1,,,,,,,
,,,,,,0,1.81541076,#f3af84,,left_orange.png,q,,,,,,w,left_blue.png,left_orange.png,q,left,60febf9b481b65a36fd8a083,001,2021-08-01_13h28.47.676,arrow_simon_norep,2021.1.2,MacIntel,60.45949214,,,,,,,,,,,,,,,,,,,,,o,0,1.274,2,FALSE,TRUE,0,1,1,2,1,,,,,,,
,,,,,,0,1.547976575,#a3d0fb,,right_blue.png,o,,,,,,o,right_blue.png,right_orange.png,p,left,60febf9b481b65a36fd8a083,001,2021-08-01_13h28.47.676,arrow_simon_norep,2021.1.2,MacIntel,60.45949214,,,,,,,,,,,,,,,,,,,,,o,1,1.753,3,TRUE,FALSE,0,2,2,0,1,,,,,,,
,,,,,,0,2.444202049,#f3af84,,left_orange.png,q,,,,,,w,left_blue.png,left_orange.png,q,left,60febf9b481b65a36fd8a083,001,2021-08-01_13h28.47.676,arrow_simon_norep,2021.1.2,MacIntel,60.45949214,,,,,,,,,,,,,,,,,,,,,q,1,1.769,4,TRUE,FALSE,0,3,3,2,1,,,,,,,
,,,,,,0,1.65256362,#a3d0fb,,left_blue.png,w,,,,,,w,left_blue.png,left_orange.png,q,left,60febf9b481b65a36fd8a083,001,2021-08-01_13h28.47.676,arrow_simon_norep,2021.1.2,MacIntel,60.45949214,,,,,,,,,,,,,,,,,,,,,w,1,1.387,5,FALSE,TRUE,1,0,4,2,1,,,,,,,
,,,,,,0,2.442636314,#f3af84,,left_orange.png,q,,,,,,w,left_blue.png,left_orange.png,q,left,60febf9b481b65a36fd8a083,001,2021-08-01_13h28.47.676,arrow_simon_norep,2021.1.2,MacIntel,60.45949214,,,,,,,,,,,,,,,,,,,,,q,1,1.788,6,TRUE,FALSE,1,1,5,2,1,,,,,,,
,,,,,,0,2.174647484,#a3d0fb,,right_blue.png,o,,,,,,o,right_blue.png,right_orange.png,p,right,60febf9b481b65a36fd8a083,001,2021-08-01_13h28.47.676,arrow_simon_norep,2021.1.2,MacIntel,60.45949214,,,,,,,,,,,,,,,,,,,,,o,1,1.555,7,FALSE,FALSE,1,2,6,1,1,,,,,,,
,,,,,,0,2.362717003,#f3af84,,left_orange.png,q,,,,,,w,left_blue.png,left_orange.png,q,left,60febf9b481b65a36fd8a083,001,2021-08-01_13h28.47.676,arrow_simon_norep,2021.1.2,MacIntel,60.45949214,,,,,,,,,,,,,,,,,,,,,q,1,1.654,8,TRUE,FALSE,1,3,7,2,1,,,,,,,
,,,,,,0,2.263234822,#a3d0fb,,right_blue.png,o,,,,,,o,right_blue.png,right_orange.png,p,right,60febf9b481b65a36fd8a083,001,2021-08-01_13h28.47.676,arrow_simon_norep,2021.1.2,MacIntel,60.45949214,,,,,,,,,,,,,,,,,,,,,o,1,1.541,9,FALSE,FALSE,2,0,8,1,1,,,,,,,
,,,,,,0,1.62787364,#f3af84,,left_orange.png,q,,,,,,w,left_blue.png,left_orange.png,q,left,60febf9b481b65a36fd8a083,001,2021-08-01_13h28.47.676,arrow_simon_norep,2021.1.2,MacIntel,60.45949214,,,,,,,,,,,,,,,,,,,,,q,1,1.539,10,FALSE,FALSE,2,1,9,2,1,,,,,,,
,,,,,,0,1.650646068,#a3d0fb,,left_blue.png,w,,,,,,w,left_blue.png,left_orange.png,q,left,60febf9b481b65a36fd8a083,001,2021-08-01_13h28.47.676,arrow_simon_norep,2021.1.2,MacIntel,60.45949214,,,,,,,,,,,,,,,,,,,,,w,1,1.32,11,FALSE,TRUE,2,2,10,2,1,,,,,,,
,,,,,,1,1.673392399,#f3af84,,left_orange.png,q,,,,,,w,left_blue.png,left_orange.png,q,left,60febf9b481b65a36fd8a083,001,2021-08-01_13h28.47.676,arrow_simon_norep,2021.1.2,MacIntel,60.45949214,,,,,,,,,,,,,,,,,,,,,w,0,1.52,12,FALSE,FALSE,2,3,11,2,1,,,,,,,
,,,,,,1,1.94684219,#a3d0fb,,left_blue.png,w,,,,,,w,left_blue.png,left_orange.png,q,left,60febf9b481b65a36fd8a083,001,2021-08-01_13h28.47.676,arrow_simon_norep,2021.1.2,MacIntel,60.45949214,,,,,,,,,,,,,,,,,,,,,q,0,1.622,13,TRUE,FALSE,3,0,12,2,1,,,,,,,
,,,,,,0,2.091679871,#f3af84,,right_orange.png,p,,,,,,o,right_blue.png,right_orange.png,p,left,60febf9b481b65a36fd8a083,001,2021-08-01_13h28.47.676,arrow_simon_norep,2021.1.2,MacIntel,60.45949214,,,,,,,,,,,,,,,,,,,,,p,1,1.54,14,FALSE,FALSE,3,1,13,0,1,,,,,,,
,,,,,,0,1.775919681,#a3d0fb,,left_blue.png,w,,,,,,w,left_blue.png,left_orange.png,q,right,60febf9b481b65a36fd8a083,001,2021-08-01_13h28.47.676,arrow_simon_norep,2021.1.2,MacIntel,60.45949214,,,,,,,,,,,,,,,,,,,,,w,1,1.513,15,FALSE,FALSE,3,2,14,3,1,,,,,,,
,,,,,,0,2.211268353,#f3af84,,right_orange.png,p,,,,,,o,right_blue.png,right_orange.png,p,right,60febf9b481b65a36fd8a083,001,2021-08-01_13h28.47.676,arrow_simon_norep,2021.1.2,MacIntel,60.45949214,,,,,,,,,,,,,,,,,,,,,p,1,1.57,16,FALSE,FALSE,3,3,15,1,1,,,,,,,
,,,,,,0,1.916707183,#a3d0fb,,right_blue.png,o,,,,,,o,right_blue.png,right_orange.png,p,left,60febf9b481b65a36fd8a083,001,2021-08-01_13h28.47.676,arrow_simon_norep,2021.1.2,MacIntel,60.45949214,,,,,,,,,,,,,,,,,,,,,o,1,1.526,17,FALSE,FALSE,4,0,16,0,1,,,,,,,
,,,,,,1,1.973954603,#f3af84,,left_orange.png,q,,,,,,w,left_blue.png,left_orange.png,q,right,60febf9b481b65a36fd8a083,001,2021-08-01_13h28.47.676,arrow_simon_norep,2021.1.2,MacIntel,60.45949214,,,,,,,,,,,,,,,,,,,,,w,0,1.543,18,FALSE,FALSE,4,1,17,3,1,,,,,,,
,,,,,,1,1.899299524,#a3d0fb,,right_blue.png,o,,,,,,o,right_blue.png,right_orange.png,p,right,60febf9b481b65a36fd8a083,001,2021-08-01_13h28.47.676,arrow_simon_norep,2021.1.2,MacIntel,60.45949214,,,,,,,,,,,,,,,,,,,,,p,0,1.624,19,TRUE,FALSE,4,2,18,1,1,,,,,,,
,,,,,,1,2.446596758,#f3af84,,right_orange.png,p,,,,,,o,right_blue.png,right_orange.png,p,right,60febf9b481b65a36fd8a083,001,2021-08-01_13h28.47.676,arrow_simon_norep,2021.1.2,MacIntel,60.45949214,,,,,,,,,,,,,,,,,,,,,p,1,1.625,20,TRUE,FALSE,4,3,19,1,1,,,,,,,
,,,,,,1,2.164232579,#a3d0fb,,right_blue.png,o,,,,,,o,right_blue.png,right_orange.png,p,left,60febf9b481b65a36fd8a083,001,2021-08-01_13h28.47.676,arrow_simon_norep,2021.1.2,MacIntel,60.45949214,,,,,,,,,,,,,,,,,,,,,w,0,1.491,21,FALSE,FALSE,5,0,20,0,1,,,,,,,
,,,,,,1,1.62298699,#f3af84,,left_orange.png,q,,,,,,w,left_blue.png,left_orange.png,q,right,60febf9b481b65a36fd8a083,001,2021-08-01_13h28.47.676,arrow_simon_norep,2021.1.2,MacIntel,60.45949214,,,,,,,,,,,,,,,,,,,,,q,1,1.376,22,FALSE,TRUE,5,1,21,3,1,,,,,,,
,,,,,,0,1.943683333,#a3d0fb,,left_blue.png,w,,,,,,w,left_blue.png,left_orange.png,q,right,60febf9b481b65a36fd8a083,001,2021-08-01_13h28.47.676,arrow_simon_norep,2021.1.2,MacIntel,60.45949214,,,,,,,,,,,,,,,,,,,,,w,1,1.522,23,FALSE,FALSE,5,2,22,3,1,,,,,,,
,,,,,,0,1.611392537,#f3af84,,right_orange.png,p,,,,,,o,right_blue.png,right_orange.png,p,right,60febf9b481b65a36fd8a083,001,2021-08-01_13h28.47.676,arrow_simon_norep,2021.1.2,MacIntel,60.45949214,,,,,,,,,,,,,,,,,,,,,p,1,1.338,24,FALSE,TRUE,5,3,23,1,1,,,,,,,
,,,,,,0,2.48782294,#a3d0fb,,right_blue.png,o,,,,,,o,right_blue.png,right_orange.png,p,left,60febf9b481b65a36fd8a083,001,2021-08-01_13h28.47.676,arrow_simon_norep,2021.1.2,MacIntel,60.45949214,,,,,,,,,,,,,,,,,,,,,w,0,1.82,25,TRUE,FALSE,6,0,24,0,1,,,,,,,
,,,,,,0,1.85669629,#f3af84,,right_orange.png,p,,,,,,o,right_blue.png,right_orange.png,p,left,60febf9b481b65a36fd8a083,001,2021-08-01_13h28.47.676,arrow_simon_norep,2021.1.2,MacIntel,60.45949214,,,,,,,,,,,,,,,,,,,,,p,1,1.455,26,FALSE,FALSE,6,1,25,0,1,,,,,,,
,,,,,,1,2.22555179,#a3d0fb,,right_blue.png,o,,,,,,o,right_blue.png,right_orange.png,p,right,60febf9b481b65a36fd8a083,001,2021-08-01_13h28.47.676,arrow_simon_norep,2021.1.2,MacIntel,60.45949214,,,,,,,,,,,,,,,,,,,,,p,0,1.551,27,FALSE,FALSE,6,2,26,1,1,,,,,,,
,,,,,,1,1.786115261,#f3af84,,left_orange.png,q,,,,,,w,left_blue.png,left_orange.png,q,left,60febf9b481b65a36fd8a083,001,2021-08-01_13h28.47.676,arrow_simon_norep,2021.1.2,MacIntel,60.45949214,,,,,,,,,,,,,,,,,,,,,w,0,1.486,28,FALSE,FALSE,6,3,27,2,1,,,,,,,
,,,,,,1,2.348345653,#a3d0fb,,right_blue.png,o,,,,,,o,right_blue.png,right_orange.png,p,left,60febf9b481b65a36fd8a083,001,2021-08-01_13h28.47.676,arrow_simon_norep,2021.1.2,MacIntel,60.45949214,,,,,,,,,,,,,,,,,,,,,w,0,1.638,29,TRUE,FALSE,7,0,28,0,1,,,,,,,
,,,,,,0,1.645452001,#f3af84,,right_orange.png,p,,,,,,o,right_blue.png,right_orange.png,p,left,60febf9b481b65a36fd8a083,001,2021-08-01_13h28.47.676,arrow_simon_norep,2021.1.2,MacIntel,60.45949214,,,,,,,,,,,,,,,,,,,,,p,1,1.54,30,FALSE,FALSE,7,1,29,0,1,,,,,,,
,,,,,,0,2.129712135,#a3d0fb,,left_blue.png,w,,,,,,w,left_blue.png,left_orange.png,q,right,60febf9b481b65a36fd8a083,001,2021-08-01_13h28.47.676,arrow_simon_norep,2021.1.2,MacIntel,60.45949214,,,,,,,,,,,,,,,,,,,,,w,1,1.591,31,FALSE,FALSE,7,2,30,3,1,,,,,,,
,,,,,,0,2.011199606,#f3af84,,left_orange.png,q,,,,,,w,left_blue.png,left_orange.png,q,right,60febf9b481b65a36fd8a083,001,2021-08-01_13h28.47.676,arrow_simon_norep,2021.1.2,MacIntel,60.45949214,,,,,,,,,,,,,,,,,,,,,q,1,1.57,32,FALSE,FALSE,7,3,31,3,1,,,,,,,
,,,,,,0,1.704052543,#a3d0fb,,right_blue.png,o,,,,,,o,right_blue.png,right_orange.png,p,left,60febf9b481b65a36fd8a083,001,2021-08-01_13h28.47.676,arrow_simon_norep,2021.1.2,MacIntel,60.45949214,,,,,,,,,,,,,,,,,,,,,o,1,1.503,33,FALSE,FALSE,8,0,32,0,1,,,,,,,
,,,,,,0,1.610918392,#f3af84,,left_orange.png,q,,,,,,w,left_blue.png,left_orange.png,q,left,60febf9b481b65a36fd8a083,001,2021-08-01_13h28.47.676,arrow_simon_norep,2021.1.2,MacIntel,60.45949214,,,,,,,,,,,,,,,,,,,,,q,1,1.572,34,FALSE,FALSE,8,1,33,2,1,,,,,,,
,,,,,,1,2.121365233,#a3d0fb,,left_blue.png,w,,,,,,w,left_blue.png,left_orange.png,q,right,60febf9b481b65a36fd8a083,001,2021-08-01_13h28.47.676,arrow_simon_norep,2021.1.2,MacIntel,60.45949214,,,,,,,,,,,,,,,,,,,,,o,0,1.472,35,FALSE,FALSE,8,2,34,3,1,,,,,,,
,,,,,,0,1.513740631,#f3af84,,right_orange.png,p,,,,,,o,right_blue.png,right_orange.png,p,right,60febf9b481b65a36fd8a083,001,2021-08-01_13h28.47.676,arrow_simon_norep,2021.1.2,MacIntel,60.45949214,,,,,,,,,,,,,,,,,,,,,p,1,1.521,36,FALSE,FALSE,8,3,35,1,1,,,,,,,
,,,,,,1,2.084313057,#a3d0fb,,right_blue.png,o,,,,,,o,right_blue.png,right_orange.png,p,left,60febf9b481b65a36fd8a083,001,2021-08-01_13h28.47.676,arrow_simon_norep,2021.1.2,MacIntel,60.45949214,,,,,,,,,,,,,,,,,,,,,w,0,1.507,37,FALSE,FALSE,9,0,36,0,1,,,,,,,
,,,,,,1,2.353622403,#f3af84,,left_orange.png,q,,,,,,w,left_blue.png,left_orange.png,q,right,60febf9b481b65a36fd8a083,001,2021-08-01_13h28.47.676,arrow_simon_norep,2021.1.2,MacIntel,60.45949214,,,,,,,,,,,,,,,,,,,,,p,0,1.77,38,TRUE,FALSE,9,1,37,3,1,,,,,,,
,,,,,,1,2.33468368,#a3d0fb,,right_blue.png,o,,,,,,o,right_blue.png,right_orange.png,p,right,60febf9b481b65a36fd8a083,001,2021-08-01_13h28.47.676,arrow_simon_norep,2021.1.2,MacIntel,60.45949214,,,,,,,,,,,,,,,,,,,,,o,1,1.652,39,TRUE,FALSE,9,2,38,1,1,,,,,,,
,,,,,,1,2.361371383,#f3af84,,left_orange.png,q,,,,,,w,left_blue.png,left_orange.png,q,right,60febf9b481b65a36fd8a083,001,2021-08-01_13h28.47.676,arrow_simon_norep,2021.1.2,MacIntel,60.45949214,,,,,,,,,,,,,,,,,,,,,p,0,1.673,40,TRUE,FALSE,9,3,39,3,1,,,,,,,
,,,,,,0,2.06161848,#a3d0fb,,right_blue.png,o,,,,,,o,right_blue.png,right_orange.png,p,left,60febf9b481b65a36fd8a083,001,2021-08-01_13h28.47.676,arrow_simon_norep,2021.1.2,MacIntel,60.45949214,,,,,,,,,,,,,,,,,,,,,o,1,1.491,41,FALSE,FALSE,10,0,40,0,1,,,,,,,
,,,,,,0,1.658026879,#f3af84,,left_orange.png,q,,,,,,w,left_blue.png,left_orange.png,q,left,60febf9b481b65a36fd8a083,001,2021-08-01_13h28.47.676,arrow_simon_norep,2021.1.2,MacIntel,60.45949214,,,,,,,,,,,,,,,,,,,,,q,1,1.522,42,FALSE,FALSE,10,1,41,2,1,,,,,,,
,,,,,,0,1.554515794,#a3d0fb,,left_blue.png,w,,,,,,w,left_blue.png,left_orange.png,q,right,60febf9b481b65a36fd8a083,001,2021-08-01_13h28.47.676,arrow_simon_norep,2021.1.2,MacIntel,60.45949214,,,,,,,,,,,,,,,,,,,,,w,1,1.46,43,FALSE,FALSE,10,2,42,3,1,,,,,,,
,,,,,,0,1.937116668,#f3af84,,right_orange.png,p,,,,,,o,right_blue.png,right_orange.png,p,right,60febf9b481b65a36fd8a083,001,2021-08-01_13h28.47.676,arrow_simon_norep,2021.1.2,MacIntel,60.45949214,,,,,,,,,,,,,,,,,,,,,p,1,1.486,44,FALSE,FALSE,10,3,43,1,1,,,,,,,
,,,,,,0,1.872086771,#a3d0fb,,left_blue.png,w,,,,,,w,left_blue.png,left_orange.png,q,left,60febf9b481b65a36fd8a083,001,2021-08-01_13h28.47.676,arrow_simon_norep,2021.1.2,MacIntel,60.45949214,,,,,,,,,,,,,,,,,,,,,w,1,1.421,45,FALSE,FALSE,11,0,44,2,1,,,,,,,
,,,,,,0,2.411147982,#f3af84,,right_orange.png,p,,,,,,o,right_blue.png,right_orange.png,p,left,60febf9b481b65a36fd8a083,001,2021-08-01_13h28.47.676,arrow_simon_norep,2021.1.2,MacIntel,60.45949214,,,,,,,,,,,,,,,,,,,,,p,1,1.785,46,TRUE,FALSE,11,1,45,0,1,,,,,,,
,,,,,,0,1.548700589,#a3d0fb,,left_blue.png,w,,,,,,w,left_blue.png,left_orange.png,q,right,60febf9b481b65a36fd8a083,001,2021-08-01_13h28.47.676,arrow_simon_norep,2021.1.2,MacIntel,60.45949214,,,,,,,,,,,,,,,,,,,,,w,1,1.504,47,FALSE,FALSE,11,2,46,3,1,,,,,,,
,,,,,,0,1.742125402,#f3af84,,left_orange.png,q,,,,,,w,left_blue.png,left_orange.png,q,right,60febf9b481b65a36fd8a083,001,2021-08-01_13h28.47.676,arrow_simon_norep,2021.1.2,MacIntel,60.45949214,,,,,,,,,,,,,,,,,,,,,q,1,1.504,48,FALSE,FALSE,11,3,47,3,1,,,,,,,
,,,,,,0,2.322215743,#a3d0fb,,right_blue.png,o,,,,,,o,right_blue.png,right_orange.png,p,left,60febf9b481b65a36fd8a083,001,2021-08-01_13h28.47.676,arrow_simon_norep,2021.1.2,MacIntel,60.45949214,,,,,,,,,,,,,,,,,,,,,w,0,1.621,49,TRUE,FALSE,12,0,48,0,1,,,,,,,
,,,,,,0,1.769937065,#f3af84,,right_orange.png,p,,,,,,o,right_blue.png,right_orange.png,p,right,60febf9b481b65a36fd8a083,001,2021-08-01_13h28.47.676,arrow_simon_norep,2021.1.2,MacIntel,60.45949214,,,,,,,,,,,,,,,,,,,,,p,1,1.493,50,FALSE,FALSE,12,1,49,1,1,,,,,,,
,,,,,,0,2.076412202,#a3d0fb,,right_blue.png,o,,,,,,o,right_blue.png,right_orange.png,p,right,60febf9b481b65a36fd8a083,001,2021-08-01_13h28.47.676,arrow_simon_norep,2021.1.2,MacIntel,60.45949214,,,,,,,,,,,,,,,,,,,,,o,1,1.47,51,FALSE,FALSE,12,2,50,1,1,,,,,,,
,,,,,,0,2.046530945,#f3af84,,right_orange.png,p,,,,,,o,right_blue.png,right_orange.png,p,left,60febf9b481b65a36fd8a083,001,2021-08-01_13h28.47.676,arrow_simon_norep,2021.1.2,MacIntel,60.45949214,,,,,,,,,,,,,,,,,,,,,p,1,1.493,52,FALSE,FALSE,12,3,51,0,1,,,,,,,
,,,,,,0,1.594441838,#a3d0fb,,right_blue.png,o,,,,,,o,right_blue.png,right_orange.png,p,right,60febf9b481b65a36fd8a083,001,2021-08-01_13h28.47.676,arrow_simon_norep,2021.1.2,MacIntel,60.45949214,,,,,,,,,,,,,,,,,,,,,o,1,1.586,53,FALSE,FALSE,13,0,52,1,1,,,,,,,
,,,,,,0,1.823637787,#f3af84,,left_orange.png,q,,,,,,w,left_blue.png,left_orange.png,q,left,60febf9b481b65a36fd8a083,001,2021-08-01_13h28.47.676,arrow_simon_norep,2021.1.2,MacIntel,60.45949214,,,,,,,,,,,,,,,,,,,,,q,1,1.336,54,FALSE,TRUE,13,1,53,2,1,,,,,,,
,,,,,,1,1.936375513,#a3d0fb,,left_blue.png,w,,,,,,w,left_blue.png,left_orange.png,q,right,60febf9b481b65a36fd8a083,001,2021-08-01_13h28.47.676,arrow_simon_norep,2021.1.2,MacIntel,60.45949214,,,,,,,,,,,,,,,,,,,,,q,0,1.42,55,FALSE,FALSE,13,2,54,3,1,,,,,,,
,,,,,,0,2.13373462,#f3af84,,right_orange.png,p,,,,,,o,right_blue.png,right_orange.png,p,right,60febf9b481b65a36fd8a083,001,2021-08-01_13h28.47.676,arrow_simon_norep,2021.1.2,MacIntel,60.45949214,,,,,,,,,,,,,,,,,,,,,p,1,1.475,56,FALSE,FALSE,13,3,55,1,1,,,,,,,
,,,,,,0,1.784835111,#a3d0fb,,left_blue.png,w,,,,,,w,left_blue.png,left_orange.png,q,right,60febf9b481b65a36fd8a083,001,2021-08-01_13h28.47.676,arrow_simon_norep,2021.1.2,MacIntel,60.45949214,,,,,,,,,,,,,,,,,,,,,w,1,1.586,57,FALSE,FALSE,14,0,56,3,1,,,,,,,
,,,,,,0,2.421875437,#f3af84,,right_orange.png,p,,,,,,o,right_blue.png,right_orange.png,p,right,60febf9b481b65a36fd8a083,001,2021-08-01_13h28.47.676,arrow_simon_norep,2021.1.2,MacIntel,60.45949214,,,,,,,,,,,,,,,,,,,,,p,1,1.572,58,FALSE,FALSE,14,1,57,1,1,,,,,,,
,,,,,,0,1.833637569,#a3d0fb,,left_blue.png,w,,,,,,w,left_blue.png,left_orange.png,q,left,60febf9b481b65a36fd8a083,001,2021-08-01_13h28.47.676,arrow_simon_norep,2021.1.2,MacIntel,60.45949214,,,,,,,,,,,,,,,,,,,,,w,1,1.506,59,FALSE,FALSE,14,2,58,2,1,,,,,,,
,,,,,,0,2.2009068,#f3af84,,right_orange.png,p,,,,,,o,right_blue.png,right_orange.png,p,left,60febf9b481b65a36fd8a083,001,2021-08-01_13h28.47.676,arrow_simon_norep,2021.1.2,MacIntel,60.45949214,,,,,,,,,,,,,,,,,,,,,o,0,1.738,60,TRUE,FALSE,14,3,59,0,1,,,,,,,
,,,,,,,,,,,,,,,,,,,,,,60febf9b481b65a36fd8a083,001,2021-08-01_13h28.47.676,arrow_simon_norep,2021.1.2,MacIntel,60.45949214,,,,,,,,,,,,,,,,,,,,,,,,,,,,,,,,space,10.122,0,0,0,0,1
,,,,,,0,2.065136833,#a3d0fb,,left_blue.png,w,,,,,,w,left_blue.png,left_orange.png,q,right,60febf9b481b65a36fd8a083,001,2021-08-01_13h28.47.676,arrow_simon_norep,2021.1.2,MacIntel,60.45949214,,,,,,,,,,,,,,,,,,,,,w,1,1.486,1,FALSE,FALSE,0,0,0,3,1,,,,,,,
,,,,,,0,2.393031004,#f3af84,,left_orange.png,q,,,,,,w,left_blue.png,left_orange.png,q,right,60febf9b481b65a36fd8a083,001,2021-08-01_13h28.47.676,arrow_simon_norep,2021.1.2,MacIntel,60.45949214,,,,,,,,,,,,,,,,,,,,,p,0,1.638,2,TRUE,FALSE,0,1,1,3,1,,,,,,,
,,,,,,0,1.959771409,#a3d0fb,,right_blue.png,o,,,,,,o,right_blue.png,right_orange.png,p,left,60febf9b481b65a36fd8a083,001,2021-08-01_13h28.47.676,arrow_simon_norep,2021.1.2,MacIntel,60.45949214,,,,,,,,,,,,,,,,,,,,,o,1,1.47,3,FALSE,FALSE,0,2,2,0,1,,,,,,,
,,,,,,0,1.707041691,#f3af84,,right_orange.png,p,,,,,,o,right_blue.png,right_orange.png,p,left,60febf9b481b65a36fd8a083,001,2021-08-01_13h28.47.676,arrow_simon_norep,2021.1.2,MacIntel,60.45949214,,,,,,,,,,,,,,,,,,,,,p,1,1.421,4,FALSE,FALSE,0,3,3,0,1,,,,,,,
,,,,,,0,2.303074333,#a3d0fb,,left_blue.png,w,,,,,,w,left_blue.png,left_orange.png,q,left,60febf9b481b65a36fd8a083,001,2021-08-01_13h28.47.676,arrow_simon_norep,2021.1.2,MacIntel,60.45949214,,,,,,,,,,,,,,,,,,,,,w,1,1.59,5,FALSE,FALSE,1,0,4,2,1,,,,,,,
,,,,,,0,2.127749191,#f3af84,,left_orange.png,q,,,,,,w,left_blue.png,left_orange.png,q,right,60febf9b481b65a36fd8a083,001,2021-08-01_13h28.47.676,arrow_simon_norep,2021.1.2,MacIntel,60.45949214,,,,,,,,,,,,,,,,,,,,,q,1,1.67,6,TRUE,FALSE,1,1,5,3,1,,,,,,,
,,,,,,0,2.317771289,#a3d0fb,,left_blue.png,w,,,,,,w,left_blue.png,left_orange.png,q,left,60febf9b481b65a36fd8a083,001,2021-08-01_13h28.47.676,arrow_simon_norep,2021.1.2,MacIntel,60.45949214,,,,,,,,,,,,,,,,,,,,,w,1,1.644,7,TRUE,FALSE,1,2,6,2,1,,,,,,,
,,,,,,0,1.656890085,#f3af84,,left_orange.png,q,,,,,,w,left_blue.png,left_orange.png,q,right,60febf9b481b65a36fd8a083,001,2021-08-01_13h28.47.676,arrow_simon_norep,2021.1.2,MacIntel,60.45949214,,,,,,,,,,,,,,,,,,,,,q,1,1.535,8,FALSE,FALSE,1,3,7,3,1,,,,,,,
,,,,,,0,2.333255274,#a3d0fb,,right_blue.png,o,,,,,,o,right_blue.png,right_orange.png,p,right,60febf9b481b65a36fd8a083,001,2021-08-01_13h28.47.676,arrow_simon_norep,2021.1.2,MacIntel,60.45949214,,,,,,,,,,,,,,,,,,,,,o,1,1.62,9,TRUE,FALSE,2,0,8,1,1,,,,,,,
,,,,,,0,1.797698999,#f3af84,,left_orange.png,q,,,,,,w,left_blue.png,left_orange.png,q,left,60febf9b481b65a36fd8a083,001,2021-08-01_13h28.47.676,arrow_simon_norep,2021.1.2,MacIntel,60.45949214,,,,,,,,,,,,,,,,,,,,,q,1,1.552,10,FALSE,FALSE,2,1,9,2,1,,,,,,,
,,,,,,0,2.427440207,#a3d0fb,,right_blue.png,o,,,,,,o,right_blue.png,right_orange.png,p,right,60febf9b481b65a36fd8a083,001,2021-08-01_13h28.47.676,arrow_simon_norep,2021.1.2,MacIntel,60.45949214,,,,,,,,,,,,,,,,,,,,,o,1,1.659,11,TRUE,FALSE,2,2,10,1,1,,,,,,,
,,,,,,0,1.95618807,#f3af84,,left_orange.png,q,,,,,,w,left_blue.png,left_orange.png,q,right,60febf9b481b65a36fd8a083,001,2021-08-01_13h28.47.676,arrow_simon_norep,2021.1.2,MacIntel,60.45949214,,,,,,,,,,,,,,,,,,,,,q,1,1.974,12,TRUE,FALSE,2,3,11,3,1,,,,,,,
,,,,,,0,2.371939056,#a3d0fb,,left_blue.png,w,,,,,,w,left_blue.png,left_orange.png,q,left,60febf9b481b65a36fd8a083,001,2021-08-01_13h28.47.676,arrow_simon_norep,2021.1.2,MacIntel,60.45949214,,,,,,,,,,,,,,,,,,,,,q,0,1.688,13,TRUE,FALSE,3,0,12,2,1,,,,,,,
,,,,,,0,1.675475769,#f3af84,,left_orange.png,q,,,,,,w,left_blue.png,left_orange.png,q,left,60febf9b481b65a36fd8a083,001,2021-08-01_13h28.47.676,arrow_simon_norep,2021.1.2,MacIntel,60.45949214,,,,,,,,,,,,,,,,,,,,,q,1,1.554,14,FALSE,FALSE,3,1,13,2,1,,,,,,,
,,,,,,0,2.302017422,#a3d0fb,,left_blue.png,w,,,,,,w,left_blue.png,left_orange.png,q,right,60febf9b481b65a36fd8a083,001,2021-08-01_13h28.47.676,arrow_simon_norep,2021.1.2,MacIntel,60.45949214,,,,,,,,,,,,,,,,,,,,,w,1,1.702,15,TRUE,FALSE,3,2,14,3,1,,,,,,,
,,,,,,0,1.681033264,#f3af84,,right_orange.png,p,,,,,,o,right_blue.png,right_orange.png,p,right,60febf9b481b65a36fd8a083,001,2021-08-01_13h28.47.676,arrow_simon_norep,2021.1.2,MacIntel,60.45949214,,,,,,,,,,,,,,,,,,,,,p,1,1.559,16,FALSE,FALSE,3,3,15,1,1,,,,,,,
,,,,,,0,1.71768139,#a3d0fb,,right_blue.png,o,,,,,,o,right_blue.png,right_orange.png,p,right,60febf9b481b65a36fd8a083,001,2021-08-01_13h28.47.676,arrow_simon_norep,2021.1.2,MacIntel,60.45949214,,,,,,,,,,,,,,,,,,,,,o,1,1.553,17,FALSE,FALSE,4,0,16,1,1,,,,,,,
,,,,,,0,1.719530346,#f3af84,,right_orange.png,p,,,,,,o,right_blue.png,right_orange.png,p,right,60febf9b481b65a36fd8a083,001,2021-08-01_13h28.47.676,arrow_simon_norep,2021.1.2,MacIntel,60.45949214,,,,,,,,,,,,,,,,,,,,,p,1,1.586,18,FALSE,FALSE,4,1,17,1,1,,,,,,,
,,,,,,0,2.217934866,#a3d0fb,,left_blue.png,w,,,,,,w,left_blue.png,left_orange.png,q,right,60febf9b481b65a36fd8a083,001,2021-08-01_13h28.47.676,arrow_simon_norep,2021.1.2,MacIntel,60.45949214,,,,,,,,,,,,,,,,,,,,,w,1,1.627,19,TRUE,FALSE,4,2,18,3,1,,,,,,,
,,,,,,0,1.935616391,#f3af84,,left_orange.png,q,,,,,,w,left_blue.png,left_orange.png,q,right,60febf9b481b65a36fd8a083,001,2021-08-01_13h28.47.676,arrow_simon_norep,2021.1.2,MacIntel,60.45949214,,,,,,,,,,,,,,,,,,,,,q,1,1.576,20,FALSE,FALSE,4,3,19,3,1,,,,,,,
,,,,,,0,2.135464158,#a3d0fb,,right_blue.png,o,,,,,,o,right_blue.png,right_orange.png,p,left,60febf9b481b65a36fd8a083,001,2021-08-01_13h28.47.676,arrow_simon_norep,2021.1.2,MacIntel,60.45949214,,,,,,,,,,,,,,,,,,,,,w,0,1.603,21,TRUE,FALSE,5,0,20,0,1,,,,,,,
,,,,,,0,2.271879874,#f3af84,,right_orange.png,p,,,,,,o,right_blue.png,right_orange.png,p,left,60febf9b481b65a36fd8a083,001,2021-08-01_13h28.47.676,arrow_simon_norep,2021.1.2,MacIntel,60.45949214,,,,,,,,,,,,,,,,,,,,,p,1,1.67,22,TRUE,FALSE,5,1,21,0,1,,,,,,,
,,,,,,0,1.645764733,#a3d0fb,,left_blue.png,w,,,,,,w,left_blue.png,left_orange.png,q,right,60febf9b481b65a36fd8a083,001,2021-08-01_13h28.47.676,arrow_simon_norep,2021.1.2,MacIntel,60.45949214,,,,,,,,,,,,,,,,,,,,,w,1,1.554,23,FALSE,FALSE,5,2,22,3,1,,,,,,,
,,,,,,0,1.593154471,#f3af84,,right_orange.png,p,,,,,,o,right_blue.png,right_orange.png,p,left,60febf9b481b65a36fd8a083,001,2021-08-01_13h28.47.676,arrow_simon_norep,2021.1.2,MacIntel,60.45949214,,,,,,,,,,,,,,,,,,,,,p,1,1.587,24,FALSE,FALSE,5,3,23,0,1,,,,,,,
,,,,,,0,1.922085383,#a3d0fb,,left_blue.png,w,,,,,,w,left_blue.png,left_orange.png,q,left,60febf9b481b65a36fd8a083,001,2021-08-01_13h28.47.676,arrow_simon_norep,2021.1.2,MacIntel,60.45949214,,,,,,,,,,,,,,,,,,,,,w,1,1.487,25,FALSE,FALSE,6,0,24,2,1,,,,,,,
,,,,,,0,2.26815008,#f3af84,,left_orange.png,q,,,,,,w,left_blue.png,left_orange.png,q,left,60febf9b481b65a36fd8a083,001,2021-08-01_13h28.47.676,arrow_simon_norep,2021.1.2,MacIntel,60.45949214,,,,,,,,,,,,,,,,,,,,,q,1,1.653,26,TRUE,FALSE,6,1,25,2,1,,,,,,,
,,,,,,0,1.564147362,#a3d0fb,,left_blue.png,w,,,,,,w,left_blue.png,left_orange.png,q,left,60febf9b481b65a36fd8a083,001,2021-08-01_13h28.47.676,arrow_simon_norep,2021.1.2,MacIntel,60.45949214,,,,,,,,,,,,,,,,,,,,,w,1,1.602,27,TRUE,FALSE,6,2,26,2,1,,,,,,,
,,,,,,1,2.212046453,#f3af84,,right_orange.png,p,,,,,,o,right_blue.png,right_orange.png,p,left,60febf9b481b65a36fd8a083,001,2021-08-01_13h28.47.676,arrow_simon_norep,2021.1.2,MacIntel,60.45949214,,,,,,,,,,,,,,,,,,,,,w,0,1.59,28,FALSE,FALSE,6,3,27,0,1,,,,,,,
,,,,,,0,2.206127994,#a3d0fb,,right_blue.png,o,,,,,,o,right_blue.png,right_orange.png,p,right,60febf9b481b65a36fd8a083,001,2021-08-01_13h28.47.676,arrow_simon_norep,2021.1.2,MacIntel,60.45949214,,,,,,,,,,,,,,,,,,,,,o,1,1.487,29,FALSE,FALSE,7,0,28,1,1,,,,,,,
,,,,,,0,1.865992805,#f3af84,,left_orange.png,q,,,,,,w,left_blue.png,left_orange.png,q,left,60febf9b481b65a36fd8a083,001,2021-08-01_13h28.47.676,arrow_simon_norep,2021.1.2,MacIntel,60.45949214,,,,,,,,,,,,,,,,,,,,,q,1,1.504,30,FALSE,FALSE,7,1,29,2,1,,,,,,,
,,,,,,0,1.527242303,#a3d0fb,,left_blue.png,w,,,,,,w,left_blue.png,left_orange.png,q,right,60febf9b481b65a36fd8a083,001,2021-08-01_13h28.47.676,arrow_simon_norep,2021.1.2,MacIntel,60.45949214,,,,,,,,,,,,,,,,,,,,,w,1,1.536,31,FALSE,FALSE,7,2,30,3,1,,,,,,,
,,,,,,0,1.751286547,#f3af84,,right_orange.png,p,,,,,,o,right_blue.png,right_orange.png,p,right,60febf9b481b65a36fd8a083,001,2021-08-01_13h28.47.676,arrow_simon_norep,2021.1.2,MacIntel,60.45949214,,,,,,,,,,,,,,,,,,,,,p,1,1.591,32,FALSE,FALSE,7,3,31,1,1,,,,,,,
,,,,,,0,1.820173441,#a3d0fb,,right_blue.png,o,,,,,,o,right_blue.png,right_orange.png,p,right,60febf9b481b65a36fd8a083,001,2021-08-01_13h28.47.676,arrow_simon_norep,2021.1.2,MacIntel,60.45949214,,,,,,,,,,,,,,,,,,,,,o,1,1.543,33,FALSE,FALSE,8,0,32,1,1,,,,,,,
,,,,,,0,1.775636184,#f3af84,,right_orange.png,p,,,,,,o,right_blue.png,right_orange.png,p,left,60febf9b481b65a36fd8a083,001,2021-08-01_13h28.47.676,arrow_simon_norep,2021.1.2,MacIntel,60.45949214,,,,,,,,,,,,,,,,,,,,,p,1,1.437,34,FALSE,FALSE,8,1,33,0,1,,,,,,,
,,,,,,0,1.676715383,#a3d0fb,,right_blue.png,o,,,,,,o,right_blue.png,right_orange.png,p,left,60febf9b481b65a36fd8a083,001,2021-08-01_13h28.47.676,arrow_simon_norep,2021.1.2,MacIntel,60.45949214,,,,,,,,,,,,,,,,,,,,,o,1,1.458,35,FALSE,FALSE,8,2,34,0,1,,,,,,,
,,,,,,0,2.158456982,#f3af84,,left_orange.png,q,,,,,,w,left_blue.png,left_orange.png,q,left,60febf9b481b65a36fd8a083,001,2021-08-01_13h28.47.676,arrow_simon_norep,2021.1.2,MacIntel,60.45949214,,,,,,,,,,,,,,,,,,,,,q,1,1.692,36,TRUE,FALSE,8,3,35,2,1,,,,,,,
,,,,,,0,1.65179616,#a3d0fb,,right_blue.png,o,,,,,,o,right_blue.png,right_orange.png,p,right,60febf9b481b65a36fd8a083,001,2021-08-01_13h28.47.676,arrow_simon_norep,2021.1.2,MacIntel,60.45949214,,,,,,,,,,,,,,,,,,,,,o,1,1.536,37,FALSE,FALSE,9,0,36,1,1,,,,,,,
,,,,,,0,2.385178759,#f3af84,,right_orange.png,p,,,,,,o,right_blue.png,right_orange.png,p,left,60febf9b481b65a36fd8a083,001,2021-08-01_13h28.47.676,arrow_simon_norep,2021.1.2,MacIntel,60.45949214,,,,,,,,,,,,,,,,,,,,,q,0,1.654,38,TRUE,FALSE,9,1,37,0,1,,,,,,,
,,,,,,0,1.545606525,#a3d0fb,,right_blue.png,o,,,,,,o,right_blue.png,right_orange.png,p,right,60febf9b481b65a36fd8a083,001,2021-08-01_13h28.47.676,arrow_simon_norep,2021.1.2,MacIntel,60.45949214,,,,,,,,,,,,,,,,,,,,,o,1,1.538,39,FALSE,FALSE,9,2,38,1,1,,,,,,,
,,,,,,0,2.003473121,#f3af84,,left_orange.png,q,,,,,,w,left_blue.png,left_orange.png,q,right,60febf9b481b65a36fd8a083,001,2021-08-01_13h28.47.676,arrow_simon_norep,2021.1.2,MacIntel,60.45949214,,,,,,,,,,,,,,,,,,,,,q,1,1.422,40,FALSE,FALSE,9,3,39,3,1,,,,,,,
,,,,,,0,2.301762276,#a3d0fb,,left_blue.png,w,,,,,,w,left_blue.png,left_orange.png,q,left,60febf9b481b65a36fd8a083,001,2021-08-01_13h28.47.676,arrow_simon_norep,2021.1.2,MacIntel,60.45949214,,,,,,,,,,,,,,,,,,,,,w,1,1.624,41,TRUE,FALSE,10,0,40,2,1,,,,,,,
,,,,,,0,1.68501668,#f3af84,,right_orange.png,p,,,,,,o,right_blue.png,right_orange.png,p,left,60febf9b481b65a36fd8a083,001,2021-08-01_13h28.47.676,arrow_simon_norep,2021.1.2,MacIntel,60.45949214,,,,,,,,,,,,,,,,,,,,,p,1,1.56,42,FALSE,FALSE,10,1,41,0,1,,,,,,,
,,,,,,0,1.972660644,#a3d0fb,,left_blue.png,w,,,,,,w,left_blue.png,left_orange.png,q,left,60febf9b481b65a36fd8a083,001,2021-08-01_13h28.47.676,arrow_simon_norep,2021.1.2,MacIntel,60.45949214,,,,,,,,,,,,,,,,,,,,,q,0,1.603,43,TRUE,FALSE,10,2,42,2,1,,,,,,,
,,,,,,0,1.863318463,#f3af84,,left_orange.png,q,,,,,,w,left_blue.png,left_orange.png,q,right,60febf9b481b65a36fd8a083,001,2021-08-01_13h28.47.676,arrow_simon_norep,2021.1.2,MacIntel,60.45949214,,,,,,,,,,,,,,,,,,,,,q,1,1.528,44,FALSE,FALSE,10,3,43,3,1,,,,,,,
,,,,,,0,1.822105785,#a3d0fb,,left_blue.png,w,,,,,,w,left_blue.png,left_orange.png,q,right,60febf9b481b65a36fd8a083,001,2021-08-01_13h28.47.676,arrow_simon_norep,2021.1.2,MacIntel,60.45949214,,,,,,,,,,,,,,,,,,,,,w,1,1.553,45,FALSE,FALSE,11,0,44,3,1,,,,,,,
,,,,,,0,1.544884818,#f3af84,,left_orange.png,q,,,,,,w,left_blue.png,left_orange.png,q,left,60febf9b481b65a36fd8a083,001,2021-08-01_13h28.47.676,arrow_simon_norep,2021.1.2,MacIntel,60.45949214,,,,,,,,,,,,,,,,,,,,,q,1,1.521,46,FALSE,FALSE,11,1,45,2,1,,,,,,,
,,,,,,0,1.522653002,#a3d0fb,,right_blue.png,o,,,,,,o,right_blue.png,right_orange.png,p,right,60febf9b481b65a36fd8a083,001,2021-08-01_13h28.47.676,arrow_simon_norep,2021.1.2,MacIntel,60.45949214,,,,,,,,,,,,,,,,,,,,,o,1,1.608,47,TRUE,FALSE,11,2,46,1,1,,,,,,,
,,,,,,0,1.891451152,#f3af84,,right_orange.png,p,,,,,,o,right_blue.png,right_orange.png,p,left,60febf9b481b65a36fd8a083,001,2021-08-01_13h28.47.676,arrow_simon_norep,2021.1.2,MacIntel,60.45949214,,,,,,,,,,,,,,,,,,,,,p,1,1.552,48,FALSE,FALSE,11,3,47,0,1,,,,,,,
,,,,,,0,1.850641488,#a3d0fb,,left_blue.png,w,,,,,,w,left_blue.png,left_orange.png,q,left,60febf9b481b65a36fd8a083,001,2021-08-01_13h28.47.676,arrow_simon_norep,2021.1.2,MacIntel,60.45949214,,,,,,,,,,,,,,,,,,,,,w,1,1.494,49,FALSE,FALSE,12,0,48,2,1,,,,,,,
,,,,,,0,2.108901842,#f3af84,,left_orange.png,q,,,,,,w,left_blue.png,left_orange.png,q,left,60febf9b481b65a36fd8a083,001,2021-08-01_13h28.47.676,arrow_simon_norep,2021.1.2,MacIntel,60.45949214,,,,,,,,,,,,,,,,,,,,,q,1,1.62,50,TRUE,FALSE,12,1,49,2,1,,,,,,,
,,,,,,0,2.363000821,#a3d0fb,,right_blue.png,o,,,,,,o,right_blue.png,right_orange.png,p,right,60febf9b481b65a36fd8a083,001,2021-08-01_13h28.47.676,arrow_simon_norep,2021.1.2,MacIntel,60.45949214,,,,,,,,,,,,,,,,,,,,,o,1,1.487,51,FALSE,FALSE,12,2,50,1,1,,,,,,,
,,,,,,0,1.988285851,#f3af84,,left_orange.png,q,,,,,,w,left_blue.png,left_orange.png,q,right,60febf9b481b65a36fd8a083,001,2021-08-01_13h28.47.676,arrow_simon_norep,2021.1.2,MacIntel,60.45949214,,,,,,,,,,,,,,,,,,,,,q,1,1.438,52,FALSE,FALSE,12,3,51,3,1,,,,,,,
,,,,,,0,1.511882303,#a3d0fb,,right_blue.png,o,,,,,,o,right_blue.png,right_orange.png,p,left,60febf9b481b65a36fd8a083,001,2021-08-01_13h28.47.676,arrow_simon_norep,2021.1.2,MacIntel,60.45949214,,,,,,,,,,,,,,,,,,,,,o,1,1.538,53,FALSE,FALSE,13,0,52,0,1,,,,,,,
,,,,,,0,2.446522761,#f3af84,,right_orange.png,p,,,,,,o,right_blue.png,right_orange.png,p,left,60febf9b481b65a36fd8a083,001,2021-08-01_13h28.47.676,arrow_simon_norep,2021.1.2,MacIntel,60.45949214,,,,,,,,,,,,,,,,,,,,,p,1,1.621,54,TRUE,FALSE,13,1,53,0,1,,,,,,,
,,,,,,0,2.241664318,#a3d0fb,,right_blue.png,o,,,,,,o,right_blue.png,right_orange.png,p,left,60febf9b481b65a36fd8a083,001,2021-08-01_13h28.47.676,arrow_simon_norep,2021.1.2,MacIntel,60.45949214,,,,,,,,,,,,,,,,,,,,,o,1,1.423,55,FALSE,FALSE,13,2,54,0,1,,,,,,,
,,,,,,0,1.58653048,#f3af84,,right_orange.png,p,,,,,,o,right_blue.png,right_orange.png,p,left,60febf9b481b65a36fd8a083,001,2021-08-01_13h28.47.676,arrow_simon_norep,2021.1.2,MacIntel,60.45949214,,,,,,,,,,,,,,,,,,,,,p,1,1.509,56,FALSE,FALSE,13,3,55,0,1,,,,,,,
,,,,,,0,1.741733903,#a3d0fb,,right_blue.png,o,,,,,,o,right_blue.png,right_orange.png,p,right,60febf9b481b65a36fd8a083,001,2021-08-01_13h28.47.676,arrow_simon_norep,2021.1.2,MacIntel,60.45949214,,,,,,,,,,,,,,,,,,,,,o,1,1.505,57,FALSE,FALSE,14,0,56,1,1,,,,,,,
,,,,,,0,1.599883037,#f3af84,,left_orange.png,q,,,,,,w,left_blue.png,left_orange.png,q,right,60febf9b481b65a36fd8a083,001,2021-08-01_13h28.47.676,arrow_simon_norep,2021.1.2,MacIntel,60.45949214,,,,,,,,,,,,,,,,,,,,,q,1,1.586,58,FALSE,FALSE,14,1,57,3,1,,,,,,,
,,,,,,0,2.463135314,#a3d0fb,,right_blue.png,o,,,,,,o,right_blue.png,right_orange.png,p,right,60febf9b481b65a36fd8a083,001,2021-08-01_13h28.47.676,arrow_simon_norep,2021.1.2,MacIntel,60.45949214,,,,,,,,,,,,,,,,,,,,,o,1,1.536,59,FALSE,FALSE,14,2,58,1,1,,,,,,,
,,,,,,1,2.366680905,#f3af84,,right_orange.png,p,,,,,,o,right_blue.png,right_orange.png,p,right,60febf9b481b65a36fd8a083,001,2021-08-01_13h28.47.676,arrow_simon_norep,2021.1.2,MacIntel,60.45949214,,,,,,,,,,,,,,,,,,,,,q,0,1.487,60,FALSE,FALSE,14,3,59,1,1,,,,,,,
,,,,,,,,,,,,,,,,,,,,,,60febf9b481b65a36fd8a083,001,2021-08-01_13h28.47.676,arrow_simon_norep,2021.1.2,MacIntel,60.45949214,,,,,,,,,,,,,,,,,,,,,,,,,,,,,,,,space,10.642,1,0,1,0,1
,,,,,,0,2.188355258,#a3d0fb,,right_blue.png,o,,,,,,o,right_blue.png,right_orange.png,p,right,60febf9b481b65a36fd8a083,001,2021-08-01_13h28.47.676,arrow_simon_norep,2021.1.2,MacIntel,60.45949214,,,,,,,,,,,,,,,,,,,,,o,1,1.491,1,FALSE,FALSE,0,0,0,1,1,,,,,,,
,,,,,,0,1.963413655,#f3af84,,right_orange.png,p,,,,,,o,right_blue.png,right_orange.png,p,left,60febf9b481b65a36fd8a083,001,2021-08-01_13h28.47.676,arrow_simon_norep,2021.1.2,MacIntel,60.45949214,,,,,,,,,,,,,,,,,,,,,p,1,1.457,2,FALSE,FALSE,0,1,1,0,1,,,,,,,
,,,,,,0,1.814828103,#a3d0fb,,left_blue.png,w,,,,,,w,left_blue.png,left_orange.png,q,left,60febf9b481b65a36fd8a083,001,2021-08-01_13h28.47.676,arrow_simon_norep,2021.1.2,MacIntel,60.45949214,,,,,,,,,,,,,,,,,,,,,w,1,1.425,3,FALSE,FALSE,0,2,2,2,1,,,,,,,
,,,,,,0,1.631990337,#f3af84,,right_orange.png,p,,,,,,o,right_blue.png,right_orange.png,p,left,60febf9b481b65a36fd8a083,001,2021-08-01_13h28.47.676,arrow_simon_norep,2021.1.2,MacIntel,60.45949214,,,,,,,,,,,,,,,,,,,,,p,1,1.57,4,FALSE,FALSE,0,3,3,0,1,,,,,,,
,,,,,,1,2.379012208,#a3d0fb,,left_blue.png,w,,,,,,w,left_blue.png,left_orange.png,q,right,60febf9b481b65a36fd8a083,001,2021-08-01_13h28.47.676,arrow_simon_norep,2021.1.2,MacIntel,60.45949214,,,,,,,,,,,,,,,,,,,,,o,0,1.587,5,FALSE,FALSE,1,0,4,3,1,,,,,,,
,,,,,,1,2.113388023,#f3af84,,left_orange.png,q,,,,,,w,left_blue.png,left_orange.png,q,right,60febf9b481b65a36fd8a083,001,2021-08-01_13h28.47.676,arrow_simon_norep,2021.1.2,MacIntel,60.45949214,,,,,,,,,,,,,,,,,,,,,w,0,1.558,6,FALSE,FALSE,1,1,5,3,1,,,,,,,
,,,,,,0,2.077761034,#a3d0fb,,left_blue.png,w,,,,,,w,left_blue.png,left_orange.png,q,left,60febf9b481b65a36fd8a083,001,2021-08-01_13h28.47.676,arrow_simon_norep,2021.1.2,MacIntel,60.45949214,,,,,,,,,,,,,,,,,,,,,w,1,1.47,7,FALSE,FALSE,1,2,6,2,1,,,,,,,
,,,,,,1,2.301654246,#f3af84,,left_orange.png,q,,,,,,w,left_blue.png,left_orange.png,q,left,60febf9b481b65a36fd8a083,001,2021-08-01_13h28.47.676,arrow_simon_norep,2021.1.2,MacIntel,60.45949214,,,,,,,,,,,,,,,,,,,,,p,0,1.57,8,FALSE,FALSE,1,3,7,2,1,,,,,,,
,,,,,,1,2.231388502,#a3d0fb,,left_blue.png,w,,,,,,w,left_blue.png,left_orange.png,q,right,60febf9b481b65a36fd8a083,001,2021-08-01_13h28.47.676,arrow_simon_norep,2021.1.2,MacIntel,60.45949214,,,,,,,,,,,,,,,,,,,,,o,0,1.471,9,FALSE,FALSE,2,0,8,3,1,,,,,,,
,,,,,,0,2.087948193,#f3af84,,left_orange.png,q,,,,,,w,left_blue.png,left_orange.png,q,left,60febf9b481b65a36fd8a083,001,2021-08-01_13h28.47.676,arrow_simon_norep,2021.1.2,MacIntel,60.45949214,,,,,,,,,,,,,,,,,,,,,q,1,1.423,10,FALSE,FALSE,2,1,9,2,1,,,,,,,
,,,,,,0,2.291563821,#a3d0fb,,right_blue.png,o,,,,,,o,right_blue.png,right_orange.png,p,right,60febf9b481b65a36fd8a083,001,2021-08-01_13h28.47.676,arrow_simon_norep,2021.1.2,MacIntel,60.45949214,,,,,,,,,,,,,,,,,,,,,o,1,1.554,11,FALSE,FALSE,2,2,10,1,1,,,,,,,
,,,,,,0,1.750306963,#f3af84,,left_orange.png,q,,,,,,w,left_blue.png,left_orange.png,q,left,60febf9b481b65a36fd8a083,001,2021-08-01_13h28.47.676,arrow_simon_norep,2021.1.2,MacIntel,60.45949214,,,,,,,,,,,,,,,,,,,,,q,1,1.403,12,FALSE,FALSE,2,3,11,2,1,,,,,,,
,,,,,,0,1.889806415,#a3d0fb,,left_blue.png,w,,,,,,w,left_blue.png,left_orange.png,q,left,60febf9b481b65a36fd8a083,001,2021-08-01_13h28.47.676,arrow_simon_norep,2021.1.2,MacIntel,60.45949214,,,,,,,,,,,,,,,,,,,,,w,1,1.521,13,FALSE,FALSE,3,0,12,2,1,,,,,,,
,,,,,,0,1.789526117,#f3af84,,left_orange.png,q,,,,,,w,left_blue.png,left_orange.png,q,left,60febf9b481b65a36fd8a083,001,2021-08-01_13h28.47.676,arrow_simon_norep,2021.1.2,MacIntel,60.45949214,,,,,,,,,,,,,,,,,,,,,q,1,1.538,14,FALSE,FALSE,3,1,13,2,1,,,,,,,
,,,,,,0,2.465129967,#a3d0fb,,right_blue.png,o,,,,,,o,right_blue.png,right_orange.png,p,right,60febf9b481b65a36fd8a083,001,2021-08-01_13h28.47.676,arrow_simon_norep,2021.1.2,MacIntel,60.45949214,,,,,,,,,,,,,,,,,,,,,o,1,1.639,15,TRUE,FALSE,3,2,14,1,1,,,,,,,
,,,,,,1,2.295824149,#f3af84,,left_orange.png,q,,,,,,w,left_blue.png,left_orange.png,q,left,60febf9b481b65a36fd8a083,001,2021-08-01_13h28.47.676,arrow_simon_norep,2021.1.2,MacIntel,60.45949214,,,,,,,,,,,,,,,,,,,,,p,0,1.486,16,FALSE,FALSE,3,3,15,2,1,,,,,,,
,,,,,,1,1.663450908,#a3d0fb,,left_blue.png,w,,,,,,w,left_blue.png,left_orange.png,q,right,60febf9b481b65a36fd8a083,001,2021-08-01_13h28.47.676,arrow_simon_norep,2021.1.2,MacIntel,60.45949214,,,,,,,,,,,,,,,,,,,,,q,0,1.535,17,FALSE,FALSE,4,0,16,3,1,,,,,,,
,,,,,,0,2.033433107,#f3af84,,right_orange.png,p,,,,,,o,right_blue.png,right_orange.png,p,right,60febf9b481b65a36fd8a083,001,2021-08-01_13h28.47.676,arrow_simon_norep,2021.1.2,MacIntel,60.45949214,,,,,,,,,,,,,,,,,,,,,p,1,1.507,18,FALSE,FALSE,4,1,17,1,1,,,,,,,
,,,,,,1,2.404779304,#a3d0fb,,left_blue.png,w,,,,,,w,left_blue.png,left_orange.png,q,left,60febf9b481b65a36fd8a083,001,2021-08-01_13h28.47.676,arrow_simon_norep,2021.1.2,MacIntel,60.45949214,,,,,,,,,,,,,,,,,,,,,o,0,1.521,19,FALSE,FALSE,4,2,18,2,1,,,,,,,
,,,,,,1,2.421292204,#f3af84,,left_orange.png,q,,,,,,w,left_blue.png,left_orange.png,q,right,60febf9b481b65a36fd8a083,001,2021-08-01_13h28.47.676,arrow_simon_norep,2021.1.2,MacIntel,60.45949214,,,,,,,,,,,,,,,,,,,,,p,0,1.425,20,FALSE,FALSE,4,3,19,3,1,,,,,,,
,,,,,,0,1.791588077,#a3d0fb,,right_blue.png,o,,,,,,o,right_blue.png,right_orange.png,p,left,60febf9b481b65a36fd8a083,001,2021-08-01_13h28.47.676,arrow_simon_norep,2021.1.2,MacIntel,60.45949214,,,,,,,,,,,,,,,,,,,,,o,1,1.487,21,FALSE,FALSE,5,0,20,0,1,,,,,,,
,,,,,,0,1.908854846,#f3af84,,right_orange.png,p,,,,,,o,right_blue.png,right_orange.png,p,left,60febf9b481b65a36fd8a083,001,2021-08-01_13h28.47.676,arrow_simon_norep,2021.1.2,MacIntel,60.45949214,,,,,,,,,,,,,,,,,,,,,p,1,1.438,22,FALSE,FALSE,5,1,21,0,1,,,,,,,
,,,,,,0,2.02880118,#a3d0fb,,right_blue.png,o,,,,,,o,right_blue.png,right_orange.png,p,left,60febf9b481b65a36fd8a083,001,2021-08-01_13h28.47.676,arrow_simon_norep,2021.1.2,MacIntel,60.45949214,,,,,,,,,,,,,,,,,,,,,o,1,1.502,23,FALSE,FALSE,5,2,22,0,1,,,,,,,
,,,,,,0,1.932751577,#f3af84,,right_orange.png,p,,,,,,o,right_blue.png,right_orange.png,p,right,60febf9b481b65a36fd8a083,001,2021-08-01_13h28.47.676,arrow_simon_norep,2021.1.2,MacIntel,60.45949214,,,,,,,,,,,,,,,,,,,,,p,1,1.553,24,FALSE,FALSE,5,3,23,1,1,,,,,,,
,,,,,,0,2.045070077,#a3d0fb,,left_blue.png,w,,,,,,w,left_blue.png,left_orange.png,q,left,60febf9b481b65a36fd8a083,001,2021-08-01_13h28.47.676,arrow_simon_norep,2021.1.2,MacIntel,60.45949214,,,,,,,,,,,,,,,,,,,,,w,1,1.426,25,FALSE,FALSE,6,0,24,2,1,,,,,,,
,,,,,,0,2.33688907,#f3af84,,right_orange.png,p,,,,,,o,right_blue.png,right_orange.png,p,right,60febf9b481b65a36fd8a083,001,2021-08-01_13h28.47.676,arrow_simon_norep,2021.1.2,MacIntel,60.45949214,,,,,,,,,,,,,,,,,,,,,p,1,1.553,26,FALSE,FALSE,6,1,25,1,1,,,,,,,
,,,,,,0,1.643009202,#a3d0fb,,right_blue.png,o,,,,,,o,right_blue.png,right_orange.png,p,left,60febf9b481b65a36fd8a083,001,2021-08-01_13h28.47.676,arrow_simon_norep,2021.1.2,MacIntel,60.45949214,,,,,,,,,,,,,,,,,,,,,o,1,1.685,27,TRUE,FALSE,6,2,26,0,1,,,,,,,
,,,,,,0,1.513409732,#f3af84,,right_orange.png,p,,,,,,o,right_blue.png,right_orange.png,p,left,60febf9b481b65a36fd8a083,001,2021-08-01_13h28.47.676,arrow_simon_norep,2021.1.2,MacIntel,60.45949214,,,,,,,,,,,,,,,,,,,,,p,1,1.473,28,FALSE,FALSE,6,3,27,0,1,,,,,,,
,,,,,,0,1.762458917,#a3d0fb,,left_blue.png,w,,,,,,w,left_blue.png,left_orange.png,q,right,60febf9b481b65a36fd8a083,001,2021-08-01_13h28.47.676,arrow_simon_norep,2021.1.2,MacIntel,60.45949214,,,,,,,,,,,,,,,,,,,,,w,1,1.438,29,FALSE,FALSE,7,0,28,3,1,,,,,,,
,,,,,,0,2.028404234,#f3af84,,right_orange.png,p,,,,,,o,right_blue.png,right_orange.png,p,left,60febf9b481b65a36fd8a083,001,2021-08-01_13h28.47.676,arrow_simon_norep,2021.1.2,MacIntel,60.45949214,,,,,,,,,,,,,,,,,,,,,p,1,1.387,30,FALSE,TRUE,7,1,29,0,1,,,,,,,
,,,,,,0,2.212296677,#a3d0fb,,right_blue.png,o,,,,,,o,right_blue.png,right_orange.png,p,right,60febf9b481b65a36fd8a083,001,2021-08-01_13h28.47.676,arrow_simon_norep,2021.1.2,MacIntel,60.45949214,,,,,,,,,,,,,,,,,,,,,o,1,1.524,31,FALSE,FALSE,7,2,30,1,1,,,,,,,
,,,,,,0,1.756629326,#f3af84,,right_orange.png,p,,,,,,o,right_blue.png,right_orange.png,p,left,60febf9b481b65a36fd8a083,001,2021-08-01_13h28.47.676,arrow_simon_norep,2021.1.2,MacIntel,60.45949214,,,,,,,,,,,,,,,,,,,,,p,1,1.521,32,FALSE,FALSE,7,3,31,0,1,,,,,,,
,,,,,,0,1.803144455,#a3d0fb,,right_blue.png,o,,,,,,o,right_blue.png,right_orange.png,p,right,60febf9b481b65a36fd8a083,001,2021-08-01_13h28.47.676,arrow_simon_norep,2021.1.2,MacIntel,60.45949214,,,,,,,,,,,,,,,,,,,,,o,1,1.426,33,FALSE,FALSE,8,0,32,1,1,,,,,,,
,,,,,,0,2.490889199,#f3af84,,left_orange.png,q,,,,,,w,left_blue.png,left_orange.png,q,right,60febf9b481b65a36fd8a083,001,2021-08-01_13h28.47.676,arrow_simon_norep,2021.1.2,MacIntel,60.45949214,,,,,,,,,,,,,,,,,,,,,p,0,1.642,34,TRUE,FALSE,8,1,33,3,1,,,,,,,
,,,,,,0,1.51755741,#a3d0fb,,right_blue.png,o,,,,,,o,right_blue.png,right_orange.png,p,right,60febf9b481b65a36fd8a083,001,2021-08-01_13h28.47.676,arrow_simon_norep,2021.1.2,MacIntel,60.45949214,,,,,,,,,,,,,,,,,,,,,o,1,1.57,35,FALSE,FALSE,8,2,34,1,1,,,,,,,
,,,,,,0,1.770436605,#f3af84,,right_orange.png,p,,,,,,o,right_blue.png,right_orange.png,p,right,60febf9b481b65a36fd8a083,001,2021-08-01_13h28.47.676,arrow_simon_norep,2021.1.2,MacIntel,60.45949214,,,,,,,,,,,,,,,,,,,,,p,1,1.473,36,FALSE,FALSE,8,3,35,1,1,,,,,,,
,,,,,,0,1.76685621,#a3d0fb,,right_blue.png,o,,,,,,o,right_blue.png,right_orange.png,p,right,60febf9b481b65a36fd8a083,001,2021-08-01_13h28.47.676,arrow_simon_norep,2021.1.2,MacIntel,60.45949214,,,,,,,,,,,,,,,,,,,,,o,1,1.41,37,FALSE,FALSE,9,0,36,1,1,,,,,,,
,,,,,,0,2.446269284,#f3af84,,left_orange.png,q,,,,,,w,left_blue.png,left_orange.png,q,right,60febf9b481b65a36fd8a083,001,2021-08-01_13h28.47.676,arrow_simon_norep,2021.1.2,MacIntel,60.45949214,,,,,,,,,,,,,,,,,,,,,q,1,1.525,38,FALSE,FALSE,9,1,37,3,1,,,,,,,
,,,,,,0,2.133416307,#a3d0fb,,left_blue.png,w,,,,,,w,left_blue.png,left_orange.png,q,right,60febf9b481b65a36fd8a083,001,2021-08-01_13h28.47.676,arrow_simon_norep,2021.1.2,MacIntel,60.45949214,,,,,,,,,,,,,,,,,,,,,w,1,1.572,39,FALSE,FALSE,9,2,38,3,1,,,,,,,
,,,,,,1,2.382114193,#f3af84,,left_orange.png,q,,,,,,w,left_blue.png,left_orange.png,q,right,60febf9b481b65a36fd8a083,001,2021-08-01_13h28.47.676,arrow_simon_norep,2021.1.2,MacIntel,60.45949214,,,,,,,,,,,,,,,,,,,,,p,0,1.57,40,FALSE,FALSE,9,3,39,3,1,,,,,,,
,,,,,,0,1.732462627,#a3d0fb,,right_blue.png,o,,,,,,o,right_blue.png,right_orange.png,p,right,60febf9b481b65a36fd8a083,001,2021-08-01_13h28.47.676,arrow_simon_norep,2021.1.2,MacIntel,60.45949214,,,,,,,,,,,,,,,,,,,,,o,1,1.405,41,FALSE,FALSE,10,0,40,1,1,,,,,,,
,,,,,,0,1.691282616,#f3af84,,right_orange.png,p,,,,,,o,right_blue.png,right_orange.png,p,right,60febf9b481b65a36fd8a083,001,2021-08-01_13h28.47.676,arrow_simon_norep,2021.1.2,MacIntel,60.45949214,,,,,,,,,,,,,,,,,,,,,p,1,1.506,42,FALSE,FALSE,10,1,41,1,1,,,,,,,
,,,,,,0,1.742368243,#a3d0fb,,right_blue.png,o,,,,,,o,right_blue.png,right_orange.png,p,left,60febf9b481b65a36fd8a083,001,2021-08-01_13h28.47.676,arrow_simon_norep,2021.1.2,MacIntel,60.45949214,,,,,,,,,,,,,,,,,,,,,o,1,1.557,43,FALSE,FALSE,10,2,42,0,1,,,,,,,
,,,,,,0,1.983657468,#f3af84,,left_orange.png,q,,,,,,w,left_blue.png,left_orange.png,q,right,60febf9b481b65a36fd8a083,001,2021-08-01_13h28.47.676,arrow_simon_norep,2021.1.2,MacIntel,60.45949214,,,,,,,,,,,,,,,,,,,,,q,1,1.654,44,TRUE,FALSE,10,3,43,3,1,,,,,,,
,,,,,,1,1.938387296,#a3d0fb,,right_blue.png,o,,,,,,o,right_blue.png,right_orange.png,p,left,60febf9b481b65a36fd8a083,001,2021-08-01_13h28.47.676,arrow_simon_norep,2021.1.2,MacIntel,60.45949214,,,,,,,,,,,,,,,,,,,,,w,0,1.503,45,FALSE,FALSE,11,0,44,0,1,,,,,,,
,,,,,,0,1.99056136,#f3af84,,right_orange.png,p,,,,,,o,right_blue.png,right_orange.png,p,left,60febf9b481b65a36fd8a083,001,2021-08-01_13h28.47.676,arrow_simon_norep,2021.1.2,MacIntel,60.45949214,,,,,,,,,,,,,,,,,,,,,p,1,1.504,46,FALSE,FALSE,11,1,45,0,1,,,,,,,
,,,,,,0,2.047023449,#a3d0fb,,left_blue.png,w,,,,,,w,left_blue.png,left_orange.png,q,left,60febf9b481b65a36fd8a083,001,2021-08-01_13h28.47.676,arrow_simon_norep,2021.1.2,MacIntel,60.45949214,,,,,,,,,,,,,,,,,,,,,w,1,1.572,47,FALSE,FALSE,11,2,46,2,1,,,,,,,
,,,,,,0,1.597917703,#f3af84,,left_orange.png,q,,,,,,w,left_blue.png,left_orange.png,q,left,60febf9b481b65a36fd8a083,001,2021-08-01_13h28.47.676,arrow_simon_norep,2021.1.2,MacIntel,60.45949214,,,,,,,,,,,,,,,,,,,,,q,1,1.638,48,TRUE,FALSE,11,3,47,2,1,,,,,,,
,,,,,,0,2.30745072,#a3d0fb,,left_blue.png,w,,,,,,w,left_blue.png,left_orange.png,q,right,60febf9b481b65a36fd8a083,001,2021-08-01_13h28.47.676,arrow_simon_norep,2021.1.2,MacIntel,60.45949214,,,,,,,,,,,,,,,,,,,,,o,0,1.639,49,TRUE,FALSE,12,0,48,3,1,,,,,,,
,,,,,,0,1.569766817,#f3af84,,right_orange.png,p,,,,,,o,right_blue.png,right_orange.png,p,left,60febf9b481b65a36fd8a083,001,2021-08-01_13h28.47.676,arrow_simon_norep,2021.1.2,MacIntel,60.45949214,,,,,,,,,,,,,,,,,,,,,p,1,1.554,50,FALSE,FALSE,12,1,49,0,1,,,,,,,
,,,,,,1,2.388079132,#a3d0fb,,right_blue.png,o,,,,,,o,right_blue.png,right_orange.png,p,right,60febf9b481b65a36fd8a083,001,2021-08-01_13h28.47.676,arrow_simon_norep,2021.1.2,MacIntel,60.45949214,,,,,,,,,,,,,,,,,,,,,w,0,1.478,51,FALSE,FALSE,12,2,50,1,1,,,,,,,
,,,,,,0,1.802853601,#f3af84,,right_orange.png,p,,,,,,o,right_blue.png,right_orange.png,p,left,60febf9b481b65a36fd8a083,001,2021-08-01_13h28.47.676,arrow_simon_norep,2021.1.2,MacIntel,60.45949214,,,,,,,,,,,,,,,,,,,,,p,1,1.425,52,FALSE,FALSE,12,3,51,0,1,,,,,,,
,,,,,,0,1.754561737,#a3d0fb,,right_blue.png,o,,,,,,o,right_blue.png,right_orange.png,p,right,60febf9b481b65a36fd8a083,001,2021-08-01_13h28.47.676,arrow_simon_norep,2021.1.2,MacIntel,60.45949214,,,,,,,,,,,,,,,,,,,,,o,1,1.442,53,FALSE,FALSE,13,0,52,1,1,,,,,,,
,,,,,,0,2.233002322,#f3af84,,left_orange.png,q,,,,,,w,left_blue.png,left_orange.png,q,left,60febf9b481b65a36fd8a083,001,2021-08-01_13h28.47.676,arrow_simon_norep,2021.1.2,MacIntel,60.45949214,,,,,,,,,,,,,,,,,,,,,q,1,1.553,54,FALSE,FALSE,13,1,53,2,1,,,,,,,
,,,,,,1,2.125954591,#a3d0fb,,left_blue.png,w,,,,,,w,left_blue.png,left_orange.png,q,right,60febf9b481b65a36fd8a083,001,2021-08-01_13h28.47.676,arrow_simon_norep,2021.1.2,MacIntel,60.45949214,,,,,,,,,,,,,,,,,,,,,o,0,1.42,55,FALSE,FALSE,13,2,54,3,1,,,,,,,
,,,,,,0,1.624112775,#f3af84,,left_orange.png,q,,,,,,w,left_blue.png,left_orange.png,q,right,60febf9b481b65a36fd8a083,001,2021-08-01_13h28.47.676,arrow_simon_norep,2021.1.2,MacIntel,60.45949214,,,,,,,,,,,,,,,,,,,,,q,1,1.559,56,FALSE,FALSE,13,3,55,3,1,,,,,,,
,,,,,,0,2.033965419,#a3d0fb,,right_blue.png,o,,,,,,o,right_blue.png,right_orange.png,p,left,60febf9b481b65a36fd8a083,001,2021-08-01_13h28.47.676,arrow_simon_norep,2021.1.2,MacIntel,60.45949214,,,,,,,,,,,,,,,,,,,,,o,1,1.572,57,FALSE,FALSE,14,0,56,0,1,,,,,,,
,,,,,,0,2.243658584,#f3af84,,left_orange.png,q,,,,,,w,left_blue.png,left_orange.png,q,right,60febf9b481b65a36fd8a083,001,2021-08-01_13h28.47.676,arrow_simon_norep,2021.1.2,MacIntel,60.45949214,,,,,,,,,,,,,,,,,,,,,q,1,1.607,58,TRUE,FALSE,14,1,57,3,1,,,,,,,
,,,,,,0,1.787533905,#a3d0fb,,left_blue.png,w,,,,,,w,left_blue.png,left_orange.png,q,left,60febf9b481b65a36fd8a083,001,2021-08-01_13h28.47.676,arrow_simon_norep,2021.1.2,MacIntel,60.45949214,,,,,,,,,,,,,,,,,,,,,w,1,1.553,59,FALSE,FALSE,14,2,58,2,1,,,,,,,
,,,,,,0,1.950073236,#f3af84,,left_orange.png,q,,,,,,w,left_blue.png,left_orange.png,q,left,60febf9b481b65a36fd8a083,001,2021-08-01_13h28.47.676,arrow_simon_norep,2021.1.2,MacIntel,60.45949214,,,,,,,,,,,,,,,,,,,,,q,1,1.507,60,FALSE,FALSE,14,3,59,2,1,,,,,,,
,,,,,,,,,,,,,,,,,,,,,,60febf9b481b65a36fd8a083,001,2021-08-01_13h28.47.676,arrow_simon_norep,2021.1.2,MacIntel,60.45949214,,,,,,,,,,,,,,,,,,,,,,,,,,,,,,,,space,20.863,2,0,2,0,1
,,,,,,1,1.646483658,#a3d0fb,,left_blue.png,w,,,,,,w,left_blue.png,left_orange.png,q,left,60febf9b481b65a36fd8a083,001,2021-08-01_13h28.47.676,arrow_simon_norep,2021.1.2,MacIntel,60.45949214,,,,,,,,,,,,,,,,,,,,,q,0,1.557,1,FALSE,FALSE,0,0,0,2,1,,,,,,,
,,,,,,1,1.860298809,#f3af84,,left_orange.png,q,,,,,,w,left_blue.png,left_orange.png,q,right,60febf9b481b65a36fd8a083,001,2021-08-01_13h28.47.676,arrow_simon_norep,2021.1.2,MacIntel,60.45949214,,,,,,,,,,,,,,,,,,,,,q,1,1.37,2,FALSE,TRUE,0,1,1,3,1,,,,,,,
,,,,,,0,1.940701738,#a3d0fb,,right_blue.png,o,,,,,,o,right_blue.png,right_orange.png,p,right,60febf9b481b65a36fd8a083,001,2021-08-01_13h28.47.676,arrow_simon_norep,2021.1.2,MacIntel,60.45949214,,,,,,,,,,,,,,,,,,,,,o,1,1.459,3,FALSE,FALSE,0,2,2,1,1,,,,,,,
,,,,,,0,1.80143254,#f3af84,,left_orange.png,q,,,,,,w,left_blue.png,left_orange.png,q,right,60febf9b481b65a36fd8a083,001,2021-08-01_13h28.47.676,arrow_simon_norep,2021.1.2,MacIntel,60.45949214,,,,,,,,,,,,,,,,,,,,,q,1,1.487,4,FALSE,FALSE,0,3,3,3,1,,,,,,,
,,,,,,0,1.594958634,#a3d0fb,,right_blue.png,o,,,,,,o,right_blue.png,right_orange.png,p,right,60febf9b481b65a36fd8a083,001,2021-08-01_13h28.47.676,arrow_simon_norep,2021.1.2,MacIntel,60.45949214,,,,,,,,,,,,,,,,,,,,,o,1,1.521,5,FALSE,FALSE,1,0,4,1,1,,,,,,,
,,,,,,0,1.849900402,#f3af84,,right_orange.png,p,,,,,,o,right_blue.png,right_orange.png,p,left,60febf9b481b65a36fd8a083,001,2021-08-01_13h28.47.676,arrow_simon_norep,2021.1.2,MacIntel,60.45949214,,,,,,,,,,,,,,,,,,,,,p,1,1.474,6,FALSE,FALSE,1,1,5,0,1,,,,,,,
,,,,,,0,1.643782401,#a3d0fb,,right_blue.png,o,,,,,,o,right_blue.png,right_orange.png,p,right,60febf9b481b65a36fd8a083,001,2021-08-01_13h28.47.676,arrow_simon_norep,2021.1.2,MacIntel,60.45949214,,,,,,,,,,,,,,,,,,,,,o,1,1.554,7,FALSE,FALSE,1,2,6,1,1,,,,,,,
,,,,,,0,2.495784116,#f3af84,,left_orange.png,q,,,,,,w,left_blue.png,left_orange.png,q,left,60febf9b481b65a36fd8a083,001,2021-08-01_13h28.47.676,arrow_simon_norep,2021.1.2,MacIntel,60.45949214,,,,,,,,,,,,,,,,,,,,,q,1,1.721,8,TRUE,FALSE,1,3,7,2,1,,,,,,,
,,,,,,0,1.583199896,#a3d0fb,,left_blue.png,w,,,,,,w,left_blue.png,left_orange.png,q,right,60febf9b481b65a36fd8a083,001,2021-08-01_13h28.47.676,arrow_simon_norep,2021.1.2,MacIntel,60.45949214,,,,,,,,,,,,,,,,,,,,,w,1,1.538,9,FALSE,FALSE,2,0,8,3,1,,,,,,,
,,,,,,1,2.372652896,#f3af84,,left_orange.png,q,,,,,,w,left_blue.png,left_orange.png,q,right,60febf9b481b65a36fd8a083,001,2021-08-01_13h28.47.676,arrow_simon_norep,2021.1.2,MacIntel,60.45949214,,,,,,,,,,,,,,,,,,,,,p,0,1.574,10,FALSE,FALSE,2,1,9,3,1,,,,,,,
,,,,,,0,1.65900137,#a3d0fb,,right_blue.png,o,,,,,,o,right_blue.png,right_orange.png,p,left,60febf9b481b65a36fd8a083,001,2021-08-01_13h28.47.676,arrow_simon_norep,2021.1.2,MacIntel,60.45949214,,,,,,,,,,,,,,,,,,,,,o,1,1.491,11,FALSE,FALSE,2,2,10,0,1,,,,,,,
,,,,,,1,2.22074332,#f3af84,,right_orange.png,p,,,,,,o,right_blue.png,right_orange.png,p,right,60febf9b481b65a36fd8a083,001,2021-08-01_13h28.47.676,arrow_simon_norep,2021.1.2,MacIntel,60.45949214,,,,,,,,,,,,,,,,,,,,,q,0,1.572,12,FALSE,FALSE,2,3,11,1,1,,,,,,,
,,,,,,0,2.237625466,#a3d0fb,,right_blue.png,o,,,,,,o,right_blue.png,right_orange.png,p,right,60febf9b481b65a36fd8a083,001,2021-08-01_13h28.47.676,arrow_simon_norep,2021.1.2,MacIntel,60.45949214,,,,,,,,,,,,,,,,,,,,,o,1,1.536,13,FALSE,FALSE,3,0,12,1,1,,,,,,,
,,,,,,0,1.784912901,#f3af84,,right_orange.png,p,,,,,,o,right_blue.png,right_orange.png,p,right,60febf9b481b65a36fd8a083,001,2021-08-01_13h28.47.676,arrow_simon_norep,2021.1.2,MacIntel,60.45949214,,,,,,,,,,,,,,,,,,,,,p,1,1.607,14,TRUE,FALSE,3,1,13,1,1,,,,,,,
,,,,,,1,2.259425249,#a3d0fb,,right_blue.png,o,,,,,,o,right_blue.png,right_orange.png,p,left,60febf9b481b65a36fd8a083,001,2021-08-01_13h28.47.676,arrow_simon_norep,2021.1.2,MacIntel,60.45949214,,,,,,,,,,,,,,,,,,,,,w,0,1.509,15,FALSE,FALSE,3,2,14,0,1,,,,,,,
,,,,,,0,1.694846305,#f3af84,,right_orange.png,p,,,,,,o,right_blue.png,right_orange.png,p,left,60febf9b481b65a36fd8a083,001,2021-08-01_13h28.47.676,arrow_simon_norep,2021.1.2,MacIntel,60.45949214,,,,,,,,,,,,,,,,,,,,,p,1,1.52,16,FALSE,FALSE,3,3,15,0,1,,,,,,,
,,,,,,0,1.664512808,#a3d0fb,,right_blue.png,o,,,,,,o,right_blue.png,right_orange.png,p,left,60febf9b481b65a36fd8a083,001,2021-08-01_13h28.47.676,arrow_simon_norep,2021.1.2,MacIntel,60.45949214,,,,,,,,,,,,,,,,,,,,,o,1,1.502,17,FALSE,FALSE,4,0,16,0,1,,,,,,,
,,,,,,1,2.331297864,#f3af84,,left_orange.png,q,,,,,,w,left_blue.png,left_orange.png,q,right,60febf9b481b65a36fd8a083,001,2021-08-01_13h28.47.676,arrow_simon_norep,2021.1.2,MacIntel,60.45949214,,,,,,,,,,,,,,,,,,,,,p,0,1.537,18,FALSE,FALSE,4,1,17,3,1,,,,,,,
,,,,,,1,2.037712864,#a3d0fb,,right_blue.png,o,,,,,,o,right_blue.png,right_orange.png,p,left,60febf9b481b65a36fd8a083,001,2021-08-01_13h28.47.676,arrow_simon_norep,2021.1.2,MacIntel,60.45949214,,,,,,,,,,,,,,,,,,,,,o,1,1.071,19,FALSE,TRUE,4,2,18,0,1,,,,,,,
,,,,,,0,1.73737734,#f3af84,,right_orange.png,p,,,,,,o,right_blue.png,right_orange.png,p,right,60febf9b481b65a36fd8a083,001,2021-08-01_13h28.47.676,arrow_simon_norep,2021.1.2,MacIntel,60.45949214,,,,,,,,,,,,,,,,,,,,,p,1,1.576,20,FALSE,FALSE,4,3,19,1,1,,,,,,,
,,,,,,0,2.243164781,#a3d0fb,,left_blue.png,w,,,,,,w,left_blue.png,left_orange.png,q,left,60febf9b481b65a36fd8a083,001,2021-08-01_13h28.47.676,arrow_simon_norep,2021.1.2,MacIntel,60.45949214,,,,,,,,,,,,,,,,,,,,,w,1,1.505,21,FALSE,FALSE,5,0,20,2,1,,,,,,,
,,,,,,0,1.591170315,#f3af84,,right_orange.png,p,,,,,,o,right_blue.png,right_orange.png,p,right,60febf9b481b65a36fd8a083,001,2021-08-01_13h28.47.676,arrow_simon_norep,2021.1.2,MacIntel,60.45949214,,,,,,,,,,,,,,,,,,,,,p,1,1.394,22,FALSE,TRUE,5,1,21,1,1,,,,,,,
,,,,,,0,1.549768356,#a3d0fb,,right_blue.png,o,,,,,,o,right_blue.png,right_orange.png,p,left,60febf9b481b65a36fd8a083,001,2021-08-01_13h28.47.676,arrow_simon_norep,2021.1.2,MacIntel,60.45949214,,,,,,,,,,,,,,,,,,,,,o,1,1.587,23,FALSE,FALSE,5,2,22,0,1,,,,,,,
,,,,,,1,2.436555387,#f3af84,,left_orange.png,q,,,,,,w,left_blue.png,left_orange.png,q,left,60febf9b481b65a36fd8a083,001,2021-08-01_13h28.47.676,arrow_simon_norep,2021.1.2,MacIntel,60.45949214,,,,,,,,,,,,,,,,,,,,,p,0,1.575,24,FALSE,FALSE,5,3,23,2,1,,,,,,,
,,,,,,0,2.042511355,#a3d0fb,,left_blue.png,w,,,,,,w,left_blue.png,left_orange.png,q,right,60febf9b481b65a36fd8a083,001,2021-08-01_13h28.47.676,arrow_simon_norep,2021.1.2,MacIntel,60.45949214,,,,,,,,,,,,,,,,,,,,,w,1,1.442,25,FALSE,FALSE,6,0,24,3,1,,,,,,,
,,,,,,1,2.496187315,#f3af84,,left_orange.png,q,,,,,,w,left_blue.png,left_orange.png,q,left,60febf9b481b65a36fd8a083,001,2021-08-01_13h28.47.676,arrow_simon_norep,2021.1.2,MacIntel,60.45949214,,,,,,,,,,,,,,,,,,,,,p,0,1.425,26,FALSE,FALSE,6,1,25,2,1,,,,,,,
,,,,,,0,1.846611689,#a3d0fb,,right_blue.png,o,,,,,,o,right_blue.png,right_orange.png,p,left,60febf9b481b65a36fd8a083,001,2021-08-01_13h28.47.676,arrow_simon_norep,2021.1.2,MacIntel,60.45949214,,,,,,,,,,,,,,,,,,,,,o,1,1.507,27,FALSE,FALSE,6,2,26,0,1,,,,,,,
,,,,,,0,1.987910115,#f3af84,,left_orange.png,q,,,,,,w,left_blue.png,left_orange.png,q,right,60febf9b481b65a36fd8a083,001,2021-08-01_13h28.47.676,arrow_simon_norep,2021.1.2,MacIntel,60.45949214,,,,,,,,,,,,,,,,,,,,,q,1,1.506,28,FALSE,FALSE,6,3,27,3,1,,,,,,,
,,,,,,0,1.905630905,#a3d0fb,,left_blue.png,w,,,,,,w,left_blue.png,left_orange.png,q,left,60febf9b481b65a36fd8a083,001,2021-08-01_13h28.47.676,arrow_simon_norep,2021.1.2,MacIntel,60.45949214,,,,,,,,,,,,,,,,,,,,,w,1,1.505,29,FALSE,FALSE,7,0,28,2,1,,,,,,,
,,,,,,0,2.472805908,#f3af84,,right_orange.png,p,,,,,,o,right_blue.png,right_orange.png,p,right,60febf9b481b65a36fd8a083,001,2021-08-01_13h28.47.676,arrow_simon_norep,2021.1.2,MacIntel,60.45949214,,,,,,,,,,,,,,,,,,,,,p,1,1.572,30,FALSE,FALSE,7,1,29,1,1,,,,,,,
,,,,,,0,2.376760254,#a3d0fb,,right_blue.png,o,,,,,,o,right_blue.png,right_orange.png,p,left,60febf9b481b65a36fd8a083,001,2021-08-01_13h28.47.676,arrow_simon_norep,2021.1.2,MacIntel,60.45949214,,,,,,,,,,,,,,,,,,,,,w,0,1.705,31,TRUE,FALSE,7,2,30,0,1,,,,,,,
,,,,,,0,1.728683583,#f3af84,,right_orange.png,p,,,,,,o,right_blue.png,right_orange.png,p,right,60febf9b481b65a36fd8a083,001,2021-08-01_13h28.47.676,arrow_simon_norep,2021.1.2,MacIntel,60.45949214,,,,,,,,,,,,,,,,,,,,,p,1,1.537,32,FALSE,FALSE,7,3,31,1,1,,,,,,,
,,,,,,0,2.006415179,#a3d0fb,,right_blue.png,o,,,,,,o,right_blue.png,right_orange.png,p,right,60febf9b481b65a36fd8a083,001,2021-08-01_13h28.47.676,arrow_simon_norep,2021.1.2,MacIntel,60.45949214,,,,,,,,,,,,,,,,,,,,,p,0,1.622,33,TRUE,FALSE,8,0,32,1,1,,,,,,,
,,,,,,0,1.746487709,#f3af84,,right_orange.png,p,,,,,,o,right_blue.png,right_orange.png,p,right,60febf9b481b65a36fd8a083,001,2021-08-01_13h28.47.676,arrow_simon_norep,2021.1.2,MacIntel,60.45949214,,,,,,,,,,,,,,,,,,,,,p,1,1.569,34,FALSE,FALSE,8,1,33,1,1,,,,,,,
,,,,,,1,2.215631777,#a3d0fb,,right_blue.png,o,,,,,,o,right_blue.png,right_orange.png,p,left,60febf9b481b65a36fd8a083,001,2021-08-01_13h28.47.676,arrow_simon_norep,2021.1.2,MacIntel,60.45949214,,,,,,,,,,,,,,,,,,,,,w,0,1.487,35,FALSE,FALSE,8,2,34,0,1,,,,,,,
,,,,,,0,1.770967407,#f3af84,,left_orange.png,q,,,,,,w,left_blue.png,left_orange.png,q,right,60febf9b481b65a36fd8a083,001,2021-08-01_13h28.47.676,arrow_simon_norep,2021.1.2,MacIntel,60.45949214,,,,,,,,,,,,,,,,,,,,,q,1,1.523,36,FALSE,FALSE,8,3,35,3,1,,,,,,,
,,,,,,0,2.139218236,#a3d0fb,,right_blue.png,o,,,,,,o,right_blue.png,right_orange.png,p,left,60febf9b481b65a36fd8a083,001,2021-08-01_13h28.47.676,arrow_simon_norep,2021.1.2,MacIntel,60.45949214,,,,,,,,,,,,,,,,,,,,,o,1,1.555,37,FALSE,FALSE,9,0,36,0,1,,,,,,,
,,,,,,0,1.632787966,#f3af84,,left_orange.png,q,,,,,,w,left_blue.png,left_orange.png,q,right,60febf9b481b65a36fd8a083,001,2021-08-01_13h28.47.676,arrow_simon_norep,2021.1.2,MacIntel,60.45949214,,,,,,,,,,,,,,,,,,,,,q,1,1.534,38,FALSE,FALSE,9,1,37,3,1,,,,,,,
,,,,,,1,2.446240241,#a3d0fb,,left_blue.png,w,,,,,,w,left_blue.png,left_orange.png,q,left,60febf9b481b65a36fd8a083,001,2021-08-01_13h28.47.676,arrow_simon_norep,2021.1.2,MacIntel,60.45949214,,,,,,,,,,,,,,,,,,,,,o,0,1.555,39,FALSE,FALSE,9,2,38,2,1,,,,,,,
,,,,,,0,1.797491413,#f3af84,,left_orange.png,q,,,,,,w,left_blue.png,left_orange.png,q,left,60febf9b481b65a36fd8a083,001,2021-08-01_13h28.47.676,arrow_simon_norep,2021.1.2,MacIntel,60.45949214,,,,,,,,,,,,,,,,,,,,,q,1,1.425,40,FALSE,FALSE,9,3,39,2,1,,,,,,,
,,,,,,0,2.102652946,#a3d0fb,,left_blue.png,w,,,,,,w,left_blue.png,left_orange.png,q,right,60febf9b481b65a36fd8a083,001,2021-08-01_13h28.47.676,arrow_simon_norep,2021.1.2,MacIntel,60.45949214,,,,,,,,,,,,,,,,,,,,,w,1,1.537,41,FALSE,FALSE,10,0,40,3,1,,,,,,,
,,,,,,0,1.689747611,#f3af84,,right_orange.png,p,,,,,,o,right_blue.png,right_orange.png,p,left,60febf9b481b65a36fd8a083,001,2021-08-01_13h28.47.676,arrow_simon_norep,2021.1.2,MacIntel,60.45949214,,,,,,,,,,,,,,,,,,,,,p,1,1.554,42,FALSE,FALSE,10,1,41,0,1,,,,,,,
,,,,,,0,2.054649894,#a3d0fb,,left_blue.png,w,,,,,,w,left_blue.png,left_orange.png,q,left,60febf9b481b65a36fd8a083,001,2021-08-01_13h28.47.676,arrow_simon_norep,2021.1.2,MacIntel,60.45949214,,,,,,,,,,,,,,,,,,,,,w,1,1.571,43,FALSE,FALSE,10,2,42,2,1,,,,,,,
,,,,,,0,1.751723043,#f3af84,,left_orange.png,q,,,,,,w,left_blue.png,left_orange.png,q,left,60febf9b481b65a36fd8a083,001,2021-08-01_13h28.47.676,arrow_simon_norep,2021.1.2,MacIntel,60.45949214,,,,,,,,,,,,,,,,,,,,,q,1,1.588,44,FALSE,FALSE,10,3,43,2,1,,,,,,,
,,,,,,0,1.52506216,#a3d0fb,,left_blue.png,w,,,,,,w,left_blue.png,left_orange.png,q,right,60febf9b481b65a36fd8a083,001,2021-08-01_13h28.47.676,arrow_simon_norep,2021.1.2,MacIntel,60.45949214,,,,,,,,,,,,,,,,,,,,,w,1,1.554,45,FALSE,FALSE,11,0,44,3,1,,,,,,,
,,,,,,0,1.686013809,#f3af84,,right_orange.png,p,,,,,,o,right_blue.png,right_orange.png,p,left,60febf9b481b65a36fd8a083,001,2021-08-01_13h28.47.676,arrow_simon_norep,2021.1.2,MacIntel,60.45949214,,,,,,,,,,,,,,,,,,,,,p,1,1.526,46,FALSE,FALSE,11,1,45,0,1,,,,,,,
,,,,,,0,2.085695353,#a3d0fb,,right_blue.png,o,,,,,,o,right_blue.png,right_orange.png,p,left,60febf9b481b65a36fd8a083,001,2021-08-01_13h28.47.676,arrow_simon_norep,2021.1.2,MacIntel,60.45949214,,,,,,,,,,,,,,,,,,,,,o,1,1.593,47,FALSE,FALSE,11,2,46,0,1,,,,,,,
