instruct_resp_simon.keys,instruct_resp_simon.corr,instruct_resp_simon.rt,trial_resp_simon.keys,trial_resp_simon.corr,trial_resp_simon.rt,kerr,target_onset,target_color,target_pos,target_file,target_resp,trials_train_simon.thisRepN,trials_train_simon.thisTrialN,trials_train_simon.thisN,trials_train_simon.thisIndex,trials_train_simon.ran,odd_target_resp,odd_target_file,even_target_file,even_target_resp,target_side,participant,session,date,expName,psychopyVersion,OS,frameRate,train_block_note_resp.keys,train_block_note_resp.rt,blocks_train.thisRepN,blocks_train.thisTrialN,blocks_train.thisN,blocks_train.thisIndex,blocks_train.ran,instruct_resp_timing.keys,instruct_resp_timing.corr,instruct_resp_timing.rt,trial_resp_timing.keys,trial_resp_timing.rt,trials_train_timing.thisRepN,trials_train_timing.thisTrialN,trials_train_timing.thisN,trials_train_timing.thisIndex,trials_train_timing.ran,instruct_resp.keys,instruct_resp.corr,instruct_resp.rt,trial_resp.keys,trial_resp.corr,trial_resp.rt,trial_num,too_slow,too_soon,trials.thisRepN,trials.thisTrialN,trials.thisN,trials.thisIndex,trials.ran,block_note_resp.keys,block_note_resp.rt,blocks.thisRepN,blocks.thisTrialN,blocks.thisN,blocks.thisIndex,blocks.ran
space,0,29.5226,o,0,4.9471,1,0.259097578,#a3d0fb,,left_blue.png,w,0,0,0,3,1,w,left_blue.png,left_orange.png,q,right,60fe1580147adc7ebeb315e6,001,2021-08-01_10h29.35.624,arrow_simon_norep,2021.1.2,MacIntel,60.0024001,,,,,,,,,,,,,,,,,,,,,,,,,,,,,,,,,,,,,,
,,,w,0,2.1004,1,0.942561624,#f3af84,,right_orange.png,p,0,1,1,1,1,o,right_blue.png,right_orange.png,p,right,60fe1580147adc7ebeb315e6,001,2021-08-01_10h29.35.624,arrow_simon_norep,2021.1.2,MacIntel,60.0024001,,,,,,,,,,,,,,,,,,,,,,,,,,,,,,,,,,,,,,
,,,w,1,1.3774,0,0.694724906,#a3d0fb,,left_blue.png,w,0,2,2,3,1,w,left_blue.png,left_orange.png,q,right,60fe1580147adc7ebeb315e6,001,2021-08-01_10h29.35.624,arrow_simon_norep,2021.1.2,MacIntel,60.0024001,,,,,,,,,,,,,,,,,,,,,,,,,,,,,,,,,,,,,,
,,,o,0,1.4604,1,0.742757496,#f3af84,,right_orange.png,p,0,3,3,0,1,o,right_blue.png,right_orange.png,p,left,60fe1580147adc7ebeb315e6,001,2021-08-01_10h29.35.624,arrow_simon_norep,2021.1.2,MacIntel,60.0024001,,,,,,,,,,,,,,,,,,,,,,,,,,,,,,,,,,,,,,
,,,w,1,1.6594,0,0.324766501,#a3d0fb,,left_blue.png,w,1,0,4,3,1,w,left_blue.png,left_orange.png,q,right,60fe1580147adc7ebeb315e6,001,2021-08-01_10h29.35.624,arrow_simon_norep,2021.1.2,MacIntel,60.0024001,,,,,,,,,,,,,,,,,,,,,,,,,,,,,,,,,,,,,,
,,,q,1,2.4499,0,0.440652087,#f3af84,,left_orange.png,q,1,1,5,2,1,w,left_blue.png,left_orange.png,q,left,60fe1580147adc7ebeb315e6,001,2021-08-01_10h29.35.624,arrow_simon_norep,2021.1.2,MacIntel,60.0024001,,,,,,,,,,,,,,,,,,,,,,,,,,,,,,,,,,,,,,
,,,o,1,3.0147,0,0.978263249,#a3d0fb,,right_blue.png,o,1,2,6,0,1,o,right_blue.png,right_orange.png,p,left,60fe1580147adc7ebeb315e6,001,2021-08-01_10h29.35.624,arrow_simon_norep,2021.1.2,MacIntel,60.0024001,,,,,,,,,,,,,,,,,,,,,,,,,,,,,,,,,,,,,,
,,,q,1,1.497,0,0.54087583,#f3af84,,left_orange.png,q,1,3,7,2,1,w,left_blue.png,left_orange.png,q,left,60fe1580147adc7ebeb315e6,001,2021-08-01_10h29.35.624,arrow_simon_norep,2021.1.2,MacIntel,60.0024001,,,,,,,,,,,,,,,,,,,,,,,,,,,,,,,,,,,,,,
,,,p,0,1.0683,1,0.341433756,#a3d0fb,,right_blue.png,o,2,0,8,0,1,o,right_blue.png,right_orange.png,p,left,60fe1580147adc7ebeb315e6,001,2021-08-01_10h29.35.624,arrow_simon_norep,2021.1.2,MacIntel,60.0024001,,,,,,,,,,,,,,,,,,,,,,,,,,,,,,,,,,,,,,
,,,q,1,2.7383,0,0.032392991,#f3af84,,left_orange.png,q,2,1,9,2,1,w,left_blue.png,left_orange.png,q,left,60fe1580147adc7ebeb315e6,001,2021-08-01_10h29.35.624,arrow_simon_norep,2021.1.2,MacIntel,60.0024001,,,,,,,,,,,,,,,,,,,,,,,,,,,,,,,,,,,,,,
,,,w,1,1.6446,0,0.705836482,#a3d0fb,,left_blue.png,w,2,2,10,2,1,w,left_blue.png,left_orange.png,q,left,60fe1580147adc7ebeb315e6,001,2021-08-01_10h29.35.624,arrow_simon_norep,2021.1.2,MacIntel,60.0024001,,,,,,,,,,,,,,,,,,,,,,,,,,,,,,,,,,,,,,
,,,q,1,1.6588,0,0.869242336,#f3af84,,left_orange.png,q,2,3,11,2,1,w,left_blue.png,left_orange.png,q,left,60fe1580147adc7ebeb315e6,001,2021-08-01_10h29.35.624,arrow_simon_norep,2021.1.2,MacIntel,60.0024001,,,,,,,,,,,,,,,,,,,,,,,,,,,,,,,,,,,,,,
,,,o,1,1.7653,0,0.760637993,#a3d0fb,,right_blue.png,o,3,0,12,0,1,o,right_blue.png,right_orange.png,p,left,60fe1580147adc7ebeb315e6,001,2021-08-01_10h29.35.624,arrow_simon_norep,2021.1.2,MacIntel,60.0024001,,,,,,,,,,,,,,,,,,,,,,,,,,,,,,,,,,,,,,
,,,p,1,1.6327,0,0.037761164,#f3af84,,right_orange.png,p,3,1,13,0,1,o,right_blue.png,right_orange.png,p,left,60fe1580147adc7ebeb315e6,001,2021-08-01_10h29.35.624,arrow_simon_norep,2021.1.2,MacIntel,60.0024001,,,,,,,,,,,,,,,,,,,,,,,,,,,,,,,,,,,,,,
,,,o,1,1.7683,0,0.74850904,#a3d0fb,,right_blue.png,o,3,2,14,0,1,o,right_blue.png,right_orange.png,p,left,60fe1580147adc7ebeb315e6,001,2021-08-01_10h29.35.624,arrow_simon_norep,2021.1.2,MacIntel,60.0024001,,,,,,,,,,,,,,,,,,,,,,,,,,,,,,,,,,,,,,
,,,p,1,1.3336,0,0.61566935,#f3af84,,right_orange.png,p,3,3,15,0,1,o,right_blue.png,right_orange.png,p,left,60fe1580147adc7ebeb315e6,001,2021-08-01_10h29.35.624,arrow_simon_norep,2021.1.2,MacIntel,60.0024001,,,,,,,,,,,,,,,,,,,,,,,,,,,,,,,,,,,,,,
,,,w,1,0.9511,0,0.268678783,#a3d0fb,,left_blue.png,w,4,0,16,3,1,w,left_blue.png,left_orange.png,q,right,60fe1580147adc7ebeb315e6,001,2021-08-01_10h29.35.624,arrow_simon_norep,2021.1.2,MacIntel,60.0024001,,,,,,,,,,,,,,,,,,,,,,,,,,,,,,,,,,,,,,
,,,p,1,1.7645,0,0.692170199,#f3af84,,right_orange.png,p,4,1,17,1,1,o,right_blue.png,right_orange.png,p,right,60fe1580147adc7ebeb315e6,001,2021-08-01_10h29.35.624,arrow_simon_norep,2021.1.2,MacIntel,60.0024001,,,,,,,,,,,,,,,,,,,,,,,,,,,,,,,,,,,,,,
,,,w,1,1.2181,0,0.504116065,#a3d0fb,,left_blue.png,w,4,2,18,3,1,w,left_blue.png,left_orange.png,q,right,60fe1580147adc7ebeb315e6,001,2021-08-01_10h29.35.624,arrow_simon_norep,2021.1.2,MacIntel,60.0024001,,,,,,,,,,,,,,,,,,,,,,,,,,,,,,,,,,,,,,
,,,p,1,1.4366,0,0.753864143,#f3af84,,right_orange.png,p,4,3,19,0,1,o,right_blue.png,right_orange.png,p,left,60fe1580147adc7ebeb315e6,001,2021-08-01_10h29.35.624,arrow_simon_norep,2021.1.2,MacIntel,60.0024001,,,,,,,,,,,,,,,,,,,,,,,,,,,,,,,,,,,,,,
,,,q,0,1.4342,1,0.734929708,#a3d0fb,,left_blue.png,w,5,0,20,2,1,w,left_blue.png,left_orange.png,q,left,60fe1580147adc7ebeb315e6,001,2021-08-01_10h29.35.624,arrow_simon_norep,2021.1.2,MacIntel,60.0024001,,,,,,,,,,,,,,,,,,,,,,,,,,,,,,,,,,,,,,
,,,p,1,1.9111,0,0.916573362,#f3af84,,right_orange.png,p,5,1,21,0,1,o,right_blue.png,right_orange.png,p,left,60fe1580147adc7ebeb315e6,001,2021-08-01_10h29.35.624,arrow_simon_norep,2021.1.2,MacIntel,60.0024001,,,,,,,,,,,,,,,,,,,,,,,,,,,,,,,,,,,,,,
,,,w,1,1.8266,0,0.974708185,#a3d0fb,,left_blue.png,w,5,2,22,3,1,w,left_blue.png,left_orange.png,q,right,60fe1580147adc7ebeb315e6,001,2021-08-01_10h29.35.624,arrow_simon_norep,2021.1.2,MacIntel,60.0024001,,,,,,,,,,,,,,,,,,,,,,,,,,,,,,,,,,,,,,
,,,q,1,0.7807,0,0.070424522,#f3af84,,left_orange.png,q,5,3,23,3,1,w,left_blue.png,left_orange.png,q,right,60fe1580147adc7ebeb315e6,001,2021-08-01_10h29.35.624,arrow_simon_norep,2021.1.2,MacIntel,60.0024001,,,,,,,,,,,,,,,,,,,,,,,,,,,,,,,,,,,,,,
,,,w,1,0.7639,0,0.089603601,#a3d0fb,,left_blue.png,w,6,0,24,3,1,w,left_blue.png,left_orange.png,q,right,60fe1580147adc7ebeb315e6,001,2021-08-01_10h29.35.624,arrow_simon_norep,2021.1.2,MacIntel,60.0024001,,,,,,,,,,,,,,,,,,,,,,,,,,,,,,,,,,,,,,
,,,p,1,0.9297,0,0.111485513,#f3af84,,right_orange.png,p,6,1,25,0,1,o,right_blue.png,right_orange.png,p,left,60fe1580147adc7ebeb315e6,001,2021-08-01_10h29.35.624,arrow_simon_norep,2021.1.2,MacIntel,60.0024001,,,,,,,,,,,,,,,,,,,,,,,,,,,,,,,,,,,,,,
,,,o,1,1.049,0,0.031388866,#a3d0fb,,right_blue.png,o,6,2,26,1,1,o,right_blue.png,right_orange.png,p,right,60fe1580147adc7ebeb315e6,001,2021-08-01_10h29.35.624,arrow_simon_norep,2021.1.2,MacIntel,60.0024001,,,,,,,,,,,,,,,,,,,,,,,,,,,,,,,,,,,,,,
,,,p,1,1.7312,0,0.997669647,#f3af84,,right_orange.png,p,6,3,27,1,1,o,right_blue.png,right_orange.png,p,right,60fe1580147adc7ebeb315e6,001,2021-08-01_10h29.35.624,arrow_simon_norep,2021.1.2,MacIntel,60.0024001,,,,,,,,,,,,,,,,,,,,,,,,,,,,,,,,,,,,,,
,,,o,1,1.5603,0,0.833003071,#a3d0fb,,right_blue.png,o,7,0,28,0,1,o,right_blue.png,right_orange.png,p,left,60fe1580147adc7ebeb315e6,001,2021-08-01_10h29.35.624,arrow_simon_norep,2021.1.2,MacIntel,60.0024001,,,,,,,,,,,,,,,,,,,,,,,,,,,,,,,,,,,,,,
,,,p,1,1.2005,0,0.390849801,#f3af84,,right_orange.png,p,7,1,29,1,1,o,right_blue.png,right_orange.png,p,right,60fe1580147adc7ebeb315e6,001,2021-08-01_10h29.35.624,arrow_simon_norep,2021.1.2,MacIntel,60.0024001,,,,,,,,,,,,,,,,,,,,,,,,,,,,,,,,,,,,,,
,,,o,1,1.2635,0,0.411239373,#a3d0fb,,right_blue.png,o,7,2,30,1,1,o,right_blue.png,right_orange.png,p,right,60fe1580147adc7ebeb315e6,001,2021-08-01_10h29.35.624,arrow_simon_norep,2021.1.2,MacIntel,60.0024001,,,,,,,,,,,,,,,,,,,,,,,,,,,,,,,,,,,,,,
,,,p,1,1.0547,0,0.307576291,#f3af84,,right_orange.png,p,7,3,31,1,1,o,right_blue.png,right_orange.png,p,right,60fe1580147adc7ebeb315e6,001,2021-08-01_10h29.35.624,arrow_simon_norep,2021.1.2,MacIntel,60.0024001,,,,,,,,,,,,,,,,,,,,,,,,,,,,,,,,,,,,,,
,,,o,1,0.9842,0,0.3946815,#a3d0fb,,right_blue.png,o,8,0,32,1,1,o,right_blue.png,right_orange.png,p,right,60fe1580147adc7ebeb315e6,001,2021-08-01_10h29.35.624,arrow_simon_norep,2021.1.2,MacIntel,60.0024001,,,,,,,,,,,,,,,,,,,,,,,,,,,,,,,,,,,,,,
,,,p,1,1.4172,0,0.982015139,#f3af84,,right_orange.png,p,8,1,33,1,1,o,right_blue.png,right_orange.png,p,right,60fe1580147adc7ebeb315e6,001,2021-08-01_10h29.35.624,arrow_simon_norep,2021.1.2,MacIntel,60.0024001,,,,,,,,,,,,,,,,,,,,,,,,,,,,,,,,,,,,,,
,,,o,1,1.4673,0,0.73003094,#a3d0fb,,right_blue.png,o,8,2,34,1,1,o,right_blue.png,right_orange.png,p,right,60fe1580147adc7ebeb315e6,001,2021-08-01_10h29.35.624,arrow_simon_norep,2021.1.2,MacIntel,60.0024001,,,,,,,,,,,,,,,,,,,,,,,,,,,,,,,,,,,,,,
,,,q,1,1.7614,0,0.684295616,#f3af84,,left_orange.png,q,8,3,35,3,1,w,left_blue.png,left_orange.png,q,right,60fe1580147adc7ebeb315e6,001,2021-08-01_10h29.35.624,arrow_simon_norep,2021.1.2,MacIntel,60.0024001,,,,,,,,,,,,,,,,,,,,,,,,,,,,,,,,,,,,,,
,,,o,1,1.5438,0,0.870299587,#a3d0fb,,right_blue.png,o,9,0,36,0,1,o,right_blue.png,right_orange.png,p,left,60fe1580147adc7ebeb315e6,001,2021-08-01_10h29.35.624,arrow_simon_norep,2021.1.2,MacIntel,60.0024001,,,,,,,,,,,,,,,,,,,,,,,,,,,,,,,,,,,,,,
,,,q,1,0.949,0,0.191563566,#f3af84,,left_orange.png,q,9,1,37,2,1,w,left_blue.png,left_orange.png,q,left,60fe1580147adc7ebeb315e6,001,2021-08-01_10h29.35.624,arrow_simon_norep,2021.1.2,MacIntel,60.0024001,,,,,,,,,,,,,,,,,,,,,,,,,,,,,,,,,,,,,,
,,,o,1,1.0535,0,0.356570592,#a3d0fb,,right_blue.png,o,9,2,38,0,1,o,right_blue.png,right_orange.png,p,left,60fe1580147adc7ebeb315e6,001,2021-08-01_10h29.35.624,arrow_simon_norep,2021.1.2,MacIntel,60.0024001,,,,,,,,,,,,,,,,,,,,,,,,,,,,,,,,,,,,,,
,,,q,1,1.2475,0,0.675059259,#f3af84,,left_orange.png,q,9,3,39,2,1,w,left_blue.png,left_orange.png,q,left,60fe1580147adc7ebeb315e6,001,2021-08-01_10h29.35.624,arrow_simon_norep,2021.1.2,MacIntel,60.0024001,,,,,,,,,,,,,,,,,,,,,,,,,,,,,,,,,,,,,,
,,,w,1,1.4013,0,0.762370923,#a3d0fb,,left_blue.png,w,10,0,40,3,1,w,left_blue.png,left_orange.png,q,right,60fe1580147adc7ebeb315e6,001,2021-08-01_10h29.35.624,arrow_simon_norep,2021.1.2,MacIntel,60.0024001,,,,,,,,,,,,,,,,,,,,,,,,,,,,,,,,,,,,,,
,,,q,1,0.8158,0,0.212063499,#f3af84,,left_orange.png,q,10,1,41,3,1,w,left_blue.png,left_orange.png,q,right,60fe1580147adc7ebeb315e6,001,2021-08-01_10h29.35.624,arrow_simon_norep,2021.1.2,MacIntel,60.0024001,,,,,,,,,,,,,,,,,,,,,,,,,,,,,,,,,,,,,,
,,,w,1,1.5976,0,0.914144847,#a3d0fb,,left_blue.png,w,10,2,42,3,1,w,left_blue.png,left_orange.png,q,right,60fe1580147adc7ebeb315e6,001,2021-08-01_10h29.35.624,arrow_simon_norep,2021.1.2,MacIntel,60.0024001,,,,,,,,,,,,,,,,,,,,,,,,,,,,,,,,,,,,,,
,,,p,1,1.7488,0,0.756975063,#f3af84,,right_orange.png,p,10,3,43,1,1,o,right_blue.png,right_orange.png,p,right,60fe1580147adc7ebeb315e6,001,2021-08-01_10h29.35.624,arrow_simon_norep,2021.1.2,MacIntel,60.0024001,,,,,,,,,,,,,,,,,,,,,,,,,,,,,,,,,,,,,,
,,,o,1,0.6665,0,0.06655755,#a3d0fb,,right_blue.png,o,11,0,44,1,1,o,right_blue.png,right_orange.png,p,right,60fe1580147adc7ebeb315e6,001,2021-08-01_10h29.35.624,arrow_simon_norep,2021.1.2,MacIntel,60.0024001,,,,,,,,,,,,,,,,,,,,,,,,,,,,,,,,,,,,,,
,,,q,1,1.4772,0,0.719018271,#f3af84,,left_orange.png,q,11,1,45,2,1,w,left_blue.png,left_orange.png,q,left,60fe1580147adc7ebeb315e6,001,2021-08-01_10h29.35.624,arrow_simon_norep,2021.1.2,MacIntel,60.0024001,,,,,,,,,,,,,,,,,,,,,,,,,,,,,,,,,,,,,,
,,,w,1,1.4006,0,0.865505184,#a3d0fb,,left_blue.png,w,11,2,46,2,1,w,left_blue.png,left_orange.png,q,left,60fe1580147adc7ebeb315e6,001,2021-08-01_10h29.35.624,arrow_simon_norep,2021.1.2,MacIntel,60.0024001,,,,,,,,,,,,,,,,,,,,,,,,,,,,,,,,,,,,,,
,,,q,1,1.0159,0,0.479511245,#f3af84,,left_orange.png,q,11,3,47,2,1,w,left_blue.png,left_orange.png,q,left,60fe1580147adc7ebeb315e6,001,2021-08-01_10h29.35.624,arrow_simon_norep,2021.1.2,MacIntel,60.0024001,,,,,,,,,,,,,,,,,,,,,,,,,,,,,,,,,,,,,,
,,,o,1,0.9608,0,0.361764368,#a3d0fb,,right_blue.png,o,12,0,48,0,1,o,right_blue.png,right_orange.png,p,left,60fe1580147adc7ebeb315e6,001,2021-08-01_10h29.35.624,arrow_simon_norep,2021.1.2,MacIntel,60.0024001,,,,,,,,,,,,,,,,,,,,,,,,,,,,,,,,,,,,,,
,,,p,1,1.4994,0,0.989232497,#f3af84,,right_orange.png,p,12,1,49,1,1,o,right_blue.png,right_orange.png,p,right,60fe1580147adc7ebeb315e6,001,2021-08-01_10h29.35.624,arrow_simon_norep,2021.1.2,MacIntel,60.0024001,,,,,,,,,,,,,,,,,,,,,,,,,,,,,,,,,,,,,,
,,,w,1,1.4353,0,0.78393071,#a3d0fb,,left_blue.png,w,12,2,50,3,1,w,left_blue.png,left_orange.png,q,right,60fe1580147adc7ebeb315e6,001,2021-08-01_10h29.35.624,arrow_simon_norep,2021.1.2,MacIntel,60.0024001,,,,,,,,,,,,,,,,,,,,,,,,,,,,,,,,,,,,,,
,,,q,1,1.4342,0,0.910274256,#f3af84,,left_orange.png,q,12,3,51,3,1,w,left_blue.png,left_orange.png,q,right,60fe1580147adc7ebeb315e6,001,2021-08-01_10h29.35.624,arrow_simon_norep,2021.1.2,MacIntel,60.0024001,,,,,,,,,,,,,,,,,,,,,,,,,,,,,,,,,,,,,,
,,,o,1,1.4505,0,0.591949332,#a3d0fb,,right_blue.png,o,13,0,52,0,1,o,right_blue.png,right_orange.png,p,left,60fe1580147adc7ebeb315e6,001,2021-08-01_10h29.35.624,arrow_simon_norep,2021.1.2,MacIntel,60.0024001,,,,,,,,,,,,,,,,,,,,,,,,,,,,,,,,,,,,,,
,,,q,1,1.5153,0,0.694078521,#f3af84,,left_orange.png,q,13,1,53,2,1,w,left_blue.png,left_orange.png,q,left,60fe1580147adc7ebeb315e6,001,2021-08-01_10h29.35.624,arrow_simon_norep,2021.1.2,MacIntel,60.0024001,,,,,,,,,,,,,,,,,,,,,,,,,,,,,,,,,,,,,,
,,,w,1,1.6443,0,0.775426933,#a3d0fb,,left_blue.png,w,13,2,54,2,1,w,left_blue.png,left_orange.png,q,left,60fe1580147adc7ebeb315e6,001,2021-08-01_10h29.35.624,arrow_simon_norep,2021.1.2,MacIntel,60.0024001,,,,,,,,,,,,,,,,,,,,,,,,,,,,,,,,,,,,,,
,,,q,1,1.128,0,0.378955746,#f3af84,,left_orange.png,q,13,3,55,2,1,w,left_blue.png,left_orange.png,q,left,60fe1580147adc7ebeb315e6,001,2021-08-01_10h29.35.624,arrow_simon_norep,2021.1.2,MacIntel,60.0024001,,,,,,,,,,,,,,,,,,,,,,,,,,,,,,,,,,,,,,
,,,p,0,1.3165,1,0.77625447,#a3d0fb,,right_blue.png,o,14,0,56,1,1,o,right_blue.png,right_orange.png,p,right,60fe1580147adc7ebeb315e6,001,2021-08-01_10h29.35.624,arrow_simon_norep,2021.1.2,MacIntel,60.0024001,,,,,,,,,,,,,,,,,,,,,,,,,,,,,,,,,,,,,,
,,,p,1,0.716,0,0.23565117,#f3af84,,right_orange.png,p,14,1,57,1,1,o,right_blue.png,right_orange.png,p,right,60fe1580147adc7ebeb315e6,001,2021-08-01_10h29.35.624,arrow_simon_norep,2021.1.2,MacIntel,60.0024001,,,,,,,,,,,,,,,,,,,,,,,,,,,,,,,,,,,,,,
,,,w,1,1.1881,0,0.587584716,#a3d0fb,,left_blue.png,w,14,2,58,3,1,w,left_blue.png,left_orange.png,q,right,60fe1580147adc7ebeb315e6,001,2021-08-01_10h29.35.624,arrow_simon_norep,2021.1.2,MacIntel,60.0024001,,,,,,,,,,,,,,,,,,,,,,,,,,,,,,,,,,,,,,
,,,q,1,1.1673,0,0.467618063,#f3af84,,left_orange.png,q,14,3,59,2,1,w,left_blue.png,left_orange.png,q,left,60fe1580147adc7ebeb315e6,001,2021-08-01_10h29.35.624,arrow_simon_norep,2021.1.2,MacIntel,60.0024001,,,,,,,,,,,,,,,,,,,,,,,,,,,,,,,,,,,,,,
,,,,,,,,,,,,,,,,,,,,,,60fe1580147adc7ebeb315e6,001,2021-08-01_10h29.35.624,arrow_simon_norep,2021.1.2,MacIntel,60.0024001,space,5.113,0,0,0,0,1,,,,,,,,,,,,,,,,,,,,,,,,,,,,,,,
,,,o,1,1.0022,0,0.222725917,#a3d0fb,,right_blue.png,o,0,0,0,0,1,o,right_blue.png,right_orange.png,p,left,60fe1580147adc7ebeb315e6,001,2021-08-01_10h29.35.624,arrow_simon_norep,2021.1.2,MacIntel,60.0024001,,,,,,,,,,,,,,,,,,,,,,,,,,,,,,,,,,,,,,
,,,q,1,1.1154,0,0.544704933,#f3af84,,left_orange.png,q,0,1,1,2,1,w,left_blue.png,left_orange.png,q,left,60fe1580147adc7ebeb315e6,001,2021-08-01_10h29.35.624,arrow_simon_norep,2021.1.2,MacIntel,60.0024001,,,,,,,,,,,,,,,,,,,,,,,,,,,,,,,,,,,,,,
,,,w,1,1.016,0,0.261488331,#a3d0fb,,left_blue.png,w,0,2,2,2,1,w,left_blue.png,left_orange.png,q,left,60fe1580147adc7ebeb315e6,001,2021-08-01_10h29.35.624,arrow_simon_norep,2021.1.2,MacIntel,60.0024001,,,,,,,,,,,,,,,,,,,,,,,,,,,,,,,,,,,,,,
,,,p,1,0.668,0,0.140324941,#f3af84,,right_orange.png,p,0,3,3,1,1,o,right_blue.png,right_orange.png,p,right,60fe1580147adc7ebeb315e6,001,2021-08-01_10h29.35.624,arrow_simon_norep,2021.1.2,MacIntel,60.0024001,,,,,,,,,,,,,,,,,,,,,,,,,,,,,,,,,,,,,,
,,,o,1,1.0307,0,0.323736025,#a3d0fb,,right_blue.png,o,1,0,4,0,1,o,right_blue.png,right_orange.png,p,left,60fe1580147adc7ebeb315e6,001,2021-08-01_10h29.35.624,arrow_simon_norep,2021.1.2,MacIntel,60.0024001,,,,,,,,,,,,,,,,,,,,,,,,,,,,,,,,,,,,,,
,,,q,1,0.9831,0,0.459505832,#f3af84,,left_orange.png,q,1,1,5,3,1,w,left_blue.png,left_orange.png,q,right,60fe1580147adc7ebeb315e6,001,2021-08-01_10h29.35.624,arrow_simon_norep,2021.1.2,MacIntel,60.0024001,,,,,,,,,,,,,,,,,,,,,,,,,,,,,,,,,,,,,,
,,,o,1,1.0033,0,0.337720878,#a3d0fb,,right_blue.png,o,1,2,6,1,1,o,right_blue.png,right_orange.png,p,right,60fe1580147adc7ebeb315e6,001,2021-08-01_10h29.35.624,arrow_simon_norep,2021.1.2,MacIntel,60.0024001,,,,,,,,,,,,,,,,,,,,,,,,,,,,,,,,,,,,,,
,,,p,1,1.1332,0,0.502502826,#f3af84,,right_orange.png,p,1,3,7,1,1,o,right_blue.png,right_orange.png,p,right,60fe1580147adc7ebeb315e6,001,2021-08-01_10h29.35.624,arrow_simon_norep,2021.1.2,MacIntel,60.0024001,,,,,,,,,,,,,,,,,,,,,,,,,,,,,,,,,,,,,,
,,,w,1,0.9755,0,0.122183113,#a3d0fb,,left_blue.png,w,2,0,8,3,1,w,left_blue.png,left_orange.png,q,right,60fe1580147adc7ebeb315e6,001,2021-08-01_10h29.35.624,arrow_simon_norep,2021.1.2,MacIntel,60.0024001,,,,,,,,,,,,,,,,,,,,,,,,,,,,,,,,,,,,,,
,,,q,1,1.3148,0,0.766529061,#f3af84,,left_orange.png,q,2,1,9,3,1,w,left_blue.png,left_orange.png,q,right,60fe1580147adc7ebeb315e6,001,2021-08-01_10h29.35.624,arrow_simon_norep,2021.1.2,MacIntel,60.0024001,,,,,,,,,,,,,,,,,,,,,,,,,,,,,,,,,,,,,,
,,,w,1,1.5872,0,0.86009607,#a3d0fb,,left_blue.png,w,2,2,10,3,1,w,left_blue.png,left_orange.png,q,right,60fe1580147adc7ebeb315e6,001,2021-08-01_10h29.35.624,arrow_simon_norep,2021.1.2,MacIntel,60.0024001,,,,,,,,,,,,,,,,,,,,,,,,,,,,,,,,,,,,,,
,,,q,1,0.8487,0,0.390979229,#f3af84,,left_orange.png,q,2,3,11,3,1,w,left_blue.png,left_orange.png,q,right,60fe1580147adc7ebeb315e6,001,2021-08-01_10h29.35.624,arrow_simon_norep,2021.1.2,MacIntel,60.0024001,,,,,,,,,,,,,,,,,,,,,,,,,,,,,,,,,,,,,,
,,,w,1,1.2432,0,0.64932244,#a3d0fb,,left_blue.png,w,3,0,12,3,1,w,left_blue.png,left_orange.png,q,right,60fe1580147adc7ebeb315e6,001,2021-08-01_10h29.35.624,arrow_simon_norep,2021.1.2,MacIntel,60.0024001,,,,,,,,,,,,,,,,,,,,,,,,,,,,,,,,,,,,,,
,,,p,1,1.4831,0,0.88863892,#f3af84,,right_orange.png,p,3,1,13,1,1,o,right_blue.png,right_orange.png,p,right,60fe1580147adc7ebeb315e6,001,2021-08-01_10h29.35.624,arrow_simon_norep,2021.1.2,MacIntel,60.0024001,,,,,,,,,,,,,,,,,,,,,,,,,,,,,,,,,,,,,,
,,,o,1,1.1647,0,0.601502651,#a3d0fb,,right_blue.png,o,3,2,14,0,1,o,right_blue.png,right_orange.png,p,left,60fe1580147adc7ebeb315e6,001,2021-08-01_10h29.35.624,arrow_simon_norep,2021.1.2,MacIntel,60.0024001,,,,,,,,,,,,,,,,,,,,,,,,,,,,,,,,,,,,,,
,,,p,1,0.7315,0,0.027556699,#f3af84,,right_orange.png,p,3,3,15,0,1,o,right_blue.png,right_orange.png,p,left,60fe1580147adc7ebeb315e6,001,2021-08-01_10h29.35.624,arrow_simon_norep,2021.1.2,MacIntel,60.0024001,,,,,,,,,,,,,,,,,,,,,,,,,,,,,,,,,,,,,,
,,,q,0,1.3299,1,0.780042104,#a3d0fb,,left_blue.png,w,4,0,16,2,1,w,left_blue.png,left_orange.png,q,left,60fe1580147adc7ebeb315e6,001,2021-08-01_10h29.35.624,arrow_simon_norep,2021.1.2,MacIntel,60.0024001,,,,,,,,,,,,,,,,,,,,,,,,,,,,,,,,,,,,,,
,,,q,1,1.8281,0,0.884353021,#f3af84,,left_orange.png,q,4,1,17,2,1,w,left_blue.png,left_orange.png,q,left,60fe1580147adc7ebeb315e6,001,2021-08-01_10h29.35.624,arrow_simon_norep,2021.1.2,MacIntel,60.0024001,,,,,,,,,,,,,,,,,,,,,,,,,,,,,,,,,,,,,,
,,,w,1,0.9493,0,0.08304948,#a3d0fb,,left_blue.png,w,4,2,18,2,1,w,left_blue.png,left_orange.png,q,left,60fe1580147adc7ebeb315e6,001,2021-08-01_10h29.35.624,arrow_simon_norep,2021.1.2,MacIntel,60.0024001,,,,,,,,,,,,,,,,,,,,,,,,,,,,,,,,,,,,,,
,,,q,1,1.752,0,0.717224533,#f3af84,,left_orange.png,q,4,3,19,3,1,w,left_blue.png,left_orange.png,q,right,60fe1580147adc7ebeb315e6,001,2021-08-01_10h29.35.624,arrow_simon_norep,2021.1.2,MacIntel,60.0024001,,,,,,,,,,,,,,,,,,,,,,,,,,,,,,,,,,,,,,
,,,w,1,0.8843,0,0.182682751,#a3d0fb,,left_blue.png,w,5,0,20,2,1,w,left_blue.png,left_orange.png,q,left,60fe1580147adc7ebeb315e6,001,2021-08-01_10h29.35.624,arrow_simon_norep,2021.1.2,MacIntel,60.0024001,,,,,,,,,,,,,,,,,,,,,,,,,,,,,,,,,,,,,,
,,,p,1,0.8613,0,0.42565382,#f3af84,,right_orange.png,p,5,1,21,1,1,o,right_blue.png,right_orange.png,p,right,60fe1580147adc7ebeb315e6,001,2021-08-01_10h29.35.624,arrow_simon_norep,2021.1.2,MacIntel,60.0024001,,,,,,,,,,,,,,,,,,,,,,,,,,,,,,,,,,,,,,
,,,o,1,0.6644,0,0.193350625,#a3d0fb,,right_blue.png,o,5,2,22,1,1,o,right_blue.png,right_orange.png,p,right,60fe1580147adc7ebeb315e6,001,2021-08-01_10h29.35.624,arrow_simon_norep,2021.1.2,MacIntel,60.0024001,,,,,,,,,,,,,,,,,,,,,,,,,,,,,,,,,,,,,,
,,,q,1,1.1356,0,0.81650474,#f3af84,,left_orange.png,q,5,3,23,2,1,w,left_blue.png,left_orange.png,q,left,60fe1580147adc7ebeb315e6,001,2021-08-01_10h29.35.624,arrow_simon_norep,2021.1.2,MacIntel,60.0024001,,,,,,,,,,,,,,,,,,,,,,,,,,,,,,,,,,,,,,
,,,o,1,1.034,0,0.504870982,#a3d0fb,,right_blue.png,o,6,0,24,0,1,o,right_blue.png,right_orange.png,p,left,60fe1580147adc7ebeb315e6,001,2021-08-01_10h29.35.624,arrow_simon_norep,2021.1.2,MacIntel,60.0024001,,,,,,,,,,,,,,,,,,,,,,,,,,,,,,,,,,,,,,
,,,q,1,1.2678,0,0.820956803,#f3af84,,left_orange.png,q,6,1,25,3,1,w,left_blue.png,left_orange.png,q,right,60fe1580147adc7ebeb315e6,001,2021-08-01_10h29.35.624,arrow_simon_norep,2021.1.2,MacIntel,60.0024001,,,,,,,,,,,,,,,,,,,,,,,,,,,,,,,,,,,,,,
,,,w,1,1.4195,0,0.808523412,#a3d0fb,,left_blue.png,w,6,2,26,3,1,w,left_blue.png,left_orange.png,q,right,60fe1580147adc7ebeb315e6,001,2021-08-01_10h29.35.624,arrow_simon_norep,2021.1.2,MacIntel,60.0024001,,,,,,,,,,,,,,,,,,,,,,,,,,,,,,,,,,,,,,
,,,p,1,0.55,0,0.050542217,#f3af84,,right_orange.png,p,6,3,27,1,1,o,right_blue.png,right_orange.png,p,right,60fe1580147adc7ebeb315e6,001,2021-08-01_10h29.35.624,arrow_simon_norep,2021.1.2,MacIntel,60.0024001,,,,,,,,,,,,,,,,,,,,,,,,,,,,,,,,,,,,,,
,,,w,1,0.6001,0,0.173524552,#a3d0fb,,left_blue.png,w,7,0,28,3,1,w,left_blue.png,left_orange.png,q,right,60fe1580147adc7ebeb315e6,001,2021-08-01_10h29.35.624,arrow_simon_norep,2021.1.2,MacIntel,60.0024001,,,,,,,,,,,,,,,,,,,,,,,,,,,,,,,,,,,,,,
,,,q,1,1.3297,0,0.869453333,#f3af84,,left_orange.png,q,7,1,29,3,1,w,left_blue.png,left_orange.png,q,right,60fe1580147adc7ebeb315e6,001,2021-08-01_10h29.35.624,arrow_simon_norep,2021.1.2,MacIntel,60.0024001,,,,,,,,,,,,,,,,,,,,,,,,,,,,,,,,,,,,,,
,,,o,1,0.8986,0,0.452482392,#a3d0fb,,right_blue.png,o,7,2,30,1,1,o,right_blue.png,right_orange.png,p,right,60fe1580147adc7ebeb315e6,001,2021-08-01_10h29.35.624,arrow_simon_norep,2021.1.2,MacIntel,60.0024001,,,,,,,,,,,,,,,,,,,,,,,,,,,,,,,,,,,,,,
,,,p,1,1.2951,0,0.715676801,#f3af84,,right_orange.png,p,7,3,31,0,1,o,right_blue.png,right_orange.png,p,left,60fe1580147adc7ebeb315e6,001,2021-08-01_10h29.35.624,arrow_simon_norep,2021.1.2,MacIntel,60.0024001,,,,,,,,,,,,,,,,,,,,,,,,,,,,,,,,,,,,,,
,,,o,1,1.1506,0,0.571147326,#a3d0fb,,right_blue.png,o,8,0,32,0,1,o,right_blue.png,right_orange.png,p,left,60fe1580147adc7ebeb315e6,001,2021-08-01_10h29.35.624,arrow_simon_norep,2021.1.2,MacIntel,60.0024001,,,,,,,,,,,,,,,,,,,,,,,,,,,,,,,,,,,,,,
,,,q,1,1.1274,0,0.764533613,#f3af84,,left_orange.png,q,8,1,33,2,1,w,left_blue.png,left_orange.png,q,left,60fe1580147adc7ebeb315e6,001,2021-08-01_10h29.35.624,arrow_simon_norep,2021.1.2,MacIntel,60.0024001,,,,,,,,,,,,,,,,,,,,,,,,,,,,,,,,,,,,,,
,,,w,1,0.8657,0,0.122818523,#a3d0fb,,left_blue.png,w,8,2,34,2,1,w,left_blue.png,left_orange.png,q,left,60fe1580147adc7ebeb315e6,001,2021-08-01_10h29.35.624,arrow_simon_norep,2021.1.2,MacIntel,60.0024001,,,,,,,,,,,,,,,,,,,,,,,,,,,,,,,,,,,,,,
,,,q,1,1.3331,0,0.811713931,#f3af84,,left_orange.png,q,8,3,35,2,1,w,left_blue.png,left_orange.png,q,left,60fe1580147adc7ebeb315e6,001,2021-08-01_10h29.35.624,arrow_simon_norep,2021.1.2,MacIntel,60.0024001,,,,,,,,,,,,,,,,,,,,,,,,,,,,,,,,,,,,,,
,,,o,1,0.6335,0,0.247195112,#a3d0fb,,right_blue.png,o,9,0,36,1,1,o,right_blue.png,right_orange.png,p,right,60fe1580147adc7ebeb315e6,001,2021-08-01_10h29.35.624,arrow_simon_norep,2021.1.2,MacIntel,60.0024001,,,,,,,,,,,,,,,,,,,,,,,,,,,,,,,,,,,,,,
,,,p,1,0.9176,0,0.468748659,#f3af84,,right_orange.png,p,9,1,37,0,1,o,right_blue.png,right_orange.png,p,left,60fe1580147adc7ebeb315e6,001,2021-08-01_10h29.35.624,arrow_simon_norep,2021.1.2,MacIntel,60.0024001,,,,,,,,,,,,,,,,,,,,,,,,,,,,,,,,,,,,,,
,,,o,1,1.2038,0,0.747922172,#a3d0fb,,right_blue.png,o,9,2,38,0,1,o,right_blue.png,right_orange.png,p,left,60fe1580147adc7ebeb315e6,001,2021-08-01_10h29.35.624,arrow_simon_norep,2021.1.2,MacIntel,60.0024001,,,,,,,,,,,,,,,,,,,,,,,,,,,,,,,,,,,,,,
,,,p,1,1.3668,0,0.920188657,#f3af84,,right_orange.png,p,9,3,39,0,1,o,right_blue.png,right_orange.png,p,left,60fe1580147adc7ebeb315e6,001,2021-08-01_10h29.35.624,arrow_simon_norep,2021.1.2,MacIntel,60.0024001,,,,,,,,,,,,,,,,,,,,,,,,,,,,,,,,,,,,,,
,,,o,1,0.6448,0,0.100187882,#a3d0fb,,right_blue.png,o,10,0,40,0,1,o,right_blue.png,right_orange.png,p,left,60fe1580147adc7ebeb315e6,001,2021-08-01_10h29.35.624,arrow_simon_norep,2021.1.2,MacIntel,60.0024001,,,,,,,,,,,,,,,,,,,,,,,,,,,,,,,,,,,,,,
,,,p,1,0.8175,0,0.444103258,#f3af84,,right_orange.png,p,10,1,41,1,1,o,right_blue.png,right_orange.png,p,right,60fe1580147adc7ebeb315e6,001,2021-08-01_10h29.35.624,arrow_simon_norep,2021.1.2,MacIntel,60.0024001,,,,,,,,,,,,,,,,,,,,,,,,,,,,,,,,,,,,,,
,,,o,1,0.6688,0,0.24621563,#a3d0fb,,right_blue.png,o,10,2,42,0,1,o,right_blue.png,right_orange.png,p,left,60fe1580147adc7ebeb315e6,001,2021-08-01_10h29.35.624,arrow_simon_norep,2021.1.2,MacIntel,60.0024001,,,,,,,,,,,,,,,,,,,,,,,,,,,,,,,,,,,,,,
,,,q,1,0.5835,0,0.207542568,#f3af84,,left_orange.png,q,10,3,43,2,1,w,left_blue.png,left_orange.png,q,left,60fe1580147adc7ebeb315e6,001,2021-08-01_10h29.35.624,arrow_simon_norep,2021.1.2,MacIntel,60.0024001,,,,,,,,,,,,,,,,,,,,,,,,,,,,,,,,,,,,,,
,,,w,1,1.0835,0,0.715040586,#a3d0fb,,left_blue.png,w,11,0,44,2,1,w,left_blue.png,left_orange.png,q,left,60fe1580147adc7ebeb315e6,001,2021-08-01_10h29.35.624,arrow_simon_norep,2021.1.2,MacIntel,60.0024001,,,,,,,,,,,,,,,,,,,,,,,,,,,,,,,,,,,,,,
,,,q,1,0.6762,0,0.108632028,#f3af84,,left_orange.png,q,11,1,45,3,1,w,left_blue.png,left_orange.png,q,right,60fe1580147adc7ebeb315e6,001,2021-08-01_10h29.35.624,arrow_simon_norep,2021.1.2,MacIntel,60.0024001,,,,,,,,,,,,,,,,,,,,,,,,,,,,,,,,,,,,,,
,,,p,0,1.0167,1,0.433193782,#a3d0fb,,right_blue.png,o,11,2,46,1,1,o,right_blue.png,right_orange.png,p,right,60fe1580147adc7ebeb315e6,001,2021-08-01_10h29.35.624,arrow_simon_norep,2021.1.2,MacIntel,60.0024001,,,,,,,,,,,,,,,,,,,,,,,,,,,,,,,,,,,,,,
,,,q,1,1.0194,0,0.475174842,#f3af84,,left_orange.png,q,11,3,47,3,1,w,left_blue.png,left_orange.png,q,right,60fe1580147adc7ebeb315e6,001,2021-08-01_10h29.35.624,arrow_simon_norep,2021.1.2,MacIntel,60.0024001,,,,,,,,,,,,,,,,,,,,,,,,,,,,,,,,,,,,,,
,,,w,1,1.2669,0,0.631180364,#a3d0fb,,left_blue.png,w,12,0,48,2,1,w,left_blue.png,left_orange.png,q,left,60fe1580147adc7ebeb315e6,001,2021-08-01_10h29.35.624,arrow_simon_norep,2021.1.2,MacIntel,60.0024001,,,,,,,,,,,,,,,,,,,,,,,,,,,,,,,,,,,,,,
,,,p,1,1.3183,0,0.824759682,#f3af84,,right_orange.png,p,12,1,49,0,1,o,right_blue.png,right_orange.png,p,left,60fe1580147adc7ebeb315e6,001,2021-08-01_10h29.35.624,arrow_simon_norep,2021.1.2,MacIntel,60.0024001,,,,,,,,,,,,,,,,,,,,,,,,,,,,,,,,,,,,,,
,,,o,1,1.3341,0,0.871871874,#a3d0fb,,right_blue.png,o,12,2,50,1,1,o,right_blue.png,right_orange.png,p,right,60fe1580147adc7ebeb315e6,001,2021-08-01_10h29.35.624,arrow_simon_norep,2021.1.2,MacIntel,60.0024001,,,,,,,,,,,,,,,,,,,,,,,,,,,,,,,,,,,,,,
,,,w,0,1.3494,1,0.91863318,#f3af84,,left_orange.png,q,12,3,51,3,1,w,left_blue.png,left_orange.png,q,right,60fe1580147adc7ebeb315e6,001,2021-08-01_10h29.35.624,arrow_simon_norep,2021.1.2,MacIntel,60.0024001,,,,,,,,,,,,,,,,,,,,,,,,,,,,,,,,,,,,,,
,,,o,1,0.8693,0,0.133047538,#a3d0fb,,right_blue.png,o,13,0,52,1,1,o,right_blue.png,right_orange.png,p,right,60fe1580147adc7ebeb315e6,001,2021-08-01_10h29.35.624,arrow_simon_norep,2021.1.2,MacIntel,60.0024001,,,,,,,,,,,,,,,,,,,,,,,,,,,,,,,,,,,,,,
,,,q,1,1.2289,0,0.70178778,#f3af84,,left_orange.png,q,13,1,53,3,1,w,left_blue.png,left_orange.png,q,right,60fe1580147adc7ebeb315e6,001,2021-08-01_10h29.35.624,arrow_simon_norep,2021.1.2,MacIntel,60.0024001,,,,,,,,,,,,,,,,,,,,,,,,,,,,,,,,,,,,,,
,,,q,0,1.0546,1,0.511776731,#a3d0fb,,left_blue.png,w,13,2,54,2,1,w,left_blue.png,left_orange.png,q,left,60fe1580147adc7ebeb315e6,001,2021-08-01_10h29.35.624,arrow_simon_norep,2021.1.2,MacIntel,60.0024001,,,,,,,,,,,,,,,,,,,,,,,,,,,,,,,,,,,,,,
,,,p,1,0.7663,0,0.022509001,#f3af84,,right_orange.png,p,13,3,55,0,1,o,right_blue.png,right_orange.png,p,left,60fe1580147adc7ebeb315e6,001,2021-08-01_10h29.35.624,arrow_simon_norep,2021.1.2,MacIntel,60.0024001,,,,,,,,,,,,,,,,,,,,,,,,,,,,,,,,,,,,,,
,,,o,1,0.7843,0,0.359930339,#a3d0fb,,right_blue.png,o,14,0,56,1,1,o,right_blue.png,right_orange.png,p,right,60fe1580147adc7ebeb315e6,001,2021-08-01_10h29.35.624,arrow_simon_norep,2021.1.2,MacIntel,60.0024001,,,,,,,,,,,,,,,,,,,,,,,,,,,,,,,,,,,,,,
,,,p,1,0.8839,0,0.435933532,#f3af84,,right_orange.png,p,14,1,57,1,1,o,right_blue.png,right_orange.png,p,right,60fe1580147adc7ebeb315e6,001,2021-08-01_10h29.35.624,arrow_simon_norep,2021.1.2,MacIntel,60.0024001,,,,,,,,,,,,,,,,,,,,,,,,,,,,,,,,,,,,,,
,,,o,1,1.0004,0,0.43282732,#a3d0fb,,right_blue.png,o,14,2,58,0,1,o,right_blue.png,right_orange.png,p,left,60fe1580147adc7ebeb315e6,001,2021-08-01_10h29.35.624,arrow_simon_norep,2021.1.2,MacIntel,60.0024001,,,,,,,,,,,,,,,,,,,,,,,,,,,,,,,,,,,,,,
,,,q,1,0.8986,0,0.43519155,#f3af84,,left_orange.png,q,14,3,59,2,1,w,left_blue.png,left_orange.png,q,left,60fe1580147adc7ebeb315e6,001,2021-08-01_10h29.35.624,arrow_simon_norep,2021.1.2,MacIntel,60.0024001,,,,,,,,,,,,,,,,,,,,,,,,,,,,,,,,,,,,,,
,,,,,,,,,,,,,,,,,,,,,,60fe1580147adc7ebeb315e6,001,2021-08-01_10h29.35.624,arrow_simon_norep,2021.1.2,MacIntel,60.0024001,space,1.3662,1,0,1,0,1,,,,,,,,,,,,,,,,,,,,,,,,,,,,,,,
,,,,,,,,,,,,,,,,,,,,,,60fe1580147adc7ebeb315e6,001,2021-08-01_10h29.35.624,arrow_simon_norep,2021.1.2,MacIntel,60.0024001,,,,,,,,space,0,0.0906,o,7.4841,0,0,0,0,1,,,,,,,,,,,,,,,,,,,,,
,,,,,,,,,,,,,,,,,,,,,,60fe1580147adc7ebeb315e6,001,2021-08-01_10h29.35.624,arrow_simon_norep,2021.1.2,MacIntel,60.0024001,,,,,,,,,,,w,2.2003,1,0,1,0,1,,,,,,,,,,,,,,,,,,,,,
,,,,,,,,,,,,,,,,,,,,,,60fe1580147adc7ebeb315e6,001,2021-08-01_10h29.35.624,arrow_simon_norep,2021.1.2,MacIntel,60.0024001,,,,,,,,,,,o,2.6008,2,0,2,0,1,,,,,,,,,,,,,,,,,,,,,
,,,,,,,,,,,,,,,,,,,,,,60fe1580147adc7ebeb315e6,001,2021-08-01_10h29.35.624,arrow_simon_norep,2021.1.2,MacIntel,60.0024001,,,,,,,,,,,p,3.5101,3,0,3,0,1,,,,,,,,,,,,,,,,,,,,,
,,,,,,,,,,,,,,,,,,,,,,60fe1580147adc7ebeb315e6,001,2021-08-01_10h29.35.624,arrow_simon_norep,2021.1.2,MacIntel,60.0024001,,,,,,,,,,,q,2.6656,4,0,4,0,1,,,,,,,,,,,,,,,,,,,,,
,,,,,,,,,,,,,,,,,,,,,,60fe1580147adc7ebeb315e6,001,2021-08-01_10h29.35.624,arrow_simon_norep,2021.1.2,MacIntel,60.0024001,,,,,,,,,,,p,2.4008,5,0,5,0,1,,,,,,,,,,,,,,,,,,,,,
,,,,,,,,,,,,,,,,,,,,,,60fe1580147adc7ebeb315e6,001,2021-08-01_10h29.35.624,arrow_simon_norep,2021.1.2,MacIntel,60.0024001,,,,,,,,,,,p,2.501,6,0,6,0,1,,,,,,,,,,,,,,,,,,,,,
,,,,,,,,,,,,,,,,,,,,,,60fe1580147adc7ebeb315e6,001,2021-08-01_10h29.35.624,arrow_simon_norep,2021.1.2,MacIntel,60.0024001,,,,,,,,,,,p,2.6285,7,0,7,0,1,,,,,,,,,,,,,,,,,,,,,
,,,,,,,,,,,,,,,,,,,,,,60fe1580147adc7ebeb315e6,001,2021-08-01_10h29.35.624,arrow_simon_norep,2021.1.2,MacIntel,60.0024001,,,,,,,,,,,p,2.5026,8,0,8,0,1,,,,,,,,,,,,,,,,,,,,,
,,,,,,,,,,,,,,,,,,,,,,60fe1580147adc7ebeb315e6,001,2021-08-01_10h29.35.624,arrow_simon_norep,2021.1.2,MacIntel,60.0024001,,,,,,,,,,,p,2.5512,9,0,9,0,1,,,,,,,,,,,,,,,,,,,,,
,,,,,,,,,,,,,,,,,,,,,,60fe1580147adc7ebeb315e6,001,2021-08-01_10h29.35.624,arrow_simon_norep,2021.1.2,MacIntel,60.0024001,,,,,,,,,,,p,2.4461,10,0,10,0,1,,,,,,,,,,,,,,,,,,,,,
,,,,,,,,,,,,,,,,,,,,,,60fe1580147adc7ebeb315e6,001,2021-08-01_10h29.35.624,arrow_simon_norep,2021.1.2,MacIntel,60.0024001,,,,,,,,,,,p,2.5377,11,0,11,0,1,,,,,,,,,,,,,,,,,,,,,
,,,,,,,,,,,,,,,,,,,,,,60fe1580147adc7ebeb315e6,001,2021-08-01_10h29.35.624,arrow_simon_norep,2021.1.2,MacIntel,60.0024001,,,,,,,,,,,o,2.6347,12,0,12,0,1,,,,,,,,,,,,,,,,,,,,,
,,,,,,,,,,,,,,,,,,,,,,60fe1580147adc7ebeb315e6,001,2021-08-01_10h29.35.624,arrow_simon_norep,2021.1.2,MacIntel,60.0024001,,,,,,,,,,,p,2.5838,13,0,13,0,1,,,,,,,,,,,,,,,,,,,,,
,,,,,,,,,,,,,,,,,,,,,,60fe1580147adc7ebeb315e6,001,2021-08-01_10h29.35.624,arrow_simon_norep,2021.1.2,MacIntel,60.0024001,,,,,,,,,,,o,2.5298,14,0,14,0,1,,,,,,,,,,,,,,,,,,,,,
,,,,,,,,,,,,,,,,,,,,,,60fe1580147adc7ebeb315e6,001,2021-08-01_10h29.35.624,arrow_simon_norep,2021.1.2,MacIntel,60.0024001,,,,,,,,,,,p,2.6,15,0,15,0,1,,,,,,,,,,,,,,,,,,,,,
,,,,,,,,,,,,,,,,,,,,,,60fe1580147adc7ebeb315e6,001,2021-08-01_10h29.35.624,arrow_simon_norep,2021.1.2,MacIntel,60.0024001,,,,,,,,,,,o,2.5352,16,0,16,0,1,,,,,,,,,,,,,,,,,,,,,
,,,,,,,,,,,,,,,,,,,,,,60fe1580147adc7ebeb315e6,001,2021-08-01_10h29.35.624,arrow_simon_norep,2021.1.2,MacIntel,60.0024001,,,,,,,,,,,o,2.5164,17,0,17,0,1,,,,,,,,,,,,,,,,,,,,,
,,,,,,,,,,,,,,,,,,,,,,60fe1580147adc7ebeb315e6,001,2021-08-01_10h29.35.624,arrow_simon_norep,2021.1.2,MacIntel,60.0024001,,,,,,,,,,,o,2.5649,18,0,18,0,1,,,,,,,,,,,,,,,,,,,,,
,,,,,,,,,,,,,,,,,,,,,,60fe1580147adc7ebeb315e6,001,2021-08-01_10h29.35.624,arrow_simon_norep,2021.1.2,MacIntel,60.0024001,,,,,,,,,,,p,2.6165,19,0,19,0,1,,,,,,,,,,,,,,,,,,,,,
,,,,,,,,,,,,,,,,,,,,,,60fe1580147adc7ebeb315e6,001,2021-08-01_10h29.35.624,arrow_simon_norep,2021.1.2,MacIntel,60.0024001,,,,,,,,,,,o,2.5118,20,0,20,0,1,,,,,,,,,,,,,,,,,,,,,
,,,,,,,,,,,,,,,,,,,,,,60fe1580147adc7ebeb315e6,001,2021-08-01_10h29.35.624,arrow_simon_norep,2021.1.2,MacIntel,60.0024001,,,,,,,,,,,p,2.3852,21,0,21,0,1,,,,,,,,,,,,,,,,,,,,,
,,,,,,,,,,,,,,,,,,,,,,60fe1580147adc7ebeb315e6,001,2021-08-01_10h29.35.624,arrow_simon_norep,2021.1.2,MacIntel,60.0024001,,,,,,,,,,,o,2.61,22,0,22,0,1,,,,,,,,,,,,,,,,,,,,,
,,,,,,,,,,,,,,,,,,,,,,60fe1580147adc7ebeb315e6,001,2021-08-01_10h29.35.624,arrow_simon_norep,2021.1.2,MacIntel,60.0024001,,,,,,,,,,,p,2.4597,23,0,23,0,1,,,,,,,,,,,,,,,,,,,,,
,,,,,,,,,,,,,,,,,,,,,,60fe1580147adc7ebeb315e6,001,2021-08-01_10h29.35.624,arrow_simon_norep,2021.1.2,MacIntel,60.0024001,,,,,,,,,,,o,2.3806,24,0,24,0,1,,,,,,,,,,,,,,,,,,,,,
,,,,,,,,,,,,,,,,,,,,,,60fe1580147adc7ebeb315e6,001,2021-08-01_10h29.35.624,arrow_simon_norep,2021.1.2,MacIntel,60.0024001,,,,,,,,,,,p,2.6489,25,0,25,0,1,,,,,,,,,,,,,,,,,,,,,
,,,,,,,,,,,,,,,,,,,,,,60fe1580147adc7ebeb315e6,001,2021-08-01_10h29.35.624,arrow_simon_norep,2021.1.2,MacIntel,60.0024001,,,,,,,,,,,o,2.5792,26,0,26,0,1,,,,,,,,,,,,,,,,,,,,,
,,,,,,,,,,,,,,,,,,,,,,60fe1580147adc7ebeb315e6,001,2021-08-01_10h29.35.624,arrow_simon_norep,2021.1.2,MacIntel,60.0024001,,,,,,,,,,,p,2.5342,27,0,27,0,1,,,,,,,,,,,,,,,,,,,,,
,,,,,,,,,,,,,,,,,,,,,,60fe1580147adc7ebeb315e6,001,2021-08-01_10h29.35.624,arrow_simon_norep,2021.1.2,MacIntel,60.0024001,,,,,,,,,,,o,2.4343,28,0,28,0,1,,,,,,,,,,,,,,,,,,,,,
,,,,,,,,,,,,,,,,,,,,,,60fe1580147adc7ebeb315e6,001,2021-08-01_10h29.35.624,arrow_simon_norep,2021.1.2,MacIntel,60.0024001,,,,,,,,,,,p,2.5681,29,0,29,0,1,,,,,,,,,,,,,,,,,,,,,
,,,,,,,,,,,,,,,,,,,,,,60fe1580147adc7ebeb315e6,001,2021-08-01_10h29.35.624,arrow_simon_norep,2021.1.2,MacIntel,60.0024001,,,,,,,,,,,o,2.5157,30,0,30,0,1,,,,,,,,,,,,,,,,,,,,,
,,,,,,,,,,,,,,,,,,,,,,60fe1580147adc7ebeb315e6,001,2021-08-01_10h29.35.624,arrow_simon_norep,2021.1.2,MacIntel,60.0024001,,,,,,,,,,,p,2.5487,31,0,31,0,1,,,,,,,,,,,,,,,,,,,,,
,,,,,,,,,,,,,,,,,,,,,,60fe1580147adc7ebeb315e6,001,2021-08-01_10h29.35.624,arrow_simon_norep,2021.1.2,MacIntel,60.0024001,,,,,,,,,,,o,2.5316,32,0,32,0,1,,,,,,,,,,,,,,,,,,,,,
,,,,,,,,,,,,,,,,,,,,,,60fe1580147adc7ebeb315e6,001,2021-08-01_10h29.35.624,arrow_simon_norep,2021.1.2,MacIntel,60.0024001,,,,,,,,,,,p,2.5468,33,0,33,0,1,,,,,,,,,,,,,,,,,,,,,
,,,,,,,,,,,,,,,,,,,,,,60fe1580147adc7ebeb315e6,001,2021-08-01_10h29.35.624,arrow_simon_norep,2021.1.2,MacIntel,60.0024001,,,,,,,,,,,o,2.5251,34,0,34,0,1,,,,,,,,,,,,,,,,,,,,,
,,,,,,,,,,,,,,,,,,,,,,60fe1580147adc7ebeb315e6,001,2021-08-01_10h29.35.624,arrow_simon_norep,2021.1.2,MacIntel,60.0024001,,,,,,,,,,,p,2.5643,35,0,35,0,1,,,,,,,,,,,,,,,,,,,,,
,,,,,,,,,,,,,,,,,,,,,,60fe1580147adc7ebeb315e6,001,2021-08-01_10h29.35.624,arrow_simon_norep,2021.1.2,MacIntel,60.0024001,,,,,,,,,,,o,2.4495,36,0,36,0,1,,,,,,,,,,,,,,,,,,,,,
,,,,,,,,,,,,,,,,,,,,,,60fe1580147adc7ebeb315e6,001,2021-08-01_10h29.35.624,arrow_simon_norep,2021.1.2,MacIntel,60.0024001,,,,,,,,,,,p,2.5529,37,0,37,0,1,,,,,,,,,,,,,,,,,,,,,
,,,,,,,,,,,,,,,,,,,,,,60fe1580147adc7ebeb315e6,001,2021-08-01_10h29.35.624,arrow_simon_norep,2021.1.2,MacIntel,60.0024001,,,,,,,,,,,o,2.5169,38,0,38,0,1,,,,,,,,,,,,,,,,,,,,,
,,,,,,,,,,,,,,,,,,,,,,60fe1580147adc7ebeb315e6,001,2021-08-01_10h29.35.624,arrow_simon_norep,2021.1.2,MacIntel,60.0024001,,,,,,,,,,,p,2.4516,39,0,39,0,1,,,,,,,,,,,,,,,,,,,,,
,,,,,,,,,,,,,,,,,,,,,,60fe1580147adc7ebeb315e6,001,2021-08-01_10h29.35.624,arrow_simon_norep,2021.1.2,MacIntel,60.0024001,,,,,,,,,,,o,2.4634,40,0,40,0,1,,,,,,,,,,,,,,,,,,,,,
,,,,,,,,,,,,,,,,,,,,,,60fe1580147adc7ebeb315e6,001,2021-08-01_10h29.35.624,arrow_simon_norep,2021.1.2,MacIntel,60.0024001,,,,,,,,,,,p,2.4983,41,0,41,0,1,,,,,,,,,,,,,,,,,,,,,
,,,,,,,,,,,,,,,,,,,,,,60fe1580147adc7ebeb315e6,001,2021-08-01_10h29.35.624,arrow_simon_norep,2021.1.2,MacIntel,60.0024001,,,,,,,,,,,o,2.4812,42,0,42,0,1,,,,,,,,,,,,,,,,,,,,,
,,,,,,,,,,,,,,,,,,,,,,60fe1580147adc7ebeb315e6,001,2021-08-01_10h29.35.624,arrow_simon_norep,2021.1.2,MacIntel,60.0024001,,,,,,,,,,,p,2.5118,43,0,43,0,1,,,,,,,,,,,,,,,,,,,,,
,,,,,,,,,,,,,,,,,,,,,,60fe1580147adc7ebeb315e6,001,2021-08-01_10h29.35.624,arrow_simon_norep,2021.1.2,MacIntel,60.0024001,,,,,,,,,,,o,2.5313,44,0,44,0,1,,,,,,,,,,,,,,,,,,,,,
,,,,,,,,,,,,,,,,,,,,,,60fe1580147adc7ebeb315e6,001,2021-08-01_10h29.35.624,arrow_simon_norep,2021.1.2,MacIntel,60.0024001,,,,,,,,,,,p,2.5508,45,0,45,0,1,,,,,,,,,,,,,,,,,,,,,
,,,,,,,,,,,,,,,,,,,,,,60fe1580147adc7ebeb315e6,001,2021-08-01_10h29.35.624,arrow_simon_norep,2021.1.2,MacIntel,60.0024001,,,,,,,,,,,o,2.4178,46,0,46,0,1,,,,,,,,,,,,,,,,,,,,,
,,,,,,,,,,,,,,,,,,,,,,60fe1580147adc7ebeb315e6,001,2021-08-01_10h29.35.624,arrow_simon_norep,2021.1.2,MacIntel,60.0024001,,,,,,,,,,,p,2.4427,47,0,47,0,1,,,,,,,,,,,,,,,,,,,,,
,,,,,,,,,,,,,,,,,,,,,,60fe1580147adc7ebeb315e6,001,2021-08-01_10h29.35.624,arrow_simon_norep,2021.1.2,MacIntel,60.0024001,,,,,,,,,,,o,2.4494,48,0,48,0,1,,,,,,,,,,,,,,,,,,,,,
,,,,,,,,,,,,,,,,,,,,,,60fe1580147adc7ebeb315e6,001,2021-08-01_10h29.35.624,arrow_simon_norep,2021.1.2,MacIntel,60.0024001,,,,,,,,,,,p,2.4332,49,0,49,0,1,,,,,,,,,,,,,,,,,,,,,
,,,,,,,,,,,,,,,,,,,,,,60fe1580147adc7ebeb315e6,001,2021-08-01_10h29.35.624,arrow_simon_norep,2021.1.2,MacIntel,60.0024001,,,,,,,,,,,o,2.4832,50,0,50,0,1,,,,,,,,,,,,,,,,,,,,,
,,,,,,,,,,,,,,,,,,,,,,60fe1580147adc7ebeb315e6,001,2021-08-01_10h29.35.624,arrow_simon_norep,2021.1.2,MacIntel,60.0024001,,,,,,,,,,,p,2.6279,51,0,51,0,1,,,,,,,,,,,,,,,,,,,,,
,,,,,,,,,,,,,,,,,,,,,,60fe1580147adc7ebeb315e6,001,2021-08-01_10h29.35.624,arrow_simon_norep,2021.1.2,MacIntel,60.0024001,,,,,,,,,,,o,2.4816,52,0,52,0,1,,,,,,,,,,,,,,,,,,,,,
,,,,,,,,,,,,,,,,,,,,,,60fe1580147adc7ebeb315e6,001,2021-08-01_10h29.35.624,arrow_simon_norep,2021.1.2,MacIntel,60.0024001,,,,,,,,,,,p,2.4654,53,0,53,0,1,,,,,,,,,,,,,,,,,,,,,
,,,,,,,,,,,,,,,,,,,,,,60fe1580147adc7ebeb315e6,001,2021-08-01_10h29.35.624,arrow_simon_norep,2021.1.2,MacIntel,60.0024001,,,,,,,,,,,o,2.4446,54,0,54,0,1,,,,,,,,,,,,,,,,,,,,,
,,,,,,,,,,,,,,,,,,,,,,60fe1580147adc7ebeb315e6,001,2021-08-01_10h29.35.624,arrow_simon_norep,2021.1.2,MacIntel,60.0024001,,,,,,,,,,,p,2.3329,55,0,55,0,1,,,,,,,,,,,,,,,,,,,,,
,,,,,,,,,,,,,,,,,,,,,,60fe1580147adc7ebeb315e6,001,2021-08-01_10h29.35.624,arrow_simon_norep,2021.1.2,MacIntel,60.0024001,,,,,,,,,,,o,2.1956,56,0,56,0,1,,,,,,,,,,,,,,,,,,,,,
,,,,,,,,,,,,,,,,,,,,,,60fe1580147adc7ebeb315e6,001,2021-08-01_10h29.35.624,arrow_simon_norep,2021.1.2,MacIntel,60.0024001,,,,,,,,,,,p,2.3629,57,0,57,0,1,,,,,,,,,,,,,,,,,,,,,
,,,,,,,,,,,,,,,,,,,,,,60fe1580147adc7ebeb315e6,001,2021-08-01_10h29.35.624,arrow_simon_norep,2021.1.2,MacIntel,60.0024001,,,,,,,,,,,o,2.451,58,0,58,0,1,,,,,,,,,,,,,,,,,,,,,
,,,,,,,,,,,,,,,,,,,,,,60fe1580147adc7ebeb315e6,001,2021-08-01_10h29.35.624,arrow_simon_norep,2021.1.2,MacIntel,60.0024001,,,,,,,,,,,p,2.4128,59,0,59,0,1,,,,,,,,,,,,,,,,,,,,,
,,,,,,0,1.574904687,#a3d0fb,,left_blue.png,w,,,,,,w,left_blue.png,left_orange.png,q,left,60fe1580147adc7ebeb315e6,001,2021-08-01_10h29.35.624,arrow_simon_norep,2021.1.2,MacIntel,60.0024001,,,,,,,,,,,,,,,,,,space,0,24.496,o,0,1.2047,1,FALSE,TRUE,0,0,0,2,1,,,,,,,
,,,,,,0,1.939004185,#f3af84,,right_orange.png,p,,,,,,o,right_blue.png,right_orange.png,p,right,60fe1580147adc7ebeb315e6,001,2021-08-01_10h29.35.624,arrow_simon_norep,2021.1.2,MacIntel,60.0024001,,,,,,,,,,,,,,,,,,,,,p,1,1.2193,2,FALSE,TRUE,0,1,1,1,1,,,,,,,
,,,,,,0,1.951800299,#a3d0fb,,left_blue.png,w,,,,,,w,left_blue.png,left_orange.png,q,right,60fe1580147adc7ebeb315e6,001,2021-08-01_10h29.35.624,arrow_simon_norep,2021.1.2,MacIntel,60.0024001,,,,,,,,,,,,,,,,,,,,,o,0,1.3341,3,FALSE,TRUE,0,2,2,3,1,,,,,,,
,,,,,,1,2.025868025,#f3af84,,left_orange.png,q,,,,,,w,left_blue.png,left_orange.png,q,left,60fe1580147adc7ebeb315e6,001,2021-08-01_10h29.35.624,arrow_simon_norep,2021.1.2,MacIntel,60.0024001,,,,,,,,,,,,,,,,,,,,,w,0,1.4679,4,FALSE,FALSE,0,3,3,2,1,,,,,,,
,,,,,,0,1.811592982,#a3d0fb,,left_blue.png,w,,,,,,w,left_blue.png,left_orange.png,q,right,60fe1580147adc7ebeb315e6,001,2021-08-01_10h29.35.624,arrow_simon_norep,2021.1.2,MacIntel,60.0024001,,,,,,,,,,,,,,,,,,,,,w,1,1.573,5,FALSE,FALSE,1,0,4,3,1,,,,,,,
,,,,,,0,1.870362466,#f3af84,,left_orange.png,q,,,,,,w,left_blue.png,left_orange.png,q,left,60fe1580147adc7ebeb315e6,001,2021-08-01_10h29.35.624,arrow_simon_norep,2021.1.2,MacIntel,60.0024001,,,,,,,,,,,,,,,,,,,,,q,1,1.5137,6,FALSE,FALSE,1,1,5,2,1,,,,,,,
,,,,,,0,1.848064312,#a3d0fb,,left_blue.png,w,,,,,,w,left_blue.png,left_orange.png,q,right,60fe1580147adc7ebeb315e6,001,2021-08-01_10h29.35.624,arrow_simon_norep,2021.1.2,MacIntel,60.0024001,,,,,,,,,,,,,,,,,,,,,w,1,1.7101,7,TRUE,FALSE,1,2,6,3,1,,,,,,,
,,,,,,0,1.643716435,#f3af84,,right_orange.png,p,,,,,,o,right_blue.png,right_orange.png,p,left,60fe1580147adc7ebeb315e6,001,2021-08-01_10h29.35.624,arrow_simon_norep,2021.1.2,MacIntel,60.0024001,,,,,,,,,,,,,,,,,,,,,p,1,1.8046,8,TRUE,FALSE,1,3,7,0,1,,,,,,,
,,,,,,0,1.832945313,#a3d0fb,,left_blue.png,w,,,,,,w,left_blue.png,left_orange.png,q,left,60fe1580147adc7ebeb315e6,001,2021-08-01_10h29.35.624,arrow_simon_norep,2021.1.2,MacIntel,60.0024001,,,,,,,,,,,,,,,,,,,,,w,1,1.5182,9,FALSE,FALSE,2,0,8,2,1,,,,,,,
,,,,,,0,2.121687262,#f3af84,,right_orange.png,p,,,,,,o,right_blue.png,right_orange.png,p,right,60fe1580147adc7ebeb315e6,001,2021-08-01_10h29.35.624,arrow_simon_norep,2021.1.2,MacIntel,60.0024001,,,,,,,,,,,,,,,,,,,,,p,1,1.4532,10,FALSE,FALSE,2,1,9,1,1,,,,,,,
,,,,,,0,1.500944539,#a3d0fb,,left_blue.png,w,,,,,,w,left_blue.png,left_orange.png,q,right,60fe1580147adc7ebeb315e6,001,2021-08-01_10h29.35.624,arrow_simon_norep,2021.1.2,MacIntel,60.0024001,,,,,,,,,,,,,,,,,,,,,w,1,1.5025,11,FALSE,FALSE,2,2,10,3,1,,,,,,,
,,,,,,0,2.319671691,#f3af84,,right_orange.png,p,,,,,,o,right_blue.png,right_orange.png,p,right,60fe1580147adc7ebeb315e6,001,2021-08-01_10h29.35.624,arrow_simon_norep,2021.1.2,MacIntel,60.0024001,,,,,,,,,,,,,,,,,,,,,p,1,1.5838,12,FALSE,FALSE,2,3,11,1,1,,,,,,,
,,,,,,0,2.091951526,#a3d0fb,,right_blue.png,o,,,,,,o,right_blue.png,right_orange.png,p,right,60fe1580147adc7ebeb315e6,001,2021-08-01_10h29.35.624,arrow_simon_norep,2021.1.2,MacIntel,60.0024001,,,,,,,,,,,,,,,,,,,,,o,1,1.4858,13,FALSE,FALSE,3,0,12,1,1,,,,,,,
,,,,,,0,2.219055335,#f3af84,,left_orange.png,q,,,,,,w,left_blue.png,left_orange.png,q,right,60fe1580147adc7ebeb315e6,001,2021-08-01_10h29.35.624,arrow_simon_norep,2021.1.2,MacIntel,60.0024001,,,,,,,,,,,,,,,,,,,,,q,1,1.5838,14,FALSE,FALSE,3,1,13,3,1,,,,,,,
,,,,,,0,2.439665389,#a3d0fb,,left_blue.png,w,,,,,,w,left_blue.png,left_orange.png,q,left,60fe1580147adc7ebeb315e6,001,2021-08-01_10h29.35.624,arrow_simon_norep,2021.1.2,MacIntel,60.0024001,,,,,,,,,,,,,,,,,,,,,o,0,1.6839,15,TRUE,FALSE,3,2,14,2,1,,,,,,,
,,,,,,0,1.993259113,#f3af84,,left_orange.png,q,,,,,,w,left_blue.png,left_orange.png,q,left,60fe1580147adc7ebeb315e6,001,2021-08-01_10h29.35.624,arrow_simon_norep,2021.1.2,MacIntel,60.0024001,,,,,,,,,,,,,,,,,,,,,q,1,1.3291,16,FALSE,TRUE,3,3,15,2,1,,,,,,,
,,,,,,0,2.338937882,#a3d0fb,,left_blue.png,w,,,,,,w,left_blue.png,left_orange.png,q,right,60fe1580147adc7ebeb315e6,001,2021-08-01_10h29.35.624,arrow_simon_norep,2021.1.2,MacIntel,60.0024001,,,,,,,,,,,,,,,,,,,,,o,0,1.6524,17,TRUE,FALSE,4,0,16,3,1,,,,,,,
,,,,,,0,2.439995962,#f3af84,,left_orange.png,q,,,,,,w,left_blue.png,left_orange.png,q,left,60fe1580147adc7ebeb315e6,001,2021-08-01_10h29.35.624,arrow_simon_norep,2021.1.2,MacIntel,60.0024001,,,,,,,,,,,,,,,,,,,,,q,1,1.7591,18,TRUE,FALSE,4,1,17,2,1,,,,,,,
,,,,,,0,1.637225335,#a3d0fb,,right_blue.png,o,,,,,,o,right_blue.png,right_orange.png,p,left,60fe1580147adc7ebeb315e6,001,2021-08-01_10h29.35.624,arrow_simon_norep,2021.1.2,MacIntel,60.0024001,,,,,,,,,,,,,,,,,,,,,o,1,1.5194,19,FALSE,FALSE,4,2,18,0,1,,,,,,,
,,,,,,0,2.075131337,#f3af84,,right_orange.png,p,,,,,,o,right_blue.png,right_orange.png,p,right,60fe1580147adc7ebeb315e6,001,2021-08-01_10h29.35.624,arrow_simon_norep,2021.1.2,MacIntel,60.0024001,,,,,,,,,,,,,,,,,,,,,p,1,1.4292,20,FALSE,FALSE,4,3,19,1,1,,,,,,,
,,,,,,1,2.213401354,#a3d0fb,,right_blue.png,o,,,,,,o,right_blue.png,right_orange.png,p,left,60fe1580147adc7ebeb315e6,001,2021-08-01_10h29.35.624,arrow_simon_norep,2021.1.2,MacIntel,60.0024001,,,,,,,,,,,,,,,,,,,,,w,0,1.5339,21,FALSE,FALSE,5,0,20,0,1,,,,,,,
,,,,,,0,1.69985414,#f3af84,,right_orange.png,p,,,,,,o,right_blue.png,right_orange.png,p,right,60fe1580147adc7ebeb315e6,001,2021-08-01_10h29.35.624,arrow_simon_norep,2021.1.2,MacIntel,60.0024001,,,,,,,,,,,,,,,,,,,,,p,1,1.5663,22,FALSE,FALSE,5,1,21,1,1,,,,,,,
,,,,,,0,2.217904809,#a3d0fb,,left_blue.png,w,,,,,,w,left_blue.png,left_orange.png,q,right,60fe1580147adc7ebeb315e6,001,2021-08-01_10h29.35.624,arrow_simon_norep,2021.1.2,MacIntel,60.0024001,,,,,,,,,,,,,,,,,,,,,w,1,1.5795,23,FALSE,FALSE,5,2,22,3,1,,,,,,,
,,,,,,1,2.124485213,#f3af84,,right_orange.png,p,,,,,,o,right_blue.png,right_orange.png,p,left,60fe1580147adc7ebeb315e6,001,2021-08-01_10h29.35.624,arrow_simon_norep,2021.1.2,MacIntel,60.0024001,,,,,,,,,,,,,,,,,,,,,q,0,1.4571,24,FALSE,FALSE,5,3,23,0,1,,,,,,,
,,,,,,0,1.936401505,#a3d0fb,,left_blue.png,w,,,,,,w,left_blue.png,left_orange.png,q,left,60fe1580147adc7ebeb315e6,001,2021-08-01_10h29.35.624,arrow_simon_norep,2021.1.2,MacIntel,60.0024001,,,,,,,,,,,,,,,,,,,,,w,1,1.5368,25,FALSE,FALSE,6,0,24,2,1,,,,,,,
,,,,,,0,2.325858292,#f3af84,,left_orange.png,q,,,,,,w,left_blue.png,left_orange.png,q,right,60fe1580147adc7ebeb315e6,001,2021-08-01_10h29.35.624,arrow_simon_norep,2021.1.2,MacIntel,60.0024001,,,,,,,,,,,,,,,,,,,,,q,1,1.6682,26,TRUE,FALSE,6,1,25,3,1,,,,,,,
,,,,,,0,2.163096293,#a3d0fb,,right_blue.png,o,,,,,,o,right_blue.png,right_orange.png,p,left,60fe1580147adc7ebeb315e6,001,2021-08-01_10h29.35.624,arrow_simon_norep,2021.1.2,MacIntel,60.0024001,,,,,,,,,,,,,,,,,,,,,o,1,1.501,27,FALSE,FALSE,6,2,26,0,1,,,,,,,
,,,,,,0,1.679226838,#f3af84,,left_orange.png,q,,,,,,w,left_blue.png,left_orange.png,q,left,60fe1580147adc7ebeb315e6,001,2021-08-01_10h29.35.624,arrow_simon_norep,2021.1.2,MacIntel,60.0024001,,,,,,,,,,,,,,,,,,,,,q,1,1.555,28,FALSE,FALSE,6,3,27,2,1,,,,,,,
,,,,,,0,1.562048162,#a3d0fb,,right_blue.png,o,,,,,,o,right_blue.png,right_orange.png,p,right,60fe1580147adc7ebeb315e6,001,2021-08-01_10h29.35.624,arrow_simon_norep,2021.1.2,MacIntel,60.0024001,,,,,,,,,,,,,,,,,,,,,o,1,1.8155,29,TRUE,FALSE,7,0,28,1,1,,,,,,,
,,,,,,0,1.598762852,#f3af84,,left_orange.png,q,,,,,,w,left_blue.png,left_orange.png,q,right,60fe1580147adc7ebeb315e6,001,2021-08-01_10h29.35.624,arrow_simon_norep,2021.1.2,MacIntel,60.0024001,,,,,,,,,,,,,,,,,,,,,q,1,1.118,30,FALSE,TRUE,7,1,29,3,1,,,,,,,
,,,,,,0,2.216140845,#a3d0fb,,right_blue.png,o,,,,,,o,right_blue.png,right_orange.png,p,right,60fe1580147adc7ebeb315e6,001,2021-08-01_10h29.35.624,arrow_simon_norep,2021.1.2,MacIntel,60.0024001,,,,,,,,,,,,,,,,,,,,,o,1,1.6537,31,TRUE,FALSE,7,2,30,1,1,,,,,,,
,,,,,,0,2.332288324,#f3af84,,left_orange.png,q,,,,,,w,left_blue.png,left_orange.png,q,left,60fe1580147adc7ebeb315e6,001,2021-08-01_10h29.35.624,arrow_simon_norep,2021.1.2,MacIntel,60.0024001,,,,,,,,,,,,,,,,,,,,,q,1,1.5684,32,FALSE,FALSE,7,3,31,2,1,,,,,,,
,,,,,,0,1.742621139,#a3d0fb,,right_blue.png,o,,,,,,o,right_blue.png,right_orange.png,p,right,60fe1580147adc7ebeb315e6,001,2021-08-01_10h29.35.624,arrow_simon_norep,2021.1.2,MacIntel,60.0024001,,,,,,,,,,,,,,,,,,,,,o,1,1.5407,33,FALSE,FALSE,8,0,32,1,1,,,,,,,
,,,,,,0,2.187012126,#f3af84,,right_orange.png,p,,,,,,o,right_blue.png,right_orange.png,p,right,60fe1580147adc7ebeb315e6,001,2021-08-01_10h29.35.624,arrow_simon_norep,2021.1.2,MacIntel,60.0024001,,,,,,,,,,,,,,,,,,,,,p,1,1.4819,34,FALSE,FALSE,8,1,33,1,1,,,,,,,
,,,,,,0,1.607643508,#a3d0fb,,left_blue.png,w,,,,,,w,left_blue.png,left_orange.png,q,left,60fe1580147adc7ebeb315e6,001,2021-08-01_10h29.35.624,arrow_simon_norep,2021.1.2,MacIntel,60.0024001,,,,,,,,,,,,,,,,,,,,,w,1,1.501,35,FALSE,FALSE,8,2,34,2,1,,,,,,,
,,,,,,0,2.382107047,#f3af84,,right_orange.png,p,,,,,,o,right_blue.png,right_orange.png,p,left,60fe1580147adc7ebeb315e6,001,2021-08-01_10h29.35.624,arrow_simon_norep,2021.1.2,MacIntel,60.0024001,,,,,,,,,,,,,,,,,,,,,p,1,1.7873,36,TRUE,FALSE,8,3,35,0,1,,,,,,,
,,,,,,0,2.393559483,#a3d0fb,,left_blue.png,w,,,,,,w,left_blue.png,left_orange.png,q,right,60fe1580147adc7ebeb315e6,001,2021-08-01_10h29.35.624,arrow_simon_norep,2021.1.2,MacIntel,60.0024001,,,,,,,,,,,,,,,,,,,,,o,0,1.6693,37,TRUE,FALSE,9,0,36,3,1,,,,,,,
,,,,,,0,1.981269619,#f3af84,,right_orange.png,p,,,,,,o,right_blue.png,right_orange.png,p,left,60fe1580147adc7ebeb315e6,001,2021-08-01_10h29.35.624,arrow_simon_norep,2021.1.2,MacIntel,60.0024001,,,,,,,,,,,,,,,,,,,,,p,1,1.3165,38,FALSE,TRUE,9,1,37,0,1,,,,,,,
,,,,,,0,2.108732459,#a3d0fb,,left_blue.png,w,,,,,,w,left_blue.png,left_orange.png,q,right,60fe1580147adc7ebeb315e6,001,2021-08-01_10h29.35.624,arrow_simon_norep,2021.1.2,MacIntel,60.0024001,,,,,,,,,,,,,,,,,,,,,w,1,1.4495,39,FALSE,FALSE,9,2,38,3,1,,,,,,,
,,,,,,1,2.225658421,#f3af84,,left_orange.png,q,,,,,,w,left_blue.png,left_orange.png,q,left,60fe1580147adc7ebeb315e6,001,2021-08-01_10h29.35.624,arrow_simon_norep,2021.1.2,MacIntel,60.0024001,,,,,,,,,,,,,,,,,,,,,p,0,1.5332,40,FALSE,FALSE,9,3,39,2,1,,,,,,,
,,,,,,0,1.816032861,#a3d0fb,,right_blue.png,o,,,,,,o,right_blue.png,right_orange.png,p,left,60fe1580147adc7ebeb315e6,001,2021-08-01_10h29.35.624,arrow_simon_norep,2021.1.2,MacIntel,60.0024001,,,,,,,,,,,,,,,,,,,,,o,1,1.5705,41,FALSE,FALSE,10,0,40,0,1,,,,,,,
,,,,,,0,2.251316738,#f3af84,,left_orange.png,q,,,,,,w,left_blue.png,left_orange.png,q,right,60fe1580147adc7ebeb315e6,001,2021-08-01_10h29.35.624,arrow_simon_norep,2021.1.2,MacIntel,60.0024001,,,,,,,,,,,,,,,,,,,,,q,1,1.5803,42,FALSE,FALSE,10,1,41,3,1,,,,,,,
,,,,,,0,1.67659321,#a3d0fb,,right_blue.png,o,,,,,,o,right_blue.png,right_orange.png,p,left,60fe1580147adc7ebeb315e6,001,2021-08-01_10h29.35.624,arrow_simon_norep,2021.1.2,MacIntel,60.0024001,,,,,,,,,,,,,,,,,,,,,o,1,1.5488,43,FALSE,FALSE,10,2,42,0,1,,,,,,,
,,,,,,0,1.684923421,#f3af84,,left_orange.png,q,,,,,,w,left_blue.png,left_orange.png,q,right,60fe1580147adc7ebeb315e6,001,2021-08-01_10h29.35.624,arrow_simon_norep,2021.1.2,MacIntel,60.0024001,,,,,,,,,,,,,,,,,,,,,q,1,1.4638,44,FALSE,FALSE,10,3,43,3,1,,,,,,,
,,,,,,0,2.009934803,#a3d0fb,,left_blue.png,w,,,,,,w,left_blue.png,left_orange.png,q,left,60fe1580147adc7ebeb315e6,001,2021-08-01_10h29.35.624,arrow_simon_norep,2021.1.2,MacIntel,60.0024001,,,,,,,,,,,,,,,,,,,,,w,1,1.5031,45,FALSE,FALSE,11,0,44,2,1,,,,,,,
,,,,,,0,2.2488393,#f3af84,,right_orange.png,p,,,,,,o,right_blue.png,right_orange.png,p,right,60fe1580147adc7ebeb315e6,001,2021-08-01_10h29.35.624,arrow_simon_norep,2021.1.2,MacIntel,60.0024001,,,,,,,,,,,,,,,,,,,,,p,1,1.5859,46,FALSE,FALSE,11,1,45,1,1,,,,,,,
,,,,,,0,1.930436453,#a3d0fb,,left_blue.png,w,,,,,,w,left_blue.png,left_orange.png,q,right,60fe1580147adc7ebeb315e6,001,2021-08-01_10h29.35.624,arrow_simon_norep,2021.1.2,MacIntel,60.0024001,,,,,,,,,,,,,,,,,,,,,w,1,1.6017,47,TRUE,FALSE,11,2,46,3,1,,,,,,,
,,,,,,0,2.347774684,#f3af84,,right_orange.png,p,,,,,,o,right_blue.png,right_orange.png,p,left,60fe1580147adc7ebeb315e6,001,2021-08-01_10h29.35.624,arrow_simon_norep,2021.1.2,MacIntel,60.0024001,,,,,,,,,,,,,,,,,,,,,q,0,1.6201,48,TRUE,FALSE,11,3,47,0,1,,,,,,,
,,,,,,0,2.000801428,#a3d0fb,,right_blue.png,o,,,,,,o,right_blue.png,right_orange.png,p,left,60fe1580147adc7ebeb315e6,001,2021-08-01_10h29.35.624,arrow_simon_norep,2021.1.2,MacIntel,60.0024001,,,,,,,,,,,,,,,,,,,,,o,1,1.5341,49,FALSE,FALSE,12,0,48,0,1,,,,,,,
,,,,,,0,1.857650804,#f3af84,,right_orange.png,p,,,,,,o,right_blue.png,right_orange.png,p,left,60fe1580147adc7ebeb315e6,001,2021-08-01_10h29.35.624,arrow_simon_norep,2021.1.2,MacIntel,60.0024001,,,,,,,,,,,,,,,,,,,,,p,1,1.6346,50,TRUE,FALSE,12,1,49,0,1,,,,,,,
,,,,,,0,2.075256425,#a3d0fb,,right_blue.png,o,,,,,,o,right_blue.png,right_orange.png,p,right,60fe1580147adc7ebeb315e6,001,2021-08-01_10h29.35.624,arrow_simon_norep,2021.1.2,MacIntel,60.0024001,,,,,,,,,,,,,,,,,,,,,o,1,1.5013,51,FALSE,FALSE,12,2,50,1,1,,,,,,,
,,,,,,0,1.702993248,#f3af84,,right_orange.png,p,,,,,,o,right_blue.png,right_orange.png,p,right,60fe1580147adc7ebeb315e6,001,2021-08-01_10h29.35.624,arrow_simon_norep,2021.1.2,MacIntel,60.0024001,,,,,,,,,,,,,,,,,,,,,p,1,1.455,52,FALSE,FALSE,12,3,51,1,1,,,,,,,
,,,,,,0,2.15654537,#a3d0fb,,right_blue.png,o,,,,,,o,right_blue.png,right_orange.png,p,left,60fe1580147adc7ebeb315e6,001,2021-08-01_10h29.35.624,arrow_simon_norep,2021.1.2,MacIntel,60.0024001,,,,,,,,,,,,,,,,,,,,,o,1,1.4666,53,FALSE,FALSE,13,0,52,0,1,,,,,,,
,,,,,,0,2.296202797,#f3af84,,left_orange.png,q,,,,,,w,left_blue.png,left_orange.png,q,right,60fe1580147adc7ebeb315e6,001,2021-08-01_10h29.35.624,arrow_simon_norep,2021.1.2,MacIntel,60.0024001,,,,,,,,,,,,,,,,,,,,,q,1,1.6735,54,TRUE,FALSE,13,1,53,3,1,,,,,,,
,,,,,,0,2.493083838,#a3d0fb,,right_blue.png,o,,,,,,o,right_blue.png,right_orange.png,p,left,60fe1580147adc7ebeb315e6,001,2021-08-01_10h29.35.624,arrow_simon_norep,2021.1.2,MacIntel,60.0024001,,,,,,,,,,,,,,,,,,,,,o,1,1.7189,55,TRUE,FALSE,13,2,54,0,1,,,,,,,
,,,,,,0,1.877743044,#f3af84,,left_orange.png,q,,,,,,w,left_blue.png,left_orange.png,q,left,60fe1580147adc7ebeb315e6,001,2021-08-01_10h29.35.624,arrow_simon_norep,2021.1.2,MacIntel,60.0024001,,,,,,,,,,,,,,,,,,,,,q,1,1.5873,56,FALSE,FALSE,13,3,55,2,1,,,,,,,
,,,,,,0,1.53278166,#a3d0fb,,left_blue.png,w,,,,,,w,left_blue.png,left_orange.png,q,left,60fe1580147adc7ebeb315e6,001,2021-08-01_10h29.35.624,arrow_simon_norep,2021.1.2,MacIntel,60.0024001,,,,,,,,,,,,,,,,,,,,,w,1,1.5539,57,FALSE,FALSE,14,0,56,2,1,,,,,,,
,,,,,,0,1.602263638,#f3af84,,right_orange.png,p,,,,,,o,right_blue.png,right_orange.png,p,left,60fe1580147adc7ebeb315e6,001,2021-08-01_10h29.35.624,arrow_simon_norep,2021.1.2,MacIntel,60.0024001,,,,,,,,,,,,,,,,,,,,,p,1,1.4908,58,FALSE,FALSE,14,1,57,0,1,,,,,,,
,,,,,,0,2.249685079,#a3d0fb,,right_blue.png,o,,,,,,o,right_blue.png,right_orange.png,p,right,60fe1580147adc7ebeb315e6,001,2021-08-01_10h29.35.624,arrow_simon_norep,2021.1.2,MacIntel,60.0024001,,,,,,,,,,,,,,,,,,,,,o,1,1.5401,59,FALSE,FALSE,14,2,58,1,1,,,,,,,
,,,,,,1,2.36306603,#f3af84,,right_orange.png,p,,,,,,o,right_blue.png,right_orange.png,p,right,60fe1580147adc7ebeb315e6,001,2021-08-01_10h29.35.624,arrow_simon_norep,2021.1.2,MacIntel,60.0024001,,,,,,,,,,,,,,,,,,,,,q,0,1.5201,60,FALSE,FALSE,14,3,59,1,1,,,,,,,
,,,,,,,,,,,,,,,,,,,,,,60fe1580147adc7ebeb315e6,001,2021-08-01_10h29.35.624,arrow_simon_norep,2021.1.2,MacIntel,60.0024001,,,,,,,,,,,,,,,,,,,,,,,,,,,,,,,,space,9.1387,0,0,0,0,1
,,,,,,0,1.776887926,#a3d0fb,,right_blue.png,o,,,,,,o,right_blue.png,right_orange.png,p,left,60fe1580147adc7ebeb315e6,001,2021-08-01_10h29.35.624,arrow_simon_norep,2021.1.2,MacIntel,60.0024001,,,,,,,,,,,,,,,,,,,,,o,1,1.419,1,FALSE,FALSE,0,0,0,0,1,,,,,,,
,,,,,,0,2.095855362,#f3af84,,left_orange.png,q,,,,,,w,left_blue.png,left_orange.png,q,right,60fe1580147adc7ebeb315e6,001,2021-08-01_10h29.35.624,arrow_simon_norep,2021.1.2,MacIntel,60.0024001,,,,,,,,,,,,,,,,,,,,,q,1,1.456,2,FALSE,FALSE,0,1,1,3,1,,,,,,,
,,,,,,0,1.799911283,#a3d0fb,,right_blue.png,o,,,,,,o,right_blue.png,right_orange.png,p,right,60fe1580147adc7ebeb315e6,001,2021-08-01_10h29.35.624,arrow_simon_norep,2021.1.2,MacIntel,60.0024001,,,,,,,,,,,,,,,,,,,,,o,1,1.4718,3,FALSE,FALSE,0,2,2,1,1,,,,,,,
,,,,,,0,1.715078633,#f3af84,,left_orange.png,q,,,,,,w,left_blue.png,left_orange.png,q,right,60fe1580147adc7ebeb315e6,001,2021-08-01_10h29.35.624,arrow_simon_norep,2021.1.2,MacIntel,60.0024001,,,,,,,,,,,,,,,,,,,,,q,1,1.5509,4,FALSE,FALSE,0,3,3,3,1,,,,,,,
,,,,,,0,1.68617674,#a3d0fb,,left_blue.png,w,,,,,,w,left_blue.png,left_orange.png,q,right,60fe1580147adc7ebeb315e6,001,2021-08-01_10h29.35.624,arrow_simon_norep,2021.1.2,MacIntel,60.0024001,,,,,,,,,,,,,,,,,,,,,w,1,1.5875,5,FALSE,FALSE,1,0,4,3,1,,,,,,,
,,,,,,0,2.029790815,#f3af84,,right_orange.png,p,,,,,,o,right_blue.png,right_orange.png,p,left,60fe1580147adc7ebeb315e6,001,2021-08-01_10h29.35.624,arrow_simon_norep,2021.1.2,MacIntel,60.0024001,,,,,,,,,,,,,,,,,,,,,p,1,1.4012,6,FALSE,FALSE,1,1,5,0,1,,,,,,,
,,,,,,0,2.032704305,#a3d0fb,,right_blue.png,o,,,,,,o,right_blue.png,right_orange.png,p,right,60fe1580147adc7ebeb315e6,001,2021-08-01_10h29.35.624,arrow_simon_norep,2021.1.2,MacIntel,60.0024001,,,,,,,,,,,,,,,,,,,,,o,1,1.4646,7,FALSE,FALSE,1,2,6,1,1,,,,,,,
,,,,,,0,1.630752069,#f3af84,,right_orange.png,p,,,,,,o,right_blue.png,right_orange.png,p,right,60fe1580147adc7ebeb315e6,001,2021-08-01_10h29.35.624,arrow_simon_norep,2021.1.2,MacIntel,60.0024001,,,,,,,,,,,,,,,,,,,,,p,1,1.5318,8,FALSE,FALSE,1,3,7,1,1,,,,,,,
,,,,,,0,1.916696322,#a3d0fb,,left_blue.png,w,,,,,,w,left_blue.png,left_orange.png,q,right,60fe1580147adc7ebeb315e6,001,2021-08-01_10h29.35.624,arrow_simon_norep,2021.1.2,MacIntel,60.0024001,,,,,,,,,,,,,,,,,,,,,w,1,1.5708,9,FALSE,FALSE,2,0,8,3,1,,,,,,,
,,,,,,0,1.968883026,#f3af84,,left_orange.png,q,,,,,,w,left_blue.png,left_orange.png,q,left,60fe1580147adc7ebeb315e6,001,2021-08-01_10h29.35.624,arrow_simon_norep,2021.1.2,MacIntel,60.0024001,,,,,,,,,,,,,,,,,,,,,q,1,1.5056,10,FALSE,FALSE,2,1,9,2,1,,,,,,,
,,,,,,0,1.884860121,#a3d0fb,,right_blue.png,o,,,,,,o,right_blue.png,right_orange.png,p,left,60fe1580147adc7ebeb315e6,001,2021-08-01_10h29.35.624,arrow_simon_norep,2021.1.2,MacIntel,60.0024001,,,,,,,,,,,,,,,,,,,,,o,1,1.5568,11,FALSE,FALSE,2,2,10,0,1,,,,,,,
,,,,,,0,2.224850178,#f3af84,,left_orange.png,q,,,,,,w,left_blue.png,left_orange.png,q,left,60fe1580147adc7ebeb315e6,001,2021-08-01_10h29.35.624,arrow_simon_norep,2021.1.2,MacIntel,60.0024001,,,,,,,,,,,,,,,,,,,,,q,1,1.5678,12,FALSE,FALSE,2,3,11,2,1,,,,,,,
,,,,,,0,1.894210498,#a3d0fb,,left_blue.png,w,,,,,,w,left_blue.png,left_orange.png,q,left,60fe1580147adc7ebeb315e6,001,2021-08-01_10h29.35.624,arrow_simon_norep,2021.1.2,MacIntel,60.0024001,,,,,,,,,,,,,,,,,,,,,w,1,1.5676,13,FALSE,FALSE,3,0,12,2,1,,,,,,,
,,,,,,0,2.081211006,#f3af84,,right_orange.png,p,,,,,,o,right_blue.png,right_orange.png,p,left,60fe1580147adc7ebeb315e6,001,2021-08-01_10h29.35.624,arrow_simon_norep,2021.1.2,MacIntel,60.0024001,,,,,,,,,,,,,,,,,,,,,p,1,1.5678,14,FALSE,FALSE,3,1,13,0,1,,,,,,,
,,,,,,0,1.93479685,#a3d0fb,,left_blue.png,w,,,,,,w,left_blue.png,left_orange.png,q,right,60fe1580147adc7ebeb315e6,001,2021-08-01_10h29.35.624,arrow_simon_norep,2021.1.2,MacIntel,60.0024001,,,,,,,,,,,,,,,,,,,,,w,1,1.5013,15,FALSE,FALSE,3,2,14,3,1,,,,,,,
,,,,,,0,1.570898955,#f3af84,,right_orange.png,p,,,,,,o,right_blue.png,right_orange.png,p,right,60fe1580147adc7ebeb315e6,001,2021-08-01_10h29.35.624,arrow_simon_norep,2021.1.2,MacIntel,60.0024001,,,,,,,,,,,,,,,,,,,,,p,1,1.4851,16,FALSE,FALSE,3,3,15,1,1,,,,,,,
,,,,,,0,1.570215877,#a3d0fb,,left_blue.png,w,,,,,,w,left_blue.png,left_orange.png,q,right,60fe1580147adc7ebeb315e6,001,2021-08-01_10h29.35.624,arrow_simon_norep,2021.1.2,MacIntel,60.0024001,,,,,,,,,,,,,,,,,,,,,w,1,1.519,17,FALSE,FALSE,4,0,16,3,1,,,,,,,
,,,,,,0,2.211142068,#f3af84,,right_orange.png,p,,,,,,o,right_blue.png,right_orange.png,p,left,60fe1580147adc7ebeb315e6,001,2021-08-01_10h29.35.624,arrow_simon_norep,2021.1.2,MacIntel,60.0024001,,,,,,,,,,,,,,,,,,,,,p,1,1.5831,18,FALSE,FALSE,4,1,17,0,1,,,,,,,
,,,,,,0,1.610302392,#a3d0fb,,right_blue.png,o,,,,,,o,right_blue.png,right_orange.png,p,left,60fe1580147adc7ebeb315e6,001,2021-08-01_10h29.35.624,arrow_simon_norep,2021.1.2,MacIntel,60.0024001,,,,,,,,,,,,,,,,,,,,,o,1,1.586,19,FALSE,FALSE,4,2,18,0,1,,,,,,,
,,,,,,0,2.247573506,#f3af84,,left_orange.png,q,,,,,,w,left_blue.png,left_orange.png,q,right,60fe1580147adc7ebeb315e6,001,2021-08-01_10h29.35.624,arrow_simon_norep,2021.1.2,MacIntel,60.0024001,,,,,,,,,,,,,,,,,,,,,q,1,1.5817,20,FALSE,FALSE,4,3,19,3,1,,,,,,,
,,,,,,1,2.018788834,#a3d0fb,,right_blue.png,o,,,,,,o,right_blue.png,right_orange.png,p,right,60fe1580147adc7ebeb315e6,001,2021-08-01_10h29.35.624,arrow_simon_norep,2021.1.2,MacIntel,60.0024001,,,,,,,,,,,,,,,,,,,,,p,0,1.4974,21,FALSE,FALSE,5,0,20,1,1,,,,,,,
,,,,,,0,2.030426641,#f3af84,,right_orange.png,p,,,,,,o,right_blue.png,right_orange.png,p,left,60fe1580147adc7ebeb315e6,001,2021-08-01_10h29.35.624,arrow_simon_norep,2021.1.2,MacIntel,60.0024001,,,,,,,,,,,,,,,,,,,,,p,1,1.5334,22,FALSE,FALSE,5,1,21,0,1,,,,,,,
,,,,,,0,1.922435901,#a3d0fb,,left_blue.png,w,,,,,,w,left_blue.png,left_orange.png,q,right,60fe1580147adc7ebeb315e6,001,2021-08-01_10h29.35.624,arrow_simon_norep,2021.1.2,MacIntel,60.0024001,,,,,,,,,,,,,,,,,,,,,w,1,1.4677,23,FALSE,FALSE,5,2,22,3,1,,,,,,,
,,,,,,0,1.676706555,#f3af84,,right_orange.png,p,,,,,,o,right_blue.png,right_orange.png,p,right,60fe1580147adc7ebeb315e6,001,2021-08-01_10h29.35.624,arrow_simon_norep,2021.1.2,MacIntel,60.0024001,,,,,,,,,,,,,,,,,,,,,p,1,1.6677,24,TRUE,FALSE,5,3,23,1,1,,,,,,,
,,,,,,0,2.391420995,#a3d0fb,,left_blue.png,w,,,,,,w,left_blue.png,left_orange.png,q,left,60fe1580147adc7ebeb315e6,001,2021-08-01_10h29.35.624,arrow_simon_norep,2021.1.2,MacIntel,60.0024001,,,,,,,,,,,,,,,,,,,,,o,0,1.6141,25,TRUE,FALSE,6,0,24,2,1,,,,,,,
,,,,,,0,2.452652251,#f3af84,,right_orange.png,p,,,,,,o,right_blue.png,right_orange.png,p,left,60fe1580147adc7ebeb315e6,001,2021-08-01_10h29.35.624,arrow_simon_norep,2021.1.2,MacIntel,60.0024001,,,,,,,,,,,,,,,,,,,,,q,0,1.686,26,TRUE,FALSE,6,1,25,0,1,,,,,,,
,,,,,,0,2.052293101,#a3d0fb,,right_blue.png,o,,,,,,o,right_blue.png,right_orange.png,p,right,60fe1580147adc7ebeb315e6,001,2021-08-01_10h29.35.624,arrow_simon_norep,2021.1.2,MacIntel,60.0024001,,,,,,,,,,,,,,,,,,,,,o,1,1.4369,27,FALSE,FALSE,6,2,26,1,1,,,,,,,
,,,,,,0,1.624505916,#f3af84,,right_orange.png,p,,,,,,o,right_blue.png,right_orange.png,p,left,60fe1580147adc7ebeb315e6,001,2021-08-01_10h29.35.624,arrow_simon_norep,2021.1.2,MacIntel,60.0024001,,,,,,,,,,,,,,,,,,,,,p,1,1.5083,28,FALSE,FALSE,6,3,27,0,1,,,,,,,
,,,,,,0,1.988859609,#a3d0fb,,left_blue.png,w,,,,,,w,left_blue.png,left_orange.png,q,left,60fe1580147adc7ebeb315e6,001,2021-08-01_10h29.35.624,arrow_simon_norep,2021.1.2,MacIntel,60.0024001,,,,,,,,,,,,,,,,,,,,,w,1,1.4502,29,FALSE,FALSE,7,0,28,2,1,,,,,,,
,,,,,,1,1.904814104,#f3af84,,left_orange.png,q,,,,,,w,left_blue.png,left_orange.png,q,left,60fe1580147adc7ebeb315e6,001,2021-08-01_10h29.35.624,arrow_simon_norep,2021.1.2,MacIntel,60.0024001,,,,,,,,,,,,,,,,,,,,,w,0,1.5047,30,FALSE,FALSE,7,1,29,2,1,,,,,,,
,,,,,,0,1.62421322,#a3d0fb,,left_blue.png,w,,,,,,w,left_blue.png,left_orange.png,q,right,60fe1580147adc7ebeb315e6,001,2021-08-01_10h29.35.624,arrow_simon_norep,2021.1.2,MacIntel,60.0024001,,,,,,,,,,,,,,,,,,,,,w,1,1.5005,31,FALSE,FALSE,7,2,30,3,1,,,,,,,
,,,,,,0,2.194574752,#f3af84,,right_orange.png,p,,,,,,o,right_blue.png,right_orange.png,p,left,60fe1580147adc7ebeb315e6,001,2021-08-01_10h29.35.624,arrow_simon_norep,2021.1.2,MacIntel,60.0024001,,,,,,,,,,,,,,,,,,,,,p,1,1.5827,32,FALSE,FALSE,7,3,31,0,1,,,,,,,
,,,,,,0,1.781755484,#a3d0fb,,right_blue.png,o,,,,,,o,right_blue.png,right_orange.png,p,right,60fe1580147adc7ebeb315e6,001,2021-08-01_10h29.35.624,arrow_simon_norep,2021.1.2,MacIntel,60.0024001,,,,,,,,,,,,,,,,,,,,,o,1,1.469,33,FALSE,FALSE,8,0,32,1,1,,,,,,,
,,,,,,0,1.740011371,#f3af84,,left_orange.png,q,,,,,,w,left_blue.png,left_orange.png,q,left,60fe1580147adc7ebeb315e6,001,2021-08-01_10h29.35.624,arrow_simon_norep,2021.1.2,MacIntel,60.0024001,,,,,,,,,,,,,,,,,,,,,q,1,1.4664,34,FALSE,FALSE,8,1,33,2,1,,,,,,,
,,,,,,0,2.384242832,#a3d0fb,,left_blue.png,w,,,,,,w,left_blue.png,left_orange.png,q,right,60fe1580147adc7ebeb315e6,001,2021-08-01_10h29.35.624,arrow_simon_norep,2021.1.2,MacIntel,60.0024001,,,,,,,,,,,,,,,,,,,,,o,0,1.6218,35,TRUE,FALSE,8,2,34,3,1,,,,,,,
,,,,,,0,2.207179825,#f3af84,,left_orange.png,q,,,,,,w,left_blue.png,left_orange.png,q,left,60fe1580147adc7ebeb315e6,001,2021-08-01_10h29.35.624,arrow_simon_norep,2021.1.2,MacIntel,60.0024001,,,,,,,,,,,,,,,,,,,,,q,1,1.5107,36,FALSE,FALSE,8,3,35,2,1,,,,,,,
,,,,,,0,2.033340093,#a3d0fb,,left_blue.png,w,,,,,,w,left_blue.png,left_orange.png,q,left,60fe1580147adc7ebeb315e6,001,2021-08-01_10h29.35.624,arrow_simon_norep,2021.1.2,MacIntel,60.0024001,,,,,,,,,,,,,,,,,,,,,w,1,1.5386,37,FALSE,FALSE,9,0,36,2,1,,,,,,,
,,,,,,0,1.562521618,#f3af84,,left_orange.png,q,,,,,,w,left_blue.png,left_orange.png,q,left,60fe1580147adc7ebeb315e6,001,2021-08-01_10h29.35.624,arrow_simon_norep,2021.1.2,MacIntel,60.0024001,,,,,,,,,,,,,,,,,,,,,q,1,1.4974,38,FALSE,FALSE,9,1,37,2,1,,,,,,,
,,,,,,0,1.84711112,#a3d0fb,,right_blue.png,o,,,,,,o,right_blue.png,right_orange.png,p,left,60fe1580147adc7ebeb315e6,001,2021-08-01_10h29.35.624,arrow_simon_norep,2021.1.2,MacIntel,60.0024001,,,,,,,,,,,,,,,,,,,,,o,1,1.5666,39,FALSE,FALSE,9,2,38,0,1,,,,,,,
,,,,,,0,2.310756182,#f3af84,,left_orange.png,q,,,,,,w,left_blue.png,left_orange.png,q,left,60fe1580147adc7ebeb315e6,001,2021-08-01_10h29.35.624,arrow_simon_norep,2021.1.2,MacIntel,60.0024001,,,,,,,,,,,,,,,,,,,,,q,1,1.5575,40,FALSE,FALSE,9,3,39,2,1,,,,,,,
,,,,,,0,2.352706943,#a3d0fb,,right_blue.png,o,,,,,,o,right_blue.png,right_orange.png,p,right,60fe1580147adc7ebeb315e6,001,2021-08-01_10h29.35.624,arrow_simon_norep,2021.1.2,MacIntel,60.0024001,,,,,,,,,,,,,,,,,,,,,o,1,1.6142,41,TRUE,FALSE,10,0,40,1,1,,,,,,,
,,,,,,0,1.588589528,#f3af84,,right_orange.png,p,,,,,,o,right_blue.png,right_orange.png,p,right,60fe1580147adc7ebeb315e6,001,2021-08-01_10h29.35.624,arrow_simon_norep,2021.1.2,MacIntel,60.0024001,,,,,,,,,,,,,,,,,,,,,p,1,1.5192,42,FALSE,FALSE,10,1,41,1,1,,,,,,,
,,,,,,0,1.633334213,#a3d0fb,,left_blue.png,w,,,,,,w,left_blue.png,left_orange.png,q,left,60fe1580147adc7ebeb315e6,001,2021-08-01_10h29.35.624,arrow_simon_norep,2021.1.2,MacIntel,60.0024001,,,,,,,,,,,,,,,,,,,,,w,1,1.5206,43,FALSE,FALSE,10,2,42,2,1,,,,,,,
,,,,,,0,1.930280258,#f3af84,,left_orange.png,q,,,,,,w,left_blue.png,left_orange.png,q,right,60fe1580147adc7ebeb315e6,001,2021-08-01_10h29.35.624,arrow_simon_norep,2021.1.2,MacIntel,60.0024001,,,,,,,,,,,,,,,,,,,,,q,1,1.5182,44,FALSE,FALSE,10,3,43,3,1,,,,,,,
,,,,,,0,2.081263564,#a3d0fb,,left_blue.png,w,,,,,,w,left_blue.png,left_orange.png,q,right,60fe1580147adc7ebeb315e6,001,2021-08-01_10h29.35.624,arrow_simon_norep,2021.1.2,MacIntel,60.0024001,,,,,,,,,,,,,,,,,,,,,w,1,1.492,45,FALSE,FALSE,11,0,44,3,1,,,,,,,
,,,,,,0,2.48593717,#f3af84,,right_orange.png,p,,,,,,o,right_blue.png,right_orange.png,p,right,60fe1580147adc7ebeb315e6,001,2021-08-01_10h29.35.624,arrow_simon_norep,2021.1.2,MacIntel,60.0024001,,,,,,,,,,,,,,,,,,,,,p,1,1.7192,46,TRUE,FALSE,11,1,45,1,1,,,,,,,
,,,,,,0,1.642694435,#a3d0fb,,right_blue.png,o,,,,,,o,right_blue.png,right_orange.png,p,right,60fe1580147adc7ebeb315e6,001,2021-08-01_10h29.35.624,arrow_simon_norep,2021.1.2,MacIntel,60.0024001,,,,,,,,,,,,,,,,,,,,,o,1,1.5833,47,FALSE,FALSE,11,2,46,1,1,,,,,,,
,,,,,,0,1.964712562,#f3af84,,left_orange.png,q,,,,,,w,left_blue.png,left_orange.png,q,left,60fe1580147adc7ebeb315e6,001,2021-08-01_10h29.35.624,arrow_simon_norep,2021.1.2,MacIntel,60.0024001,,,,,,,,,,,,,,,,,,,,,q,1,1.5387,48,FALSE,FALSE,11,3,47,2,1,,,,,,,
,,,,,,0,1.518728486,#a3d0fb,,left_blue.png,w,,,,,,w,left_blue.png,left_orange.png,q,left,60fe1580147adc7ebeb315e6,001,2021-08-01_10h29.35.624,arrow_simon_norep,2021.1.2,MacIntel,60.0024001,,,,,,,,,,,,,,,,,,,,,w,1,1.5624,49,FALSE,FALSE,12,0,48,2,1,,,,,,,
,,,,,,0,1.598442661,#f3af84,,right_orange.png,p,,,,,,o,right_blue.png,right_orange.png,p,right,60fe1580147adc7ebeb315e6,001,2021-08-01_10h29.35.624,arrow_simon_norep,2021.1.2,MacIntel,60.0024001,,,,,,,,,,,,,,,,,,,,,p,1,1.5012,50,FALSE,FALSE,12,1,49,1,1,,,,,,,
,,,,,,0,2.190817804,#a3d0fb,,right_blue.png,o,,,,,,o,right_blue.png,right_orange.png,p,left,60fe1580147adc7ebeb315e6,001,2021-08-01_10h29.35.624,arrow_simon_norep,2021.1.2,MacIntel,60.0024001,,,,,,,,,,,,,,,,,,,,,o,1,1.6839,51,TRUE,FALSE,12,2,50,0,1,,,,,,,
,,,,,,0,1.513532053,#f3af84,,left_orange.png,q,,,,,,w,left_blue.png,left_orange.png,q,right,60fe1580147adc7ebeb315e6,001,2021-08-01_10h29.35.624,arrow_simon_norep,2021.1.2,MacIntel,60.0024001,,,,,,,,,,,,,,,,,,,,,q,1,1.4672,52,FALSE,FALSE,12,3,51,3,1,,,,,,,
,,,,,,0,2.143074205,#a3d0fb,,right_blue.png,o,,,,,,o,right_blue.png,right_orange.png,p,right,60fe1580147adc7ebeb315e6,001,2021-08-01_10h29.35.624,arrow_simon_norep,2021.1.2,MacIntel,60.0024001,,,,,,,,,,,,,,,,,,,,,o,1,1.4831,53,FALSE,FALSE,13,0,52,1,1,,,,,,,
,,,,,,0,2.081474325,#f3af84,,left_orange.png,q,,,,,,w,left_blue.png,left_orange.png,q,right,60fe1580147adc7ebeb315e6,001,2021-08-01_10h29.35.624,arrow_simon_norep,2021.1.2,MacIntel,60.0024001,,,,,,,,,,,,,,,,,,,,,q,1,1.4685,54,FALSE,FALSE,13,1,53,3,1,,,,,,,
,,,,,,0,2.247118315,#a3d0fb,,right_blue.png,o,,,,,,o,right_blue.png,right_orange.png,p,right,60fe1580147adc7ebeb315e6,001,2021-08-01_10h29.35.624,arrow_simon_norep,2021.1.2,MacIntel,60.0024001,,,,,,,,,,,,,,,,,,,,,o,1,1.5528,55,FALSE,FALSE,13,2,54,1,1,,,,,,,
,,,,,,0,1.818083167,#f3af84,,right_orange.png,p,,,,,,o,right_blue.png,right_orange.png,p,left,60fe1580147adc7ebeb315e6,001,2021-08-01_10h29.35.624,arrow_simon_norep,2021.1.2,MacIntel,60.0024001,,,,,,,,,,,,,,,,,,,,,p,1,1.4498,56,FALSE,FALSE,13,3,55,0,1,,,,,,,
,,,,,,0,1.783503768,#a3d0fb,,left_blue.png,w,,,,,,w,left_blue.png,left_orange.png,q,right,60fe1580147adc7ebeb315e6,001,2021-08-01_10h29.35.624,arrow_simon_norep,2021.1.2,MacIntel,60.0024001,,,,,,,,,,,,,,,,,,,,,w,1,1.4836,57,FALSE,FALSE,14,0,56,3,1,,,,,,,
,,,,,,0,1.866810845,#f3af84,,right_orange.png,p,,,,,,o,right_blue.png,right_orange.png,p,left,60fe1580147adc7ebeb315e6,001,2021-08-01_10h29.35.624,arrow_simon_norep,2021.1.2,MacIntel,60.0024001,,,,,,,,,,,,,,,,,,,,,p,1,1.4817,58,FALSE,FALSE,14,1,57,0,1,,,,,,,
,,,,,,1,2.3287534,#a3d0fb,,left_blue.png,w,,,,,,w,left_blue.png,left_orange.png,q,left,60fe1580147adc7ebeb315e6,001,2021-08-01_10h29.35.624,arrow_simon_norep,2021.1.2,MacIntel,60.0024001,,,,,,,,,,,,,,,,,,,,,q,0,1.5848,59,FALSE,FALSE,14,2,58,2,1,,,,,,,
,,,,,,0,1.871638837,#f3af84,,right_orange.png,p,,,,,,o,right_blue.png,right_orange.png,p,left,60fe1580147adc7ebeb315e6,001,2021-08-01_10h29.35.624,arrow_simon_norep,2021.1.2,MacIntel,60.0024001,,,,,,,,,,,,,,,,,,,,,p,1,1.5505,60,FALSE,FALSE,14,3,59,0,1,,,,,,,
,,,,,,,,,,,,,,,,,,,,,,60fe1580147adc7ebeb315e6,001,2021-08-01_10h29.35.624,arrow_simon_norep,2021.1.2,MacIntel,60.0024001,,,,,,,,,,,,,,,,,,,,,,,,,,,,,,,,space,9.1541,1,0,1,0,1
,,,,,,0,2.107060839,#a3d0fb,,left_blue.png,w,,,,,,w,left_blue.png,left_orange.png,q,left,60fe1580147adc7ebeb315e6,001,2021-08-01_10h29.35.624,arrow_simon_norep,2021.1.2,MacIntel,60.0024001,,,,,,,,,,,,,,,,,,,,,w,1,1.457,1,FALSE,FALSE,0,0,0,2,1,,,,,,,
,,,,,,0,2.358049737,#f3af84,,right_orange.png,p,,,,,,o,right_blue.png,right_orange.png,p,right,60fe1580147adc7ebeb315e6,001,2021-08-01_10h29.35.624,arrow_simon_norep,2021.1.2,MacIntel,60.0024001,,,,,,,,,,,,,,,,,,,,,p,1,1.5549,2,FALSE,FALSE,0,1,1,1,1,,,,,,,
,,,,,,0,1.819202751,#a3d0fb,,left_blue.png,w,,,,,,w,left_blue.png,left_orange.png,q,left,60fe1580147adc7ebeb315e6,001,2021-08-01_10h29.35.624,arrow_simon_norep,2021.1.2,MacIntel,60.0024001,,,,,,,,,,,,,,,,,,,,,w,1,1.5155,3,FALSE,FALSE,0,2,2,2,1,,,,,,,
,,,,,,0,1.695884708,#f3af84,,right_orange.png,p,,,,,,o,right_blue.png,right_orange.png,p,right,60fe1580147adc7ebeb315e6,001,2021-08-01_10h29.35.624,arrow_simon_norep,2021.1.2,MacIntel,60.0024001,,,,,,,,,,,,,,,,,,,,,p,1,1.488,4,FALSE,FALSE,0,3,3,1,1,,,,,,,
,,,,,,0,2.056423255,#a3d0fb,,right_blue.png,o,,,,,,o,right_blue.png,right_orange.png,p,left,60fe1580147adc7ebeb315e6,001,2021-08-01_10h29.35.624,arrow_simon_norep,2021.1.2,MacIntel,60.0024001,,,,,,,,,,,,,,,,,,,,,o,1,1.6165,5,TRUE,FALSE,1,0,4,0,1,,,,,,,
,,,,,,0,1.512611373,#f3af84,,right_orange.png,p,,,,,,o,right_blue.png,right_orange.png,p,right,60fe1580147adc7ebeb315e6,001,2021-08-01_10h29.35.624,arrow_simon_norep,2021.1.2,MacIntel,60.0024001,,,,,,,,,,,,,,,,,,,,,p,1,1.4515,6,FALSE,FALSE,1,1,5,1,1,,,,,,,
,,,,,,0,2.298887989,#a3d0fb,,left_blue.png,w,,,,,,w,left_blue.png,left_orange.png,q,left,60fe1580147adc7ebeb315e6,001,2021-08-01_10h29.35.624,arrow_simon_norep,2021.1.2,MacIntel,60.0024001,,,,,,,,,,,,,,,,,,,,,w,1,1.4979,7,FALSE,FALSE,1,2,6,2,1,,,,,,,
,,,,,,0,1.62508216,#f3af84,,right_orange.png,p,,,,,,o,right_blue.png,right_orange.png,p,right,60fe1580147adc7ebeb315e6,001,2021-08-01_10h29.35.624,arrow_simon_norep,2021.1.2,MacIntel,60.0024001,,,,,,,,,,,,,,,,,,,,,p,1,1.3993,8,FALSE,TRUE,1,3,7,1,1,,,,,,,
,,,,,,0,1.890527582,#a3d0fb,,right_blue.png,o,,,,,,o,right_blue.png,right_orange.png,p,right,60fe1580147adc7ebeb315e6,001,2021-08-01_10h29.35.624,arrow_simon_norep,2021.1.2,MacIntel,60.0024001,,,,,,,,,,,,,,,,,,,,,o,1,1.5012,9,FALSE,FALSE,2,0,8,1,1,,,,,,,
,,,,,,0,1.704943404,#f3af84,,right_orange.png,p,,,,,,o,right_blue.png,right_orange.png,p,left,60fe1580147adc7ebeb315e6,001,2021-08-01_10h29.35.624,arrow_simon_norep,2021.1.2,MacIntel,60.0024001,,,,,,,,,,,,,,,,,,,,,p,1,1.4821,10,FALSE,FALSE,2,1,9,0,1,,,,,,,
,,,,,,0,1.887570099,#a3d0fb,,right_blue.png,o,,,,,,o,right_blue.png,right_orange.png,p,right,60fe1580147adc7ebeb315e6,001,2021-08-01_10h29.35.624,arrow_simon_norep,2021.1.2,MacIntel,60.0024001,,,,,,,,,,,,,,,,,,,,,o,1,1.4993,11,FALSE,FALSE,2,2,10,1,1,,,,,,,
,,,,,,0,2.476857896,#f3af84,,left_orange.png,q,,,,,,w,left_blue.png,left_orange.png,q,right,60fe1580147adc7ebeb315e6,001,2021-08-01_10h29.35.624,arrow_simon_norep,2021.1.2,MacIntel,60.0024001,,,,,,,,,,,,,,,,,,,,,w,0,1.8694,12,TRUE,FALSE,2,3,11,3,1,,,,,,,
,,,,,,0,2.11424969,#a3d0fb,,right_blue.png,o,,,,,,o,right_blue.png,right_orange.png,p,right,60fe1580147adc7ebeb315e6,001,2021-08-01_10h29.35.624,arrow_simon_norep,2021.1.2,MacIntel,60.0024001,,,,,,,,,,,,,,,,,,,,,o,1,1.4337,13,FALSE,FALSE,3,0,12,1,1,,,,,,,
,,,,,,1,2.406165197,#f3af84,,right_orange.png,p,,,,,,o,right_blue.png,right_orange.png,p,right,60fe1580147adc7ebeb315e6,001,2021-08-01_10h29.35.624,arrow_simon_norep,2021.1.2,MacIntel,60.0024001,,,,,,,,,,,,,,,,,,,,,q,0,1.4888,14,FALSE,FALSE,3,1,13,1,1,,,,,,,
,,,,,,0,1.566663625,#a3d0fb,,left_blue.png,w,,,,,,w,left_blue.png,left_orange.png,q,left,60fe1580147adc7ebeb315e6,001,2021-08-01_10h29.35.624,arrow_simon_norep,2021.1.2,MacIntel,60.0024001,,,,,,,,,,,,,,,,,,,,,w,1,1.5229,15,FALSE,FALSE,3,2,14,2,1,,,,,,,
,,,,,,0,1.589529573,#f3af84,,left_orange.png,q,,,,,,w,left_blue.png,left_orange.png,q,left,60fe1580147adc7ebeb315e6,001,2021-08-01_10h29.35.624,arrow_simon_norep,2021.1.2,MacIntel,60.0024001,,,,,,,,,,,,,,,,,,,,,q,1,1.5393,16,FALSE,FALSE,3,3,15,2,1,,,,,,,
,,,,,,0,2.123401576,#a3d0fb,,right_blue.png,o,,,,,,o,right_blue.png,right_orange.png,p,right,60fe1580147adc7ebeb315e6,001,2021-08-01_10h29.35.624,arrow_simon_norep,2021.1.2,MacIntel,60.0024001,,,,,,,,,,,,,,,,,,,,,o,1,1.4492,17,FALSE,FALSE,4,0,16,1,1,,,,,,,
,,,,,,0,1.681832952,#f3af84,,left_orange.png,q,,,,,,w,left_blue.png,left_orange.png,q,left,60fe1580147adc7ebeb315e6,001,2021-08-01_10h29.35.624,arrow_simon_norep,2021.1.2,MacIntel,60.0024001,,,,,,,,,,,,,,,,,,,,,q,1,1.5304,18,FALSE,FALSE,4,1,17,2,1,,,,,,,
,,,,,,0,1.731436495,#a3d0fb,,right_blue.png,o,,,,,,o,right_blue.png,right_orange.png,p,left,60fe1580147adc7ebeb315e6,001,2021-08-01_10h29.35.624,arrow_simon_norep,2021.1.2,MacIntel,60.0024001,,,,,,,,,,,,,,,,,,,,,o,1,1.518,19,FALSE,FALSE,4,2,18,0,1,,,,,,,
,,,,,,0,2.271857575,#f3af84,,left_orange.png,q,,,,,,w,left_blue.png,left_orange.png,q,left,60fe1580147adc7ebeb315e6,001,2021-08-01_10h29.35.624,arrow_simon_norep,2021.1.2,MacIntel,60.0024001,,,,,,,,,,,,,,,,,,,,,q,1,1.5462,20,FALSE,FALSE,4,3,19,2,1,,,,,,,
,,,,,,0,1.663302979,#a3d0fb,,right_blue.png,o,,,,,,o,right_blue.png,right_orange.png,p,right,60fe1580147adc7ebeb315e6,001,2021-08-01_10h29.35.624,arrow_simon_norep,2021.1.2,MacIntel,60.0024001,,,,,,,,,,,,,,,,,,,,,o,1,1.4347,21,FALSE,FALSE,5,0,20,1,1,,,,,,,
,,,,,,0,1.531664142,#f3af84,,left_orange.png,q,,,,,,w,left_blue.png,left_orange.png,q,left,60fe1580147adc7ebeb315e6,001,2021-08-01_10h29.35.624,arrow_simon_norep,2021.1.2,MacIntel,60.0024001,,,,,,,,,,,,,,,,,,,,,q,1,1.4197,22,FALSE,FALSE,5,1,21,2,1,,,,,,,
,,,,,,0,2.492337281,#a3d0fb,,right_blue.png,o,,,,,,o,right_blue.png,right_orange.png,p,left,60fe1580147adc7ebeb315e6,001,2021-08-01_10h29.35.624,arrow_simon_norep,2021.1.2,MacIntel,60.0024001,,,,,,,,,,,,,,,,,,,,,w,0,1.7839,23,TRUE,FALSE,5,2,22,0,1,,,,,,,
,,,,,,0,1.959823812,#f3af84,,left_orange.png,q,,,,,,w,left_blue.png,left_orange.png,q,right,60fe1580147adc7ebeb315e6,001,2021-08-01_10h29.35.624,arrow_simon_norep,2021.1.2,MacIntel,60.0024001,,,,,,,,,,,,,,,,,,,,,q,1,1.5287,24,FALSE,FALSE,5,3,23,3,1,,,,,,,
,,,,,,0,2.021122366,#a3d0fb,,right_blue.png,o,,,,,,o,right_blue.png,right_orange.png,p,left,60fe1580147adc7ebeb315e6,001,2021-08-01_10h29.35.624,arrow_simon_norep,2021.1.2,MacIntel,60.0024001,,,,,,,,,,,,,,,,,,,,,o,1,1.4026,25,FALSE,FALSE,6,0,24,0,1,,,,,,,
,,,,,,0,1.641540223,#f3af84,,left_orange.png,q,,,,,,w,left_blue.png,left_orange.png,q,left,60fe1580147adc7ebeb315e6,001,2021-08-01_10h29.35.624,arrow_simon_norep,2021.1.2,MacIntel,60.0024001,,,,,,,,,,,,,,,,,,,,,q,1,1.386,26,FALSE,TRUE,6,1,25,2,1,,,,,,,
,,,,,,0,1.979275237,#a3d0fb,,left_blue.png,w,,,,,,w,left_blue.png,left_orange.png,q,right,60fe1580147adc7ebeb315e6,001,2021-08-01_10h29.35.624,arrow_simon_norep,2021.1.2,MacIntel,60.0024001,,,,,,,,,,,,,,,,,,,,,w,1,1.3888,27,FALSE,TRUE,6,2,26,3,1,,,,,,,
,,,,,,0,1.538257383,#f3af84,,right_orange.png,p,,,,,,o,right_blue.png,right_orange.png,p,left,60fe1580147adc7ebeb315e6,001,2021-08-01_10h29.35.624,arrow_simon_norep,2021.1.2,MacIntel,60.0024001,,,,,,,,,,,,,,,,,,,,,p,1,1.4511,28,FALSE,FALSE,6,3,27,0,1,,,,,,,
,,,,,,0,2.238065264,#a3d0fb,,left_blue.png,w,,,,,,w,left_blue.png,left_orange.png,q,left,60fe1580147adc7ebeb315e6,001,2021-08-01_10h29.35.624,arrow_simon_norep,2021.1.2,MacIntel,60.0024001,,,,,,,,,,,,,,,,,,,,,w,1,1.5026,29,FALSE,FALSE,7,0,28,2,1,,,,,,,
,,,,,,0,2.023787797,#f3af84,,right_orange.png,p,,,,,,o,right_blue.png,right_orange.png,p,left,60fe1580147adc7ebeb315e6,001,2021-08-01_10h29.35.624,arrow_simon_norep,2021.1.2,MacIntel,60.0024001,,,,,,,,,,,,,,,,,,,,,p,1,1.5362,30,FALSE,FALSE,7,1,29,0,1,,,,,,,
,,,,,,0,2.270973179,#a3d0fb,,left_blue.png,w,,,,,,w,left_blue.png,left_orange.png,q,right,60fe1580147adc7ebeb315e6,001,2021-08-01_10h29.35.624,arrow_simon_norep,2021.1.2,MacIntel,60.0024001,,,,,,,,,,,,,,,,,,,,,q,0,1.6008,31,TRUE,FALSE,7,2,30,3,1,,,,,,,
,,,,,,0,2.010924172,#f3af84,,right_orange.png,p,,,,,,o,right_blue.png,right_orange.png,p,left,60fe1580147adc7ebeb315e6,001,2021-08-01_10h29.35.624,arrow_simon_norep,2021.1.2,MacIntel,60.0024001,,,,,,,,,,,,,,,,,,,,,p,1,1.5006,32,FALSE,FALSE,7,3,31,0,1,,,,,,,
,,,,,,0,2.454705377,#a3d0fb,,left_blue.png,w,,,,,,w,left_blue.png,left_orange.png,q,left,60fe1580147adc7ebeb315e6,001,2021-08-01_10h29.35.624,arrow_simon_norep,2021.1.2,MacIntel,60.0024001,,,,,,,,,,,,,,,,,,,,,w,1,1.7245,33,TRUE,FALSE,8,0,32,2,1,,,,,,,
,,,,,,0,1.626584819,#f3af84,,right_orange.png,p,,,,,,o,right_blue.png,right_orange.png,p,left,60fe1580147adc7ebeb315e6,001,2021-08-01_10h29.35.624,arrow_simon_norep,2021.1.2,MacIntel,60.0024001,,,,,,,,,,,,,,,,,,,,,p,1,1.4487,34,FALSE,FALSE,8,1,33,0,1,,,,,,,
,,,,,,0,2.267079759,#a3d0fb,,left_blue.png,w,,,,,,w,left_blue.png,left_orange.png,q,right,60fe1580147adc7ebeb315e6,001,2021-08-01_10h29.35.624,arrow_simon_norep,2021.1.2,MacIntel,60.0024001,,,,,,,,,,,,,,,,,,,,,o,0,1.6001,35,TRUE,FALSE,8,2,34,3,1,,,,,,,
,,,,,,0,1.709558621,#f3af84,,left_orange.png,q,,,,,,w,left_blue.png,left_orange.png,q,left,60fe1580147adc7ebeb315e6,001,2021-08-01_10h29.35.624,arrow_simon_norep,2021.1.2,MacIntel,60.0024001,,,,,,,,,,,,,,,,,,,,,q,1,1.4192,36,FALSE,FALSE,8,3,35,2,1,,,,,,,
,,,,,,1,2.202139134,#a3d0fb,,left_blue.png,w,,,,,,w,left_blue.png,left_orange.png,q,right,60fe1580147adc7ebeb315e6,001,2021-08-01_10h29.35.624,arrow_simon_norep,2021.1.2,MacIntel,60.0024001,,,,,,,,,,,,,,,,,,,,,o,0,1.4537,37,FALSE,FALSE,9,0,36,3,1,,,,,,,
,,,,,,0,1.750731377,#f3af84,,right_orange.png,p,,,,,,o,right_blue.png,right_orange.png,p,left,60fe1580147adc7ebeb315e6,001,2021-08-01_10h29.35.624,arrow_simon_norep,2021.1.2,MacIntel,60.0024001,,,,,,,,,,,,,,,,,,,,,p,1,1.4666,38,FALSE,FALSE,9,1,37,0,1,,,,,,,
,,,,,,1,1.714202773,#a3d0fb,,left_blue.png,w,,,,,,w,left_blue.png,left_orange.png,q,left,60fe1580147adc7ebeb315e6,001,2021-08-01_10h29.35.624,arrow_simon_norep,2021.1.2,MacIntel,60.0024001,,,,,,,,,,,,,,,,,,,,,q,0,1.4834,39,FALSE,FALSE,9,2,38,2,1,,,,,,,
,,,,,,0,1.67608529,#f3af84,,right_orange.png,p,,,,,,o,right_blue.png,right_orange.png,p,right,60fe1580147adc7ebeb315e6,001,2021-08-01_10h29.35.624,arrow_simon_norep,2021.1.2,MacIntel,60.0024001,,,,,,,,,,,,,,,,,,,,,p,1,1.4661,40,FALSE,FALSE,9,3,39,1,1,,,,,,,
,,,,,,0,2.491610084,#a3d0fb,,right_blue.png,o,,,,,,o,right_blue.png,right_orange.png,p,left,60fe1580147adc7ebeb315e6,001,2021-08-01_10h29.35.624,arrow_simon_norep,2021.1.2,MacIntel,60.0024001,,,,,,,,,,,,,,,,,,,,,w,0,1.7279,41,TRUE,FALSE,10,0,40,0,1,,,,,,,
,,,,,,0,1.956989599,#f3af84,,left_orange.png,q,,,,,,w,left_blue.png,left_orange.png,q,right,60fe1580147adc7ebeb315e6,001,2021-08-01_10h29.35.624,arrow_simon_norep,2021.1.2,MacIntel,60.0024001,,,,,,,,,,,,,,,,,,,,,q,1,1.6532,42,TRUE,FALSE,10,1,41,3,1,,,,,,,
,,,,,,0,2.071625416,#a3d0fb,,right_blue.png,o,,,,,,o,right_blue.png,right_orange.png,p,right,60fe1580147adc7ebeb315e6,001,2021-08-01_10h29.35.624,arrow_simon_norep,2021.1.2,MacIntel,60.0024001,,,,,,,,,,,,,,,,,,,,,o,1,1.4036,43,FALSE,FALSE,10,2,42,1,1,,,,,,,
,,,,,,0,2.468619569,#f3af84,,left_orange.png,q,,,,,,w,left_blue.png,left_orange.png,q,right,60fe1580147adc7ebeb315e6,001,2021-08-01_10h29.35.624,arrow_simon_norep,2021.1.2,MacIntel,60.0024001,,,,,,,,,,,,,,,,,,,,,p,0,1.7228,44,TRUE,FALSE,10,3,43,3,1,,,,,,,
,,,,,,0,1.808400501,#a3d0fb,,right_blue.png,o,,,,,,o,right_blue.png,right_orange.png,p,left,60fe1580147adc7ebeb315e6,001,2021-08-01_10h29.35.624,arrow_simon_norep,2021.1.2,MacIntel,60.0024001,,,,,,,,,,,,,,,,,,,,,o,1,1.4684,45,FALSE,FALSE,11,0,44,0,1,,,,,,,
,,,,,,0,1.906205639,#f3af84,,left_orange.png,q,,,,,,w,left_blue.png,left_orange.png,q,right,60fe1580147adc7ebeb315e6,001,2021-08-01_10h29.35.624,arrow_simon_norep,2021.1.2,MacIntel,60.0024001,,,,,,,,,,,,,,,,,,,,,q,1,1.331,46,FALSE,TRUE,11,1,45,3,1,,,,,,,
,,,,,,0,1.694218459,#a3d0fb,,left_blue.png,w,,,,,,w,left_blue.png,left_orange.png,q,right,60fe1580147adc7ebeb315e6,001,2021-08-01_10h29.35.624,arrow_simon_norep,2021.1.2,MacIntel,60.0024001,,,,,,,,,,,,,,,,,,,,,w,1,1.5175,47,FALSE,FALSE,11,2,46,3,1,,,,,,,
,,,,,,0,2.149346135,#f3af84,,left_orange.png,q,,,,,,w,left_blue.png,left_orange.png,q,right,60fe1580147adc7ebeb315e6,001,2021-08-01_10h29.35.624,arrow_simon_norep,2021.1.2,MacIntel,60.0024001,,,,,,,,,,,,,,,,,,,,,q,1,1.5008,48,FALSE,FALSE,11,3,47,3,1,,,,,,,
,,,,,,0,2.021872739,#a3d0fb,,right_blue.png,o,,,,,,o,right_blue.png,right_orange.png,p,right,60fe1580147adc7ebeb315e6,001,2021-08-01_10h29.35.624,arrow_simon_norep,2021.1.2,MacIntel,60.0024001,,,,,,,,,,,,,,,,,,,,,o,1,1.4514,49,FALSE,FALSE,12,0,48,1,1,,,,,,,
,,,,,,0,2.345439099,#f3af84,,left_orange.png,q,,,,,,w,left_blue.png,left_orange.png,q,left,60fe1580147adc7ebeb315e6,001,2021-08-01_10h29.35.624,arrow_simon_norep,2021.1.2,MacIntel,60.0024001,,,,,,,,,,,,,,,,,,,,,q,1,1.6246,50,TRUE,FALSE,12,1,49,2,1,,,,,,,
,,,,,,0,2.433582794,#a3d0fb,,right_blue.png,o,,,,,,o,right_blue.png,right_orange.png,p,right,60fe1580147adc7ebeb315e6,001,2021-08-01_10h29.35.624,arrow_simon_norep,2021.1.2,MacIntel,60.0024001,,,,,,,,,,,,,,,,,,,,,o,1,1.7304,51,TRUE,FALSE,12,2,50,1,1,,,,,,,
,,,,,,0,2.381905925,#f3af84,,right_orange.png,p,,,,,,o,right_blue.png,right_orange.png,p,right,60fe1580147adc7ebeb315e6,001,2021-08-01_10h29.35.624,arrow_simon_norep,2021.1.2,MacIntel,60.0024001,,,,,,,,,,,,,,,,,,,,,q,0,1.6375,52,TRUE,FALSE,12,3,51,1,1,,,,,,,
,,,,,,0,2.420214735,#a3d0fb,,right_blue.png,o,,,,,,o,right_blue.png,right_orange.png,p,left,60fe1580147adc7ebeb315e6,001,2021-08-01_10h29.35.624,arrow_simon_norep,2021.1.2,MacIntel,60.0024001,,,,,,,,,,,,,,,,,,,,,w,0,1.6714,53,TRUE,FALSE,13,0,52,0,1,,,,,,,
,,,,,,0,2.167899315,#f3af84,,right_orange.png,p,,,,,,o,right_blue.png,right_orange.png,p,left,60fe1580147adc7ebeb315e6,001,2021-08-01_10h29.35.624,arrow_simon_norep,2021.1.2,MacIntel,60.0024001,,,,,,,,,,,,,,,,,,,,,p,1,1.4962,54,FALSE,FALSE,13,1,53,0,1,,,,,,,
,,,,,,0,2.01425829,#a3d0fb,,left_blue.png,w,,,,,,w,left_blue.png,left_orange.png,q,right,60fe1580147adc7ebeb315e6,001,2021-08-01_10h29.35.624,arrow_simon_norep,2021.1.2,MacIntel,60.0024001,,,,,,,,,,,,,,,,,,,,,w,1,1.5347,55,FALSE,FALSE,13,2,54,3,1,,,,,,,
,,,,,,1,2.280255905,#f3af84,,left_orange.png,q,,,,,,w,left_blue.png,left_orange.png,q,right,60fe1580147adc7ebeb315e6,001,2021-08-01_10h29.35.624,arrow_simon_norep,2021.1.2,MacIntel,60.0024001,,,,,,,,,,,,,,,,,,,,,p,0,1.5851,56,FALSE,FALSE,13,3,55,3,1,,,,,,,
,,,,,,0,2.162071757,#a3d0fb,,right_blue.png,o,,,,,,o,right_blue.png,right_orange.png,p,left,60fe1580147adc7ebeb315e6,001,2021-08-01_10h29.35.624,arrow_simon_norep,2021.1.2,MacIntel,60.0024001,,,,,,,,,,,,,,,,,,,,,o,1,1.5517,57,FALSE,FALSE,14,0,56,0,1,,,,,,,
,,,,,,0,2.155372773,#f3af84,,left_orange.png,q,,,,,,w,left_blue.png,left_orange.png,q,right,60fe1580147adc7ebeb315e6,001,2021-08-01_10h29.35.624,arrow_simon_norep,2021.1.2,MacIntel,60.0024001,,,,,,,,,,,,,,,,,,,,,q,1,1.5066,58,FALSE,FALSE,14,1,57,3,1,,,,,,,
,,,,,,0,2.018833816,#a3d0fb,,left_blue.png,w,,,,,,w,left_blue.png,left_orange.png,q,right,60fe1580147adc7ebeb315e6,001,2021-08-01_10h29.35.624,arrow_simon_norep,2021.1.2,MacIntel,60.0024001,,,,,,,,,,,,,,,,,,,,,w,1,1.3664,59,FALSE,TRUE,14,2,58,3,1,,,,,,,
,,,,,,0,2.083681795,#f3af84,,left_orange.png,q,,,,,,w,left_blue.png,left_orange.png,q,left,60fe1580147adc7ebeb315e6,001,2021-08-01_10h29.35.624,arrow_simon_norep,2021.1.2,MacIntel,60.0024001,,,,,,,,,,,,,,,,,,,,,q,1,1.4243,60,FALSE,FALSE,14,3,59,2,1,,,,,,,
,,,,,,,,,,,,,,,,,,,,,,60fe1580147adc7ebeb315e6,001,2021-08-01_10h29.35.624,arrow_simon_norep,2021.1.2,MacIntel,60.0024001,,,,,,,,,,,,,,,,,,,,,,,,,,,,,,,,space,44.5891,2,0,2,0,1
,,,,,,0,1.802049744,#a3d0fb,,left_blue.png,w,,,,,,w,left_blue.png,left_orange.png,q,right,60fe1580147adc7ebeb315e6,001,2021-08-01_10h29.35.624,arrow_simon_norep,2021.1.2,MacIntel,60.0024001,,,,,,,,,,,,,,,,,,,,,w,1,1.5632,1,FALSE,FALSE,0,0,0,3,1,,,,,,,
,,,,,,0,2.078241967,#f3af84,,right_orange.png,p,,,,,,o,right_blue.png,right_orange.png,p,left,60fe1580147adc7ebeb315e6,001,2021-08-01_10h29.35.624,arrow_simon_norep,2021.1.2,MacIntel,60.0024001,,,,,,,,,,,,,,,,,,,,,p,1,1.4638,2,FALSE,FALSE,0,1,1,0,1,,,,,,,
,,,,,,0,1.947151387,#a3d0fb,,right_blue.png,o,,,,,,o,right_blue.png,right_orange.png,p,right,60fe1580147adc7ebeb315e6,001,2021-08-01_10h29.35.624,arrow_simon_norep,2021.1.2,MacIntel,60.0024001,,,,,,,,,,,,,,,,,,,,,o,1,1.5173,3,FALSE,FALSE,0,2,2,1,1,,,,,,,
,,,,,,0,1.51290969,#f3af84,,right_orange.png,p,,,,,,o,right_blue.png,right_orange.png,p,left,60fe1580147adc7ebeb315e6,001,2021-08-01_10h29.35.624,arrow_simon_norep,2021.1.2,MacIntel,60.0024001,,,,,,,,,,,,,,,,,,,,,p,1,1.5613,4,FALSE,FALSE,0,3,3,0,1,,,,,,,
,,,,,,0,1.532158944,#a3d0fb,,right_blue.png,o,,,,,,o,right_blue.png,right_orange.png,p,left,60fe1580147adc7ebeb315e6,001,2021-08-01_10h29.35.624,arrow_simon_norep,2021.1.2,MacIntel,60.0024001,,,,,,,,,,,,,,,,,,,,,o,1,1.5893,5,FALSE,FALSE,1,0,4,0,1,,,,,,,
,,,,,,0,1.847106886,#f3af84,,left_orange.png,q,,,,,,w,left_blue.png,left_orange.png,q,left,60fe1580147adc7ebeb315e6,001,2021-08-01_10h29.35.624,arrow_simon_norep,2021.1.2,MacIntel,60.0024001,,,,,,,,,,,,,,,,,,,,,q,1,1.5035,6,FALSE,FALSE,1,1,5,2,1,,,,,,,
,,,,,,0,2.24868035,#a3d0fb,,right_blue.png,o,,,,,,o,right_blue.png,right_orange.png,p,left,60fe1580147adc7ebeb315e6,001,2021-08-01_10h29.35.624,arrow_simon_norep,2021.1.2,MacIntel,60.0024001,,,,,,,,,,,,,,,,,,,,,o,1,1.5888,7,FALSE,FALSE,1,2,6,0,1,,,,,,,
,,,,,,1,2.134157906,#f3af84,,left_orange.png,q,,,,,,w,left_blue.png,left_orange.png,q,left,60fe1580147adc7ebeb315e6,001,2021-08-01_10h29.35.624,arrow_simon_norep,2021.1.2,MacIntel,60.0024001,,,,,,,,,,,,,,,,,,,,,p,0,1.5335,8,FALSE,FALSE,1,3,7,2,1,,,,,,,
,,,,,,1,2.246650539,#a3d0fb,,right_blue.png,o,,,,,,o,right_blue.png,right_orange.png,p,right,60fe1580147adc7ebeb315e6,001,2021-08-01_10h29.35.624,arrow_simon_norep,2021.1.2,MacIntel,60.0024001,,,,,,,,,,,,,,,,,,,,,o,1,1.6197,9,TRUE,FALSE,2,0,8,1,1,,,,,,,
,,,,,,0,1.546549558,#f3af84,,left_orange.png,q,,,,,,w,left_blue.png,left_orange.png,q,right,60fe1580147adc7ebeb315e6,001,2021-08-01_10h29.35.624,arrow_simon_norep,2021.1.2,MacIntel,60.0024001,,,,,,,,,,,,,,,,,,,,,q,1,1.5171,10,FALSE,FALSE,2,1,9,3,1,,,,,,,
,,,,,,0,2.24525184,#a3d0fb,,left_blue.png,w,,,,,,w,left_blue.png,left_orange.png,q,left,60fe1580147adc7ebeb315e6,001,2021-08-01_10h29.35.624,arrow_simon_norep,2021.1.2,MacIntel,60.0024001,,,,,,,,,,,,,,,,,,,,,w,1,1.5551,11,FALSE,FALSE,2,2,10,2,1,,,,,,,
,,,,,,0,1.857294088,#f3af84,,right_orange.png,p,,,,,,o,right_blue.png,right_orange.png,p,right,60fe1580147adc7ebeb315e6,001,2021-08-01_10h29.35.624,arrow_simon_norep,2021.1.2,MacIntel,60.0024001,,,,,,,,,,,,,,,,,,,,,p,1,1.5003,12,FALSE,FALSE,2,3,11,1,1,,,,,,,
,,,,,,0,1.7429949,#a3d0fb,,left_blue.png,w,,,,,,w,left_blue.png,left_orange.png,q,left,60fe1580147adc7ebeb315e6,001,2021-08-01_10h29.35.624,arrow_simon_norep,2021.1.2,MacIntel,60.0024001,,,,,,,,,,,,,,,,,,,,,w,1,1.5004,13,FALSE,FALSE,3,0,12,2,1,,,,,,,
,,,,,,0,1.608598797,#f3af84,,right_orange.png,p,,,,,,o,right_blue.png,right_orange.png,p,right,60fe1580147adc7ebeb315e6,001,2021-08-01_10h29.35.624,arrow_simon_norep,2021.1.2,MacIntel,60.0024001,,,,,,,,,,,,,,,,,,,,,p,1,1.5717,14,FALSE,FALSE,3,1,13,1,1,,,,,,,
,,,,,,0,2.128351894,#a3d0fb,,left_blue.png,w,,,,,,w,left_blue.png,left_orange.png,q,left,60fe1580147adc7ebeb315e6,001,2021-08-01_10h29.35.624,arrow_simon_norep,2021.1.2,MacIntel,60.0024001,,,,,,,,,,,,,,,,,,,,,w,1,1.5661,15,FALSE,FALSE,3,2,14,2,1,,,,,,,
,,,,,,1,2.352651255,#f3af84,,left_orange.png,q,,,,,,w,left_blue.png,left_orange.png,q,left,60fe1580147adc7ebeb315e6,001,2021-08-01_10h29.35.624,arrow_simon_norep,2021.1.2,MacIntel,60.0024001,,,,,,,,,,,,,,,,,,,,,p,0,1.5492,16,FALSE,FALSE,3,3,15,2,1,,,,,,,
,,,,,,1,2.237655061,#a3d0fb,,left_blue.png,w,,,,,,w,left_blue.png,left_orange.png,q,right,60fe1580147adc7ebeb315e6,001,2021-08-01_10h29.35.624,arrow_simon_norep,2021.1.2,MacIntel,60.0024001,,,,,,,,,,,,,,,,,,,,,o,0,1.5044,17,FALSE,FALSE,4,0,16,3,1,,,,,,,
,,,,,,0,1.523833231,#f3af84,,right_orange.png,p,,,,,,o,right_blue.png,right_orange.png,p,left,60fe1580147adc7ebeb315e6,001,2021-08-01_10h29.35.624,arrow_simon_norep,2021.1.2,MacIntel,60.0024001,,,,,,,,,,,,,,,,,,,,,p,1,1.4865,18,FALSE,FALSE,4,1,17,0,1,,,,,,,
,,,,,,0,1.971304074,#a3d0fb,,left_blue.png,w,,,,,,w,left_blue.png,left_orange.png,q,right,60fe1580147adc7ebeb315e6,001,2021-08-01_10h29.35.624,arrow_simon_norep,2021.1.2,MacIntel,60.0024001,,,,,,,,,,,,,,,,,,,,,w,1,1.4751,19,FALSE,FALSE,4,2,18,3,1,,,,,,,
,,,,,,0,1.559351517,#f3af84,,right_orange.png,p,,,,,,o,right_blue.png,right_orange.png,p,right,60fe1580147adc7ebeb315e6,001,2021-08-01_10h29.35.624,arrow_simon_norep,2021.1.2,MacIntel,60.0024001,,,,,,,,,,,,,,,,,,,,,p,1,1.4847,20,FALSE,FALSE,4,3,19,1,1,,,,,,,
,,,,,,0,1.810444313,#a3d0fb,,right_blue.png,o,,,,,,o,right_blue.png,right_orange.png,p,left,60fe1580147adc7ebeb315e6,001,2021-08-01_10h29.35.624,arrow_simon_norep,2021.1.2,MacIntel,60.0024001,,,,,,,,,,,,,,,,,,,,,o,1,1.4691,21,FALSE,FALSE,5,0,20,0,1,,,,,,,
,,,,,,0,1.778713417,#f3af84,,right_orange.png,p,,,,,,o,right_blue.png,right_orange.png,p,left,60fe1580147adc7ebeb315e6,001,2021-08-01_10h29.35.624,arrow_simon_norep,2021.1.2,MacIntel,60.0024001,,,,,,,,,,,,,,,,,,,,,p,1,1.4729,22,FALSE,FALSE,5,1,21,0,1,,,,,,,
,,,,,,0,1.589130539,#a3d0fb,,right_blue.png,o,,,,,,o,right_blue.png,right_orange.png,p,left,60fe1580147adc7ebeb315e6,001,2021-08-01_10h29.35.624,arrow_simon_norep,2021.1.2,MacIntel,60.0024001,,,,,,,,,,,,,,,,,,,,,o,1,1.639,23,TRUE,FALSE,5,2,22,0,1,,,,,,,
,,,,,,0,2.349082769,#f3af84,,right_orange.png,p,,,,,,o,right_blue.png,right_orange.png,p,right,60fe1580147adc7ebeb315e6,001,2021-08-01_10h29.35.624,arrow_simon_norep,2021.1.2,MacIntel,60.0024001,,,,,,,,,,,,,,,,,,,,,p,1,1.6186,24,TRUE,FALSE,5,3,23,1,1,,,,,,,
,,,,,,0,1.512312343,#a3d0fb,,left_blue.png,w,,,,,,w,left_blue.png,left_orange.png,q,right,60fe1580147adc7ebeb315e6,001,2021-08-01_10h29.35.624,arrow_simon_norep,2021.1.2,MacIntel,60.0024001,,,,,,,,,,,,,,,,,,,,,w,1,1.5201,25,FALSE,FALSE,6,0,24,3,1,,,,,,,
,,,,,,0,1.52072525,#f3af84,,right_orange.png,p,,,,,,o,right_blue.png,right_orange.png,p,left,60fe1580147adc7ebeb315e6,001,2021-08-01_10h29.35.624,arrow_simon_norep,2021.1.2,MacIntel,60.0024001,,,,,,,,,,,,,,,,,,,,,p,1,1.4671,26,FALSE,FALSE,6,1,25,0,1,,,,,,,
,,,,,,0,2.339024598,#a3d0fb,,left_blue.png,w,,,,,,w,left_blue.png,left_orange.png,q,right,60fe1580147adc7ebeb315e6,001,2021-08-01_10h29.35.624,arrow_simon_norep,2021.1.2,MacIntel,60.0024001,,,,,,,,,,,,,,,,,,,,,w,1,1.6283,27,TRUE,FALSE,6,2,26,3,1,,,,,,,
,,,,,,1,2.139240969,#f3af84,,right_orange.png,p,,,,,,o,right_blue.png,right_orange.png,p,right,60fe1580147adc7ebeb315e6,001,2021-08-01_10h29.35.624,arrow_simon_norep,2021.1.2,MacIntel,60.0024001,,,,,,,,,,,,,,,,,,,,,o,0,1.4208,28,FALSE,FALSE,6,3,27,1,1,,,,,,,
,,,,,,1,1.86808519,#a3d0fb,,left_blue.png,w,,,,,,w,left_blue.png,left_orange.png,q,left,60fe1580147adc7ebeb315e6,001,2021-08-01_10h29.35.624,arrow_simon_norep,2021.1.2,MacIntel,60.0024001,,,,,,,,,,,,,,,,,,,,,w,1,1.2142,29,FALSE,TRUE,7,0,28,2,1,,,,,,,
,,,,,,0,2.057888848,#f3af84,,right_orange.png,p,,,,,,o,right_blue.png,right_orange.png,p,right,60fe1580147adc7ebeb315e6,001,2021-08-01_10h29.35.624,arrow_simon_norep,2021.1.2,MacIntel,60.0024001,,,,,,,,,,,,,,,,,,,,,p,1,1.5006,30,FALSE,FALSE,7,1,29,1,1,,,,,,,
,,,,,,0,2.08938792,#a3d0fb,,left_blue.png,w,,,,,,w,left_blue.png,left_orange.png,q,left,60fe1580147adc7ebeb315e6,001,2021-08-01_10h29.35.624,arrow_simon_norep,2021.1.2,MacIntel,60.0024001,,,,,,,,,,,,,,,,,,,,,w,1,1.4149,31,FALSE,FALSE,7,2,30,2,1,,,,,,,
,,,,,,0,1.835769299,#f3af84,,left_orange.png,q,,,,,,w,left_blue.png,left_orange.png,q,left,60fe1580147adc7ebeb315e6,001,2021-08-01_10h29.35.624,arrow_simon_norep,2021.1.2,MacIntel,60.0024001,,,,,,,,,,,,,,,,,,,,,q,1,1.3315,32,FALSE,TRUE,7,3,31,2,1,,,,,,,
,,,,,,0,1.502881894,#a3d0fb,,right_blue.png,o,,,,,,o,right_blue.png,right_orange.png,p,right,60fe1580147adc7ebeb315e6,001,2021-08-01_10h29.35.624,arrow_simon_norep,2021.1.2,MacIntel,60.0024001,,,,,,,,,,,,,,,,,,,,,o,1,1.5385,33,FALSE,FALSE,8,0,32,1,1,,,,,,,
,,,,,,0,1.775906631,#f3af84,,right_orange.png,p,,,,,,o,right_blue.png,right_orange.png,p,left,60fe1580147adc7ebeb315e6,001,2021-08-01_10h29.35.624,arrow_simon_norep,2021.1.2,MacIntel,60.0024001,,,,,,,,,,,,,,,,,,,,,p,1,1.2034,34,FALSE,TRUE,8,1,33,0,1,,,,,,,
,,,,,,0,1.963461664,#a3d0fb,,left_blue.png,w,,,,,,w,left_blue.png,left_orange.png,q,right,60fe1580147adc7ebeb315e6,001,2021-08-01_10h29.35.624,arrow_simon_norep,2021.1.2,MacIntel,60.0024001,,,,,,,,,,,,,,,,,,,,,w,1,1.3005,35,FALSE,TRUE,8,2,34,3,1,,,,,,,
,,,,,,0,1.943068883,#f3af84,,right_orange.png,p,,,,,,o,right_blue.png,right_orange.png,p,right,60fe1580147adc7ebeb315e6,001,2021-08-01_10h29.35.624,arrow_simon_norep,2021.1.2,MacIntel,60.0024001,,,,,,,,,,,,,,,,,,,,,p,1,1.554,36,FALSE,FALSE,8,3,35,1,1,,,,,,,
,,,,,,0,1.574307071,#a3d0fb,,right_blue.png,o,,,,,,o,right_blue.png,right_orange.png,p,right,60fe1580147adc7ebeb315e6,001,2021-08-01_10h29.35.624,arrow_simon_norep,2021.1.2,MacIntel,60.0024001,,,,,,,,,,,,,,,,,,,,,o,1,1.5501,37,FALSE,FALSE,9,0,36,1,1,,,,,,,
,,,,,,0,2.498092644,#f3af84,,left_orange.png,q,,,,,,w,left_blue.png,left_orange.png,q,left,60fe1580147adc7ebeb315e6,001,2021-08-01_10h29.35.624,arrow_simon_norep,2021.1.2,MacIntel,60.0024001,,,,,,,,,,,,,,,,,,,,,q,1,1.6896,38,TRUE,FALSE,9,1,37,2,1,,,,,,,
,,,,,,1,2.172349872,#a3d0fb,,left_blue.png,w,,,,,,w,left_blue.png,left_orange.png,q,right,60fe1580147adc7ebeb315e6,001,2021-08-01_10h29.35.624,arrow_simon_norep,2021.1.2,MacIntel,60.0024001,,,,,,,,,,,,,,,,,,,,,o,0,1.5518,39,FALSE,FALSE,9,2,38,3,1,,,,,,,
,,,,,,0,1.801552589,#f3af84,,right_orange.png,p,,,,,,o,right_blue.png,right_orange.png,p,right,60fe1580147adc7ebeb315e6,001,2021-08-01_10h29.35.624,arrow_simon_norep,2021.1.2,MacIntel,60.0024001,,,,,,,,,,,,,,,,,,,,,p,1,1.5228,40,FALSE,FALSE,9,3,39,1,1,,,,,,,
,,,,,,0,2.043583699,#a3d0fb,,left_blue.png,w,,,,,,w,left_blue.png,left_orange.png,q,left,60fe1580147adc7ebeb315e6,001,2021-08-01_10h29.35.624,arrow_simon_norep,2021.1.2,MacIntel,60.0024001,,,,,,,,,,,,,,,,,,,,,w,1,1.5153,41,FALSE,FALSE,10,0,40,2,1,,,,,,,
,,,,,,0,2.45343427,#f3af84,,left_orange.png,q,,,,,,w,left_blue.png,left_orange.png,q,right,60fe1580147adc7ebeb315e6,001,2021-08-01_10h29.35.624,arrow_simon_norep,2021.1.2,MacIntel,60.0024001,,,,,,,,,,,,,,,,,,,,,p,0,1.6873,42,TRUE,FALSE,10,1,41,3,1,,,,,,,
,,,,,,0,1.520908417,#a3d0fb,,left_blue.png,w,,,,,,w,left_blue.png,left_orange.png,q,left,60fe1580147adc7ebeb315e6,001,2021-08-01_10h29.35.624,arrow_simon_norep,2021.1.2,MacIntel,60.0024001,,,,,,,,,,,,,,,,,,,,,w,1,0.5348,43,FALSE,TRUE,10,2,42,2,1,,,,,,,
,,,,,,0,2.31800027,#f3af84,,left_orange.png,q,,,,,,w,left_blue.png,left_orange.png,q,left,60fe1580147adc7ebeb315e6,001,2021-08-01_10h29.35.624,arrow_simon_norep,2021.1.2,MacIntel,60.0024001,,,,,,,,,,,,,,,,,,,,,q,1,1.6332,44,TRUE,FALSE,10,3,43,2,1,,,,,,,
,,,,,,0,2.303204892,#a3d0fb,,right_blue.png,o,,,,,,o,right_blue.png,right_orange.png,p,right,60fe1580147adc7ebeb315e6,001,2021-08-01_10h29.35.624,arrow_simon_norep,2021.1.2,MacIntel,60.0024001,,,,,,,,,,,,,,,,,,,,,o,1,1.5719,45,FALSE,FALSE,11,0,44,1,1,,,,,,,
,,,,,,0,1.927591323,#f3af84,,left_orange.png,q,,,,,,w,left_blue.png,left_orange.png,q,right,60fe1580147adc7ebeb315e6,001,2021-08-01_10h29.35.624,arrow_simon_norep,2021.1.2,MacIntel,60.0024001,,,,,,,,,,,,,,,,,,,,,q,1,1.521,46,FALSE,FALSE,11,1,45,3,1,,,,,,,
,,,,,,0,1.52081135,#a3d0fb,,right_blue.png,o,,,,,,o,right_blue.png,right_orange.png,p,left,60fe1580147adc7ebeb315e6,001,2021-08-01_10h29.35.624,arrow_simon_norep,2021.1.2,MacIntel,60.0024001,,,,,,,,,,,,,,,,,,,,,o,1,1.5362,47,FALSE,FALSE,11,2,46,0,1,,,,,,,
