instruct_resp_simon.keys,instruct_resp_simon.corr,instruct_resp_simon.rt,trial_resp_simon.keys,trial_resp_simon.corr,trial_resp_simon.rt,kerr,target_onset,target_color,target_pos,target_file,target_resp,trials_train_simon.thisRepN,trials_train_simon.thisTrialN,trials_train_simon.thisN,trials_train_simon.thisIndex,trials_train_simon.ran,odd_target_resp,odd_target_file,even_target_file,even_target_resp,target_side,participant,session,date,expName,psychopyVersion,OS,frameRate,train_block_note_resp.keys,train_block_note_resp.rt,blocks_train.thisRepN,blocks_train.thisTrialN,blocks_train.thisN,blocks_train.thisIndex,blocks_train.ran,instruct_resp_timing.keys,instruct_resp_timing.corr,instruct_resp_timing.rt,trial_resp_timing.keys,trial_resp_timing.rt,trials_train_timing.thisRepN,trials_train_timing.thisTrialN,trials_train_timing.thisN,trials_train_timing.thisIndex,trials_train_timing.ran,instruct_resp.keys,instruct_resp.corr,instruct_resp.rt,trial_resp.keys,trial_resp.corr,trial_resp.rt,trial_num,too_slow,too_soon,trials.thisRepN,trials.thisTrialN,trials.thisN,trials.thisIndex,trials.ran,block_note_resp.keys,block_note_resp.rt,blocks.thisRepN,blocks.thisTrialN,blocks.thisN,blocks.thisIndex,blocks.ran
space,0,39.5935,w,0,2.3689,1,0.157795318,#a3d0fb,,right_blue.png,o,0,0,0,0,1,o,right_blue.png,right_orange.png,p,left,60ff1fabb65fe8b8cff50c59,001,2021-08-01_12h32.32.884,arrow_simon_norep,2021.1.2,Win32,59.41417622,,,,,,,,,,,,,,,,,,,,,,,,,,,,,,,,,,,,,,
,,,p,1,2.0517,0,0.634660707,#f3af84,,right_orange.png,p,0,1,1,1,1,o,right_blue.png,right_orange.png,p,right,60ff1fabb65fe8b8cff50c59,001,2021-08-01_12h32.32.884,arrow_simon_norep,2021.1.2,Win32,59.41417622,,,,,,,,,,,,,,,,,,,,,,,,,,,,,,,,,,,,,,
,,,w,1,2.4561,0,0.616491629,#a3d0fb,,left_blue.png,w,0,2,2,2,1,w,left_blue.png,left_orange.png,q,left,60ff1fabb65fe8b8cff50c59,001,2021-08-01_12h32.32.884,arrow_simon_norep,2021.1.2,Win32,59.41417622,,,,,,,,,,,,,,,,,,,,,,,,,,,,,,,,,,,,,,
,,,p,1,1.3593,0,0.234595325,#f3af84,,right_orange.png,p,0,3,3,0,1,o,right_blue.png,right_orange.png,p,left,60ff1fabb65fe8b8cff50c59,001,2021-08-01_12h32.32.884,arrow_simon_norep,2021.1.2,Win32,59.41417622,,,,,,,,,,,,,,,,,,,,,,,,,,,,,,,,,,,,,,
,,,w,1,1.4407,0,0.512212322,#a3d0fb,,left_blue.png,w,1,0,4,2,1,w,left_blue.png,left_orange.png,q,left,60ff1fabb65fe8b8cff50c59,001,2021-08-01_12h32.32.884,arrow_simon_norep,2021.1.2,Win32,59.41417622,,,,,,,,,,,,,,,,,,,,,,,,,,,,,,,,,,,,,,
,,,p,1,1.1044,0,0.35824507,#f3af84,,right_orange.png,p,1,1,5,1,1,o,right_blue.png,right_orange.png,p,right,60ff1fabb65fe8b8cff50c59,001,2021-08-01_12h32.32.884,arrow_simon_norep,2021.1.2,Win32,59.41417622,,,,,,,,,,,,,,,,,,,,,,,,,,,,,,,,,,,,,,
,,,w,1,3.12,0,0.377798003,#a3d0fb,,left_blue.png,w,1,2,6,2,1,w,left_blue.png,left_orange.png,q,left,60ff1fabb65fe8b8cff50c59,001,2021-08-01_12h32.32.884,arrow_simon_norep,2021.1.2,Win32,59.41417622,,,,,,,,,,,,,,,,,,,,,,,,,,,,,,,,,,,,,,
,,,q,1,2.6783,0,0.939384519,#f3af84,,left_orange.png,q,1,3,7,3,1,w,left_blue.png,left_orange.png,q,right,60ff1fabb65fe8b8cff50c59,001,2021-08-01_12h32.32.884,arrow_simon_norep,2021.1.2,Win32,59.41417622,,,,,,,,,,,,,,,,,,,,,,,,,,,,,,,,,,,,,,
,,,w,1,1.5589,0,0.45175571,#a3d0fb,,left_blue.png,w,2,0,8,3,1,w,left_blue.png,left_orange.png,q,right,60ff1fabb65fe8b8cff50c59,001,2021-08-01_12h32.32.884,arrow_simon_norep,2021.1.2,Win32,59.41417622,,,,,,,,,,,,,,,,,,,,,,,,,,,,,,,,,,,,,,
,,,p,0,1.7384,1,0.446065051,#f3af84,,left_orange.png,q,2,1,9,2,1,w,left_blue.png,left_orange.png,q,left,60ff1fabb65fe8b8cff50c59,001,2021-08-01_12h32.32.884,arrow_simon_norep,2021.1.2,Win32,59.41417622,,,,,,,,,,,,,,,,,,,,,,,,,,,,,,,,,,,,,,
,,,o,1,2.1913,0,0.293775895,#a3d0fb,,right_blue.png,o,2,2,10,0,1,o,right_blue.png,right_orange.png,p,left,60ff1fabb65fe8b8cff50c59,001,2021-08-01_12h32.32.884,arrow_simon_norep,2021.1.2,Win32,59.41417622,,,,,,,,,,,,,,,,,,,,,,,,,,,,,,,,,,,,,,
,,,q,1,2.7922,0,0.399028242,#f3af84,,left_orange.png,q,2,3,11,2,1,w,left_blue.png,left_orange.png,q,left,60ff1fabb65fe8b8cff50c59,001,2021-08-01_12h32.32.884,arrow_simon_norep,2021.1.2,Win32,59.41417622,,,,,,,,,,,,,,,,,,,,,,,,,,,,,,,,,,,,,,
,,,o,1,1.3452,0,0.35704941,#a3d0fb,,right_blue.png,o,3,0,12,0,1,o,right_blue.png,right_orange.png,p,left,60ff1fabb65fe8b8cff50c59,001,2021-08-01_12h32.32.884,arrow_simon_norep,2021.1.2,Win32,59.41417622,,,,,,,,,,,,,,,,,,,,,,,,,,,,,,,,,,,,,,
,,,q,1,1.9106,0,0.316276944,#f3af84,,left_orange.png,q,3,1,13,3,1,w,left_blue.png,left_orange.png,q,right,60ff1fabb65fe8b8cff50c59,001,2021-08-01_12h32.32.884,arrow_simon_norep,2021.1.2,Win32,59.41417622,,,,,,,,,,,,,,,,,,,,,,,,,,,,,,,,,,,,,,
,,,o,0,1.1806,1,0.119189462,#a3d0fb,,left_blue.png,w,3,2,14,2,1,w,left_blue.png,left_orange.png,q,left,60ff1fabb65fe8b8cff50c59,001,2021-08-01_12h32.32.884,arrow_simon_norep,2021.1.2,Win32,59.41417622,,,,,,,,,,,,,,,,,,,,,,,,,,,,,,,,,,,,,,
,,,q,1,1.8935,0,0.749711517,#f3af84,,left_orange.png,q,3,3,15,2,1,w,left_blue.png,left_orange.png,q,left,60ff1fabb65fe8b8cff50c59,001,2021-08-01_12h32.32.884,arrow_simon_norep,2021.1.2,Win32,59.41417622,,,,,,,,,,,,,,,,,,,,,,,,,,,,,,,,,,,,,,
,,,o,1,1.9344,0,0.252630777,#a3d0fb,,right_blue.png,o,4,0,16,0,1,o,right_blue.png,right_orange.png,p,left,60ff1fabb65fe8b8cff50c59,001,2021-08-01_12h32.32.884,arrow_simon_norep,2021.1.2,Win32,59.41417622,,,,,,,,,,,,,,,,,,,,,,,,,,,,,,,,,,,,,,
,,,p,1,2.0457,0,0.690824449,#f3af84,,right_orange.png,p,4,1,17,1,1,o,right_blue.png,right_orange.png,p,right,60ff1fabb65fe8b8cff50c59,001,2021-08-01_12h32.32.884,arrow_simon_norep,2021.1.2,Win32,59.41417622,,,,,,,,,,,,,,,,,,,,,,,,,,,,,,,,,,,,,,
,,,w,1,1.9266,0,0.445836552,#a3d0fb,,left_blue.png,w,4,2,18,3,1,w,left_blue.png,left_orange.png,q,right,60ff1fabb65fe8b8cff50c59,001,2021-08-01_12h32.32.884,arrow_simon_norep,2021.1.2,Win32,59.41417622,,,,,,,,,,,,,,,,,,,,,,,,,,,,,,,,,,,,,,
,,,p,1,1.6189,0,0.345808508,#f3af84,,right_orange.png,p,4,3,19,0,1,o,right_blue.png,right_orange.png,p,left,60ff1fabb65fe8b8cff50c59,001,2021-08-01_12h32.32.884,arrow_simon_norep,2021.1.2,Win32,59.41417622,,,,,,,,,,,,,,,,,,,,,,,,,,,,,,,,,,,,,,
,,,o,1,2.0195,0,0.906031615,#a3d0fb,,right_blue.png,o,5,0,20,0,1,o,right_blue.png,right_orange.png,p,left,60ff1fabb65fe8b8cff50c59,001,2021-08-01_12h32.32.884,arrow_simon_norep,2021.1.2,Win32,59.41417622,,,,,,,,,,,,,,,,,,,,,,,,,,,,,,,,,,,,,,
,,,p,1,1.2562,0,0.609817895,#f3af84,,right_orange.png,p,5,1,21,1,1,o,right_blue.png,right_orange.png,p,right,60ff1fabb65fe8b8cff50c59,001,2021-08-01_12h32.32.884,arrow_simon_norep,2021.1.2,Win32,59.41417622,,,,,,,,,,,,,,,,,,,,,,,,,,,,,,,,,,,,,,
,,,o,1,1.2485,0,0.380337832,#a3d0fb,,right_blue.png,o,5,2,22,0,1,o,right_blue.png,right_orange.png,p,left,60ff1fabb65fe8b8cff50c59,001,2021-08-01_12h32.32.884,arrow_simon_norep,2021.1.2,Win32,59.41417622,,,,,,,,,,,,,,,,,,,,,,,,,,,,,,,,,,,,,,
,,,p,1,1.334,0,0.701682717,#f3af84,,right_orange.png,p,5,3,23,1,1,o,right_blue.png,right_orange.png,p,right,60ff1fabb65fe8b8cff50c59,001,2021-08-01_12h32.32.884,arrow_simon_norep,2021.1.2,Win32,59.41417622,,,,,,,,,,,,,,,,,,,,,,,,,,,,,,,,,,,,,,
,,,o,1,1.2855,0,0.614748974,#a3d0fb,,right_blue.png,o,6,0,24,0,1,o,right_blue.png,right_orange.png,p,left,60ff1fabb65fe8b8cff50c59,001,2021-08-01_12h32.32.884,arrow_simon_norep,2021.1.2,Win32,59.41417622,,,,,,,,,,,,,,,,,,,,,,,,,,,,,,,,,,,,,,
,,,p,1,1.2284,0,0.678968288,#f3af84,,right_orange.png,p,6,1,25,1,1,o,right_blue.png,right_orange.png,p,right,60ff1fabb65fe8b8cff50c59,001,2021-08-01_12h32.32.884,arrow_simon_norep,2021.1.2,Win32,59.41417622,,,,,,,,,,,,,,,,,,,,,,,,,,,,,,,,,,,,,,
,,,q,0,0.9242,1,0.176571745,#a3d0fb,,left_blue.png,w,6,2,26,2,1,w,left_blue.png,left_orange.png,q,left,60ff1fabb65fe8b8cff50c59,001,2021-08-01_12h32.32.884,arrow_simon_norep,2021.1.2,Win32,59.41417622,,,,,,,,,,,,,,,,,,,,,,,,,,,,,,,,,,,,,,
,,,q,1,1.945,0,0.766008926,#f3af84,,left_orange.png,q,6,3,27,3,1,w,left_blue.png,left_orange.png,q,right,60ff1fabb65fe8b8cff50c59,001,2021-08-01_12h32.32.884,arrow_simon_norep,2021.1.2,Win32,59.41417622,,,,,,,,,,,,,,,,,,,,,,,,,,,,,,,,,,,,,,
,,,o,1,1.4265,0,0.709372765,#a3d0fb,,right_blue.png,o,7,0,28,0,1,o,right_blue.png,right_orange.png,p,left,60ff1fabb65fe8b8cff50c59,001,2021-08-01_12h32.32.884,arrow_simon_norep,2021.1.2,Win32,59.41417622,,,,,,,,,,,,,,,,,,,,,,,,,,,,,,,,,,,,,,
,,,p,1,2.2709,0,0.89710477,#f3af84,,right_orange.png,p,7,1,29,0,1,o,right_blue.png,right_orange.png,p,left,60ff1fabb65fe8b8cff50c59,001,2021-08-01_12h32.32.884,arrow_simon_norep,2021.1.2,Win32,59.41417622,,,,,,,,,,,,,,,,,,,,,,,,,,,,,,,,,,,,,,
,,,o,1,1.1395,0,0.446005147,#a3d0fb,,right_blue.png,o,7,2,30,1,1,o,right_blue.png,right_orange.png,p,right,60ff1fabb65fe8b8cff50c59,001,2021-08-01_12h32.32.884,arrow_simon_norep,2021.1.2,Win32,59.41417622,,,,,,,,,,,,,,,,,,,,,,,,,,,,,,,,,,,,,,
,,,q,1,1.6786,0,0.604640464,#f3af84,,left_orange.png,q,7,3,31,3,1,w,left_blue.png,left_orange.png,q,right,60ff1fabb65fe8b8cff50c59,001,2021-08-01_12h32.32.884,arrow_simon_norep,2021.1.2,Win32,59.41417622,,,,,,,,,,,,,,,,,,,,,,,,,,,,,,,,,,,,,,
,,,o,1,1.6202,0,0.809241495,#a3d0fb,,right_blue.png,o,8,0,32,1,1,o,right_blue.png,right_orange.png,p,right,60ff1fabb65fe8b8cff50c59,001,2021-08-01_12h32.32.884,arrow_simon_norep,2021.1.2,Win32,59.41417622,,,,,,,,,,,,,,,,,,,,,,,,,,,,,,,,,,,,,,
,,,p,1,1.3999,0,0.856181452,#f3af84,,right_orange.png,p,8,1,33,1,1,o,right_blue.png,right_orange.png,p,right,60ff1fabb65fe8b8cff50c59,001,2021-08-01_12h32.32.884,arrow_simon_norep,2021.1.2,Win32,59.41417622,,,,,,,,,,,,,,,,,,,,,,,,,,,,,,,,,,,,,,
,,,w,1,1.2317,0,0.205568604,#a3d0fb,,left_blue.png,w,8,2,34,2,1,w,left_blue.png,left_orange.png,q,left,60ff1fabb65fe8b8cff50c59,001,2021-08-01_12h32.32.884,arrow_simon_norep,2021.1.2,Win32,59.41417622,,,,,,,,,,,,,,,,,,,,,,,,,,,,,,,,,,,,,,
,,,p,1,1.6936,0,0.864959857,#f3af84,,right_orange.png,p,8,3,35,0,1,o,right_blue.png,right_orange.png,p,left,60ff1fabb65fe8b8cff50c59,001,2021-08-01_12h32.32.884,arrow_simon_norep,2021.1.2,Win32,59.41417622,,,,,,,,,,,,,,,,,,,,,,,,,,,,,,,,,,,,,,
,,,w,1,1.3857,0,0.402838356,#a3d0fb,,left_blue.png,w,9,0,36,3,1,w,left_blue.png,left_orange.png,q,right,60ff1fabb65fe8b8cff50c59,001,2021-08-01_12h32.32.884,arrow_simon_norep,2021.1.2,Win32,59.41417622,,,,,,,,,,,,,,,,,,,,,,,,,,,,,,,,,,,,,,
,,,o,0,1.7639,1,0.34883868,#f3af84,,left_orange.png,q,9,1,37,3,1,w,left_blue.png,left_orange.png,q,right,60ff1fabb65fe8b8cff50c59,001,2021-08-01_12h32.32.884,arrow_simon_norep,2021.1.2,Win32,59.41417622,,,,,,,,,,,,,,,,,,,,,,,,,,,,,,,,,,,,,,
,,,w,1,1.5933,0,0.646258891,#a3d0fb,,left_blue.png,w,9,2,38,2,1,w,left_blue.png,left_orange.png,q,left,60ff1fabb65fe8b8cff50c59,001,2021-08-01_12h32.32.884,arrow_simon_norep,2021.1.2,Win32,59.41417622,,,,,,,,,,,,,,,,,,,,,,,,,,,,,,,,,,,,,,
,,,q,1,0.8346,0,0.108155867,#f3af84,,left_orange.png,q,9,3,39,2,1,w,left_blue.png,left_orange.png,q,left,60ff1fabb65fe8b8cff50c59,001,2021-08-01_12h32.32.884,arrow_simon_norep,2021.1.2,Win32,59.41417622,,,,,,,,,,,,,,,,,,,,,,,,,,,,,,,,,,,,,,
,,,o,1,1.4054,0,0.664442709,#a3d0fb,,right_blue.png,o,10,0,40,1,1,o,right_blue.png,right_orange.png,p,right,60ff1fabb65fe8b8cff50c59,001,2021-08-01_12h32.32.884,arrow_simon_norep,2021.1.2,Win32,59.41417622,,,,,,,,,,,,,,,,,,,,,,,,,,,,,,,,,,,,,,
,,,p,1,1.3362,0,0.748247586,#f3af84,,right_orange.png,p,10,1,41,1,1,o,right_blue.png,right_orange.png,p,right,60ff1fabb65fe8b8cff50c59,001,2021-08-01_12h32.32.884,arrow_simon_norep,2021.1.2,Win32,59.41417622,,,,,,,,,,,,,,,,,,,,,,,,,,,,,,,,,,,,,,
,,,w,1,1.7969,0,0.280016288,#a3d0fb,,left_blue.png,w,10,2,42,3,1,w,left_blue.png,left_orange.png,q,right,60ff1fabb65fe8b8cff50c59,001,2021-08-01_12h32.32.884,arrow_simon_norep,2021.1.2,Win32,59.41417622,,,,,,,,,,,,,,,,,,,,,,,,,,,,,,,,,,,,,,
,,,p,1,1.5356,0,0.545274421,#f3af84,,right_orange.png,p,10,3,43,1,1,o,right_blue.png,right_orange.png,p,right,60ff1fabb65fe8b8cff50c59,001,2021-08-01_12h32.32.884,arrow_simon_norep,2021.1.2,Win32,59.41417622,,,,,,,,,,,,,,,,,,,,,,,,,,,,,,,,,,,,,,
,,,w,1,1.836,0,0.3736785,#a3d0fb,,left_blue.png,w,11,0,44,3,1,w,left_blue.png,left_orange.png,q,right,60ff1fabb65fe8b8cff50c59,001,2021-08-01_12h32.32.884,arrow_simon_norep,2021.1.2,Win32,59.41417622,,,,,,,,,,,,,,,,,,,,,,,,,,,,,,,,,,,,,,
,,,q,1,2.8523,0,0.98824812,#f3af84,,left_orange.png,q,11,1,45,3,1,w,left_blue.png,left_orange.png,q,right,60ff1fabb65fe8b8cff50c59,001,2021-08-01_12h32.32.884,arrow_simon_norep,2021.1.2,Win32,59.41417622,,,,,,,,,,,,,,,,,,,,,,,,,,,,,,,,,,,,,,
,,,o,1,1.4323,0,0.509852416,#a3d0fb,,right_blue.png,o,11,2,46,0,1,o,right_blue.png,right_orange.png,p,left,60ff1fabb65fe8b8cff50c59,001,2021-08-01_12h32.32.884,arrow_simon_norep,2021.1.2,Win32,59.41417622,,,,,,,,,,,,,,,,,,,,,,,,,,,,,,,,,,,,,,
,,,q,1,1.5969,0,0.081907087,#f3af84,,left_orange.png,q,11,3,47,3,1,w,left_blue.png,left_orange.png,q,right,60ff1fabb65fe8b8cff50c59,001,2021-08-01_12h32.32.884,arrow_simon_norep,2021.1.2,Win32,59.41417622,,,,,,,,,,,,,,,,,,,,,,,,,,,,,,,,,,,,,,
,,,w,1,2.5364,0,0.384393956,#a3d0fb,,left_blue.png,w,12,0,48,2,1,w,left_blue.png,left_orange.png,q,left,60ff1fabb65fe8b8cff50c59,001,2021-08-01_12h32.32.884,arrow_simon_norep,2021.1.2,Win32,59.41417622,,,,,,,,,,,,,,,,,,,,,,,,,,,,,,,,,,,,,,
,,,p,1,1.7433,0,0.884697895,#f3af84,,right_orange.png,p,12,1,49,1,1,o,right_blue.png,right_orange.png,p,right,60ff1fabb65fe8b8cff50c59,001,2021-08-01_12h32.32.884,arrow_simon_norep,2021.1.2,Win32,59.41417622,,,,,,,,,,,,,,,,,,,,,,,,,,,,,,,,,,,,,,
,,,o,1,1.4257,0,0.643269355,#a3d0fb,,right_blue.png,o,12,2,50,1,1,o,right_blue.png,right_orange.png,p,right,60ff1fabb65fe8b8cff50c59,001,2021-08-01_12h32.32.884,arrow_simon_norep,2021.1.2,Win32,59.41417622,,,,,,,,,,,,,,,,,,,,,,,,,,,,,,,,,,,,,,
,,,q,1,1.0553,0,0.191526271,#f3af84,,left_orange.png,q,12,3,51,3,1,w,left_blue.png,left_orange.png,q,right,60ff1fabb65fe8b8cff50c59,001,2021-08-01_12h32.32.884,arrow_simon_norep,2021.1.2,Win32,59.41417622,,,,,,,,,,,,,,,,,,,,,,,,,,,,,,,,,,,,,,
,,,o,1,1.8004,0,0.978943028,#a3d0fb,,right_blue.png,o,13,0,52,0,1,o,right_blue.png,right_orange.png,p,left,60ff1fabb65fe8b8cff50c59,001,2021-08-01_12h32.32.884,arrow_simon_norep,2021.1.2,Win32,59.41417622,,,,,,,,,,,,,,,,,,,,,,,,,,,,,,,,,,,,,,
,,,p,1,1.0608,0,0.162921001,#f3af84,,right_orange.png,p,13,1,53,1,1,o,right_blue.png,right_orange.png,p,right,60ff1fabb65fe8b8cff50c59,001,2021-08-01_12h32.32.884,arrow_simon_norep,2021.1.2,Win32,59.41417622,,,,,,,,,,,,,,,,,,,,,,,,,,,,,,,,,,,,,,
,,,w,1,1.4026,0,0.813273164,#a3d0fb,,left_blue.png,w,13,2,54,3,1,w,left_blue.png,left_orange.png,q,right,60ff1fabb65fe8b8cff50c59,001,2021-08-01_12h32.32.884,arrow_simon_norep,2021.1.2,Win32,59.41417622,,,,,,,,,,,,,,,,,,,,,,,,,,,,,,,,,,,,,,
,,,q,1,1.0988,0,0.172214346,#f3af84,,left_orange.png,q,13,3,55,3,1,w,left_blue.png,left_orange.png,q,right,60ff1fabb65fe8b8cff50c59,001,2021-08-01_12h32.32.884,arrow_simon_norep,2021.1.2,Win32,59.41417622,,,,,,,,,,,,,,,,,,,,,,,,,,,,,,,,,,,,,,
,,,w,1,0.9699,0,0.021599564,#a3d0fb,,left_blue.png,w,14,0,56,2,1,w,left_blue.png,left_orange.png,q,left,60ff1fabb65fe8b8cff50c59,001,2021-08-01_12h32.32.884,arrow_simon_norep,2021.1.2,Win32,59.41417622,,,,,,,,,,,,,,,,,,,,,,,,,,,,,,,,,,,,,,
,,,q,1,1.1618,0,0.634944241,#f3af84,,left_orange.png,q,14,1,57,2,1,w,left_blue.png,left_orange.png,q,left,60ff1fabb65fe8b8cff50c59,001,2021-08-01_12h32.32.884,arrow_simon_norep,2021.1.2,Win32,59.41417622,,,,,,,,,,,,,,,,,,,,,,,,,,,,,,,,,,,,,,
,,,o,1,0.7921,0,0.238402316,#a3d0fb,,right_blue.png,o,14,2,58,0,1,o,right_blue.png,right_orange.png,p,left,60ff1fabb65fe8b8cff50c59,001,2021-08-01_12h32.32.884,arrow_simon_norep,2021.1.2,Win32,59.41417622,,,,,,,,,,,,,,,,,,,,,,,,,,,,,,,,,,,,,,
,,,q,1,0.8664,0,0.318950612,#f3af84,,left_orange.png,q,14,3,59,2,1,w,left_blue.png,left_orange.png,q,left,60ff1fabb65fe8b8cff50c59,001,2021-08-01_12h32.32.884,arrow_simon_norep,2021.1.2,Win32,59.41417622,,,,,,,,,,,,,,,,,,,,,,,,,,,,,,,,,,,,,,
,,,,,,,,,,,,,,,,,,,,,,60ff1fabb65fe8b8cff50c59,001,2021-08-01_12h32.32.884,arrow_simon_norep,2021.1.2,Win32,59.41417622,space,12.7174,0,0,0,0,1,,,,,,,,,,,,,,,,,,,,,,,,,,,,,,,
,,,w,1,1.6306,0,0.358376869,#a3d0fb,,left_blue.png,w,0,0,0,3,1,w,left_blue.png,left_orange.png,q,right,60ff1fabb65fe8b8cff50c59,001,2021-08-01_12h32.32.884,arrow_simon_norep,2021.1.2,Win32,59.41417622,,,,,,,,,,,,,,,,,,,,,,,,,,,,,,,,,,,,,,
,,,p,1,1.2097,0,0.324097993,#f3af84,,right_orange.png,p,0,1,1,0,1,o,right_blue.png,right_orange.png,p,left,60ff1fabb65fe8b8cff50c59,001,2021-08-01_12h32.32.884,arrow_simon_norep,2021.1.2,Win32,59.41417622,,,,,,,,,,,,,,,,,,,,,,,,,,,,,,,,,,,,,,
,,,w,1,1.4366,0,0.826866067,#a3d0fb,,left_blue.png,w,0,2,2,2,1,w,left_blue.png,left_orange.png,q,left,60ff1fabb65fe8b8cff50c59,001,2021-08-01_12h32.32.884,arrow_simon_norep,2021.1.2,Win32,59.41417622,,,,,,,,,,,,,,,,,,,,,,,,,,,,,,,,,,,,,,
,,,p,1,1.1844,0,0.370594559,#f3af84,,right_orange.png,p,0,3,3,0,1,o,right_blue.png,right_orange.png,p,left,60ff1fabb65fe8b8cff50c59,001,2021-08-01_12h32.32.884,arrow_simon_norep,2021.1.2,Win32,59.41417622,,,,,,,,,,,,,,,,,,,,,,,,,,,,,,,,,,,,,,
,,,o,1,1.2002,0,0.583076327,#a3d0fb,,right_blue.png,o,1,0,4,1,1,o,right_blue.png,right_orange.png,p,right,60ff1fabb65fe8b8cff50c59,001,2021-08-01_12h32.32.884,arrow_simon_norep,2021.1.2,Win32,59.41417622,,,,,,,,,,,,,,,,,,,,,,,,,,,,,,,,,,,,,,
,,,q,1,0.9271,0,0.318675534,#f3af84,,left_orange.png,q,1,1,5,2,1,w,left_blue.png,left_orange.png,q,left,60ff1fabb65fe8b8cff50c59,001,2021-08-01_12h32.32.884,arrow_simon_norep,2021.1.2,Win32,59.41417622,,,,,,,,,,,,,,,,,,,,,,,,,,,,,,,,,,,,,,
,,,w,1,1.0179,0,0.377672591,#a3d0fb,,left_blue.png,w,1,2,6,2,1,w,left_blue.png,left_orange.png,q,left,60ff1fabb65fe8b8cff50c59,001,2021-08-01_12h32.32.884,arrow_simon_norep,2021.1.2,Win32,59.41417622,,,,,,,,,,,,,,,,,,,,,,,,,,,,,,,,,,,,,,
,,,q,1,1.3332,0,0.702603676,#f3af84,,left_orange.png,q,1,3,7,3,1,w,left_blue.png,left_orange.png,q,right,60ff1fabb65fe8b8cff50c59,001,2021-08-01_12h32.32.884,arrow_simon_norep,2021.1.2,Win32,59.41417622,,,,,,,,,,,,,,,,,,,,,,,,,,,,,,,,,,,,,,
,,,o,1,0.774,0,0.123462668,#a3d0fb,,right_blue.png,o,2,0,8,1,1,o,right_blue.png,right_orange.png,p,right,60ff1fabb65fe8b8cff50c59,001,2021-08-01_12h32.32.884,arrow_simon_norep,2021.1.2,Win32,59.41417622,,,,,,,,,,,,,,,,,,,,,,,,,,,,,,,,,,,,,,
,,,q,1,1.5501,0,0.960960617,#f3af84,,left_orange.png,q,2,1,9,2,1,w,left_blue.png,left_orange.png,q,left,60ff1fabb65fe8b8cff50c59,001,2021-08-01_12h32.32.884,arrow_simon_norep,2021.1.2,Win32,59.41417622,,,,,,,,,,,,,,,,,,,,,,,,,,,,,,,,,,,,,,
,,,o,1,0.8505,0,0.309162082,#a3d0fb,,right_blue.png,o,2,2,10,1,1,o,right_blue.png,right_orange.png,p,right,60ff1fabb65fe8b8cff50c59,001,2021-08-01_12h32.32.884,arrow_simon_norep,2021.1.2,Win32,59.41417622,,,,,,,,,,,,,,,,,,,,,,,,,,,,,,,,,,,,,,
,,,p,1,1.4885,0,0.932738448,#f3af84,,right_orange.png,p,2,3,11,0,1,o,right_blue.png,right_orange.png,p,left,60ff1fabb65fe8b8cff50c59,001,2021-08-01_12h32.32.884,arrow_simon_norep,2021.1.2,Win32,59.41417622,,,,,,,,,,,,,,,,,,,,,,,,,,,,,,,,,,,,,,
,,,o,1,0.9919,0,0.337585034,#a3d0fb,,right_blue.png,o,3,0,12,0,1,o,right_blue.png,right_orange.png,p,left,60ff1fabb65fe8b8cff50c59,001,2021-08-01_12h32.32.884,arrow_simon_norep,2021.1.2,Win32,59.41417622,,,,,,,,,,,,,,,,,,,,,,,,,,,,,,,,,,,,,,
,,,p,1,1.5339,0,0.972975759,#f3af84,,right_orange.png,p,3,1,13,0,1,o,right_blue.png,right_orange.png,p,left,60ff1fabb65fe8b8cff50c59,001,2021-08-01_12h32.32.884,arrow_simon_norep,2021.1.2,Win32,59.41417622,,,,,,,,,,,,,,,,,,,,,,,,,,,,,,,,,,,,,,
,,,w,1,0.7672,0,0.209729135,#a3d0fb,,left_blue.png,w,3,2,14,3,1,w,left_blue.png,left_orange.png,q,right,60ff1fabb65fe8b8cff50c59,001,2021-08-01_12h32.32.884,arrow_simon_norep,2021.1.2,Win32,59.41417622,,,,,,,,,,,,,,,,,,,,,,,,,,,,,,,,,,,,,,
,,,p,1,1.241,0,0.540516743,#f3af84,,right_orange.png,p,3,3,15,1,1,o,right_blue.png,right_orange.png,p,right,60ff1fabb65fe8b8cff50c59,001,2021-08-01_12h32.32.884,arrow_simon_norep,2021.1.2,Win32,59.41417622,,,,,,,,,,,,,,,,,,,,,,,,,,,,,,,,,,,,,,
,,,w,1,1.4213,0,0.820564386,#a3d0fb,,left_blue.png,w,4,0,16,3,1,w,left_blue.png,left_orange.png,q,right,60ff1fabb65fe8b8cff50c59,001,2021-08-01_12h32.32.884,arrow_simon_norep,2021.1.2,Win32,59.41417622,,,,,,,,,,,,,,,,,,,,,,,,,,,,,,,,,,,,,,
,,,p,1,1.2066,0,0.24391447,#f3af84,,right_orange.png,p,4,1,17,1,1,o,right_blue.png,right_orange.png,p,right,60ff1fabb65fe8b8cff50c59,001,2021-08-01_12h32.32.884,arrow_simon_norep,2021.1.2,Win32,59.41417622,,,,,,,,,,,,,,,,,,,,,,,,,,,,,,,,,,,,,,
,,,o,1,1.4504,0,0.718500086,#a3d0fb,,right_blue.png,o,4,2,18,1,1,o,right_blue.png,right_orange.png,p,right,60ff1fabb65fe8b8cff50c59,001,2021-08-01_12h32.32.884,arrow_simon_norep,2021.1.2,Win32,59.41417622,,,,,,,,,,,,,,,,,,,,,,,,,,,,,,,,,,,,,,
,,,q,1,0.917,0,0.173219955,#f3af84,,left_orange.png,q,4,3,19,3,1,w,left_blue.png,left_orange.png,q,right,60ff1fabb65fe8b8cff50c59,001,2021-08-01_12h32.32.884,arrow_simon_norep,2021.1.2,Win32,59.41417622,,,,,,,,,,,,,,,,,,,,,,,,,,,,,,,,,,,,,,
,,,w,1,0.8006,0,0.005834247,#a3d0fb,,left_blue.png,w,5,0,20,3,1,w,left_blue.png,left_orange.png,q,right,60ff1fabb65fe8b8cff50c59,001,2021-08-01_12h32.32.884,arrow_simon_norep,2021.1.2,Win32,59.41417622,,,,,,,,,,,,,,,,,,,,,,,,,,,,,,,,,,,,,,
,,,p,1,1.1178,0,0.205601733,#f3af84,,right_orange.png,p,5,1,21,0,1,o,right_blue.png,right_orange.png,p,left,60ff1fabb65fe8b8cff50c59,001,2021-08-01_12h32.32.884,arrow_simon_norep,2021.1.2,Win32,59.41417622,,,,,,,,,,,,,,,,,,,,,,,,,,,,,,,,,,,,,,
,,,w,0,1.5585,1,0.070956428,#a3d0fb,,right_blue.png,o,5,2,22,0,1,o,right_blue.png,right_orange.png,p,left,60ff1fabb65fe8b8cff50c59,001,2021-08-01_12h32.32.884,arrow_simon_norep,2021.1.2,Win32,59.41417622,,,,,,,,,,,,,,,,,,,,,,,,,,,,,,,,,,,,,,
,,,q,1,1.4048,0,0.447312523,#f3af84,,left_orange.png,q,5,3,23,3,1,w,left_blue.png,left_orange.png,q,right,60ff1fabb65fe8b8cff50c59,001,2021-08-01_12h32.32.884,arrow_simon_norep,2021.1.2,Win32,59.41417622,,,,,,,,,,,,,,,,,,,,,,,,,,,,,,,,,,,,,,
,,,w,1,1.0338,0,0.425018962,#a3d0fb,,left_blue.png,w,6,0,24,3,1,w,left_blue.png,left_orange.png,q,right,60ff1fabb65fe8b8cff50c59,001,2021-08-01_12h32.32.884,arrow_simon_norep,2021.1.2,Win32,59.41417622,,,,,,,,,,,,,,,,,,,,,,,,,,,,,,,,,,,,,,
,,,q,1,1.7053,0,0.962604105,#f3af84,,left_orange.png,q,6,1,25,2,1,w,left_blue.png,left_orange.png,q,left,60ff1fabb65fe8b8cff50c59,001,2021-08-01_12h32.32.884,arrow_simon_norep,2021.1.2,Win32,59.41417622,,,,,,,,,,,,,,,,,,,,,,,,,,,,,,,,,,,,,,
,,,w,1,1.1171,0,0.424570671,#a3d0fb,,left_blue.png,w,6,2,26,2,1,w,left_blue.png,left_orange.png,q,left,60ff1fabb65fe8b8cff50c59,001,2021-08-01_12h32.32.884,arrow_simon_norep,2021.1.2,Win32,59.41417622,,,,,,,,,,,,,,,,,,,,,,,,,,,,,,,,,,,,,,
,,,p,1,1.6255,0,0.629750747,#f3af84,,right_orange.png,p,6,3,27,0,1,o,right_blue.png,right_orange.png,p,left,60ff1fabb65fe8b8cff50c59,001,2021-08-01_12h32.32.884,arrow_simon_norep,2021.1.2,Win32,59.41417622,,,,,,,,,,,,,,,,,,,,,,,,,,,,,,,,,,,,,,
,,,o,1,1.1508,0,0.277254084,#a3d0fb,,right_blue.png,o,7,0,28,1,1,o,right_blue.png,right_orange.png,p,right,60ff1fabb65fe8b8cff50c59,001,2021-08-01_12h32.32.884,arrow_simon_norep,2021.1.2,Win32,59.41417622,,,,,,,,,,,,,,,,,,,,,,,,,,,,,,,,,,,,,,
,,,q,1,0.9669,0,0.156055648,#f3af84,,left_orange.png,q,7,1,29,2,1,w,left_blue.png,left_orange.png,q,left,60ff1fabb65fe8b8cff50c59,001,2021-08-01_12h32.32.884,arrow_simon_norep,2021.1.2,Win32,59.41417622,,,,,,,,,,,,,,,,,,,,,,,,,,,,,,,,,,,,,,
,,,w,1,1.1502,0,0.129770535,#a3d0fb,,left_blue.png,w,7,2,30,3,1,w,left_blue.png,left_orange.png,q,right,60ff1fabb65fe8b8cff50c59,001,2021-08-01_12h32.32.884,arrow_simon_norep,2021.1.2,Win32,59.41417622,,,,,,,,,,,,,,,,,,,,,,,,,,,,,,,,,,,,,,
,,,p,1,1.493,0,0.769041506,#f3af84,,right_orange.png,p,7,3,31,1,1,o,right_blue.png,right_orange.png,p,right,60ff1fabb65fe8b8cff50c59,001,2021-08-01_12h32.32.884,arrow_simon_norep,2021.1.2,Win32,59.41417622,,,,,,,,,,,,,,,,,,,,,,,,,,,,,,,,,,,,,,
,,,o,1,1.0769,0,0.360262892,#a3d0fb,,right_blue.png,o,8,0,32,0,1,o,right_blue.png,right_orange.png,p,left,60ff1fabb65fe8b8cff50c59,001,2021-08-01_12h32.32.884,arrow_simon_norep,2021.1.2,Win32,59.41417622,,,,,,,,,,,,,,,,,,,,,,,,,,,,,,,,,,,,,,
,,,q,1,1.4832,0,0.57443913,#f3af84,,left_orange.png,q,8,1,33,2,1,w,left_blue.png,left_orange.png,q,left,60ff1fabb65fe8b8cff50c59,001,2021-08-01_12h32.32.884,arrow_simon_norep,2021.1.2,Win32,59.41417622,,,,,,,,,,,,,,,,,,,,,,,,,,,,,,,,,,,,,,
,,,o,1,1.9498,0,0.930127254,#a3d0fb,,right_blue.png,o,8,2,34,0,1,o,right_blue.png,right_orange.png,p,left,60ff1fabb65fe8b8cff50c59,001,2021-08-01_12h32.32.884,arrow_simon_norep,2021.1.2,Win32,59.41417622,,,,,,,,,,,,,,,,,,,,,,,,,,,,,,,,,,,,,,
,,,q,1,1.0336,0,0.010637785,#f3af84,,left_orange.png,q,8,3,35,2,1,w,left_blue.png,left_orange.png,q,left,60ff1fabb65fe8b8cff50c59,001,2021-08-01_12h32.32.884,arrow_simon_norep,2021.1.2,Win32,59.41417622,,,,,,,,,,,,,,,,,,,,,,,,,,,,,,,,,,,,,,
,,,o,1,1.2215,0,0.504070816,#a3d0fb,,right_blue.png,o,9,0,36,1,1,o,right_blue.png,right_orange.png,p,right,60ff1fabb65fe8b8cff50c59,001,2021-08-01_12h32.32.884,arrow_simon_norep,2021.1.2,Win32,59.41417622,,,,,,,,,,,,,,,,,,,,,,,,,,,,,,,,,,,,,,
,,,p,1,1.225,0,0.175227591,#f3af84,,right_orange.png,p,9,1,37,0,1,o,right_blue.png,right_orange.png,p,left,60ff1fabb65fe8b8cff50c59,001,2021-08-01_12h32.32.884,arrow_simon_norep,2021.1.2,Win32,59.41417622,,,,,,,,,,,,,,,,,,,,,,,,,,,,,,,,,,,,,,
,,,o,1,1.4773,0,0.862938692,#a3d0fb,,right_blue.png,o,9,2,38,0,1,o,right_blue.png,right_orange.png,p,left,60ff1fabb65fe8b8cff50c59,001,2021-08-01_12h32.32.884,arrow_simon_norep,2021.1.2,Win32,59.41417622,,,,,,,,,,,,,,,,,,,,,,,,,,,,,,,,,,,,,,
,,,q,1,0.8185,0,0.175573811,#f3af84,,left_orange.png,q,9,3,39,2,1,w,left_blue.png,left_orange.png,q,left,60ff1fabb65fe8b8cff50c59,001,2021-08-01_12h32.32.884,arrow_simon_norep,2021.1.2,Win32,59.41417622,,,,,,,,,,,,,,,,,,,,,,,,,,,,,,,,,,,,,,
,,,o,1,1.3354,0,0.828003635,#a3d0fb,,right_blue.png,o,10,0,40,1,1,o,right_blue.png,right_orange.png,p,right,60ff1fabb65fe8b8cff50c59,001,2021-08-01_12h32.32.884,arrow_simon_norep,2021.1.2,Win32,59.41417622,,,,,,,,,,,,,,,,,,,,,,,,,,,,,,,,,,,,,,
,,,p,1,1.5334,0,0.890224047,#f3af84,,right_orange.png,p,10,1,41,1,1,o,right_blue.png,right_orange.png,p,right,60ff1fabb65fe8b8cff50c59,001,2021-08-01_12h32.32.884,arrow_simon_norep,2021.1.2,Win32,59.41417622,,,,,,,,,,,,,,,,,,,,,,,,,,,,,,,,,,,,,,
,,,w,1,1.5831,0,0.758955053,#a3d0fb,,left_blue.png,w,10,2,42,3,1,w,left_blue.png,left_orange.png,q,right,60ff1fabb65fe8b8cff50c59,001,2021-08-01_12h32.32.884,arrow_simon_norep,2021.1.2,Win32,59.41417622,,,,,,,,,,,,,,,,,,,,,,,,,,,,,,,,,,,,,,
,,,p,1,0.702,0,0.001989386,#f3af84,,right_orange.png,p,10,3,43,0,1,o,right_blue.png,right_orange.png,p,left,60ff1fabb65fe8b8cff50c59,001,2021-08-01_12h32.32.884,arrow_simon_norep,2021.1.2,Win32,59.41417622,,,,,,,,,,,,,,,,,,,,,,,,,,,,,,,,,,,,,,
,,,w,1,0.7696,0,0.102280921,#a3d0fb,,left_blue.png,w,11,0,44,3,1,w,left_blue.png,left_orange.png,q,right,60ff1fabb65fe8b8cff50c59,001,2021-08-01_12h32.32.884,arrow_simon_norep,2021.1.2,Win32,59.41417622,,,,,,,,,,,,,,,,,,,,,,,,,,,,,,,,,,,,,,
,,,p,1,0.7505,0,0.118129014,#f3af84,,right_orange.png,p,11,1,45,1,1,o,right_blue.png,right_orange.png,p,right,60ff1fabb65fe8b8cff50c59,001,2021-08-01_12h32.32.884,arrow_simon_norep,2021.1.2,Win32,59.41417622,,,,,,,,,,,,,,,,,,,,,,,,,,,,,,,,,,,,,,
,,,w,1,1.5165,0,0.484771266,#a3d0fb,,left_blue.png,w,11,2,46,3,1,w,left_blue.png,left_orange.png,q,right,60ff1fabb65fe8b8cff50c59,001,2021-08-01_12h32.32.884,arrow_simon_norep,2021.1.2,Win32,59.41417622,,,,,,,,,,,,,,,,,,,,,,,,,,,,,,,,,,,,,,
,,,q,1,1.6394,0,0.810098514,#f3af84,,left_orange.png,q,11,3,47,2,1,w,left_blue.png,left_orange.png,q,left,60ff1fabb65fe8b8cff50c59,001,2021-08-01_12h32.32.884,arrow_simon_norep,2021.1.2,Win32,59.41417622,,,,,,,,,,,,,,,,,,,,,,,,,,,,,,,,,,,,,,
,,,o,1,1.4335,0,0.957955083,#a3d0fb,,right_blue.png,o,12,0,48,1,1,o,right_blue.png,right_orange.png,p,right,60ff1fabb65fe8b8cff50c59,001,2021-08-01_12h32.32.884,arrow_simon_norep,2021.1.2,Win32,59.41417622,,,,,,,,,,,,,,,,,,,,,,,,,,,,,,,,,,,,,,
,,,q,1,1.5201,0,0.828429267,#f3af84,,left_orange.png,q,12,1,49,2,1,w,left_blue.png,left_orange.png,q,left,60ff1fabb65fe8b8cff50c59,001,2021-08-01_12h32.32.884,arrow_simon_norep,2021.1.2,Win32,59.41417622,,,,,,,,,,,,,,,,,,,,,,,,,,,,,,,,,,,,,,
,,,w,1,1.2751,0,0.236879693,#a3d0fb,,left_blue.png,w,12,2,50,3,1,w,left_blue.png,left_orange.png,q,right,60ff1fabb65fe8b8cff50c59,001,2021-08-01_12h32.32.884,arrow_simon_norep,2021.1.2,Win32,59.41417622,,,,,,,,,,,,,,,,,,,,,,,,,,,,,,,,,,,,,,
,,,p,1,0.8504,0,0.075225755,#f3af84,,right_orange.png,p,12,3,51,0,1,o,right_blue.png,right_orange.png,p,left,60ff1fabb65fe8b8cff50c59,001,2021-08-01_12h32.32.884,arrow_simon_norep,2021.1.2,Win32,59.41417622,,,,,,,,,,,,,,,,,,,,,,,,,,,,,,,,,,,,,,
,,,o,1,1.1335,0,0.17755964,#a3d0fb,,right_blue.png,o,13,0,52,1,1,o,right_blue.png,right_orange.png,p,right,60ff1fabb65fe8b8cff50c59,001,2021-08-01_12h32.32.884,arrow_simon_norep,2021.1.2,Win32,59.41417622,,,,,,,,,,,,,,,,,,,,,,,,,,,,,,,,,,,,,,
,,,q,1,0.7007,0,0.046515076,#f3af84,,left_orange.png,q,13,1,53,3,1,w,left_blue.png,left_orange.png,q,right,60ff1fabb65fe8b8cff50c59,001,2021-08-01_12h32.32.884,arrow_simon_norep,2021.1.2,Win32,59.41417622,,,,,,,,,,,,,,,,,,,,,,,,,,,,,,,,,,,,,,
,,,w,1,1.1501,0,0.089801801,#a3d0fb,,left_blue.png,w,13,2,54,2,1,w,left_blue.png,left_orange.png,q,left,60ff1fabb65fe8b8cff50c59,001,2021-08-01_12h32.32.884,arrow_simon_norep,2021.1.2,Win32,59.41417622,,,,,,,,,,,,,,,,,,,,,,,,,,,,,,,,,,,,,,
,,,q,1,1.5052,0,0.446435719,#f3af84,,left_orange.png,q,13,3,55,3,1,w,left_blue.png,left_orange.png,q,right,60ff1fabb65fe8b8cff50c59,001,2021-08-01_12h32.32.884,arrow_simon_norep,2021.1.2,Win32,59.41417622,,,,,,,,,,,,,,,,,,,,,,,,,,,,,,,,,,,,,,
,,,o,1,0.8773,0,0.185136435,#a3d0fb,,right_blue.png,o,14,0,56,1,1,o,right_blue.png,right_orange.png,p,right,60ff1fabb65fe8b8cff50c59,001,2021-08-01_12h32.32.884,arrow_simon_norep,2021.1.2,Win32,59.41417622,,,,,,,,,,,,,,,,,,,,,,,,,,,,,,,,,,,,,,
,,,q,1,1.4668,0,0.686237537,#f3af84,,left_orange.png,q,14,1,57,2,1,w,left_blue.png,left_orange.png,q,left,60ff1fabb65fe8b8cff50c59,001,2021-08-01_12h32.32.884,arrow_simon_norep,2021.1.2,Win32,59.41417622,,,,,,,,,,,,,,,,,,,,,,,,,,,,,,,,,,,,,,
,,,o,1,1.3362,0,0.464730189,#a3d0fb,,right_blue.png,o,14,2,58,0,1,o,right_blue.png,right_orange.png,p,left,60ff1fabb65fe8b8cff50c59,001,2021-08-01_12h32.32.884,arrow_simon_norep,2021.1.2,Win32,59.41417622,,,,,,,,,,,,,,,,,,,,,,,,,,,,,,,,,,,,,,
,,,q,1,1.4166,0,0.75507039,#f3af84,,left_orange.png,q,14,3,59,2,1,w,left_blue.png,left_orange.png,q,left,60ff1fabb65fe8b8cff50c59,001,2021-08-01_12h32.32.884,arrow_simon_norep,2021.1.2,Win32,59.41417622,,,,,,,,,,,,,,,,,,,,,,,,,,,,,,,,,,,,,,
,,,,,,,,,,,,,,,,,,,,,,60ff1fabb65fe8b8cff50c59,001,2021-08-01_12h32.32.884,arrow_simon_norep,2021.1.2,Win32,59.41417622,space,5.3374,1,0,1,0,1,,,,,,,,,,,,,,,,,,,,,,,,,,,,,,,
,,,,,,,,,,,,,,,,,,,,,,60ff1fabb65fe8b8cff50c59,001,2021-08-01_12h32.32.884,arrow_simon_norep,2021.1.2,Win32,59.41417622,,,,,,,,space,0,42.0323,o,2.8328,0,0,0,0,1,,,,,,,,,,,,,,,,,,,,,
,,,,,,,,,,,,,,,,,,,,,,60ff1fabb65fe8b8cff50c59,001,2021-08-01_12h32.32.884,arrow_simon_norep,2021.1.2,Win32,59.41417622,,,,,,,,,,,p,2.2727,1,0,1,0,1,,,,,,,,,,,,,,,,,,,,,
,,,,,,,,,,,,,,,,,,,,,,60ff1fabb65fe8b8cff50c59,001,2021-08-01_12h32.32.884,arrow_simon_norep,2021.1.2,Win32,59.41417622,,,,,,,,,,,o,2.4728,2,0,2,0,1,,,,,,,,,,,,,,,,,,,,,
,,,,,,,,,,,,,,,,,,,,,,60ff1fabb65fe8b8cff50c59,001,2021-08-01_12h32.32.884,arrow_simon_norep,2021.1.2,Win32,59.41417622,,,,,,,,,,,p,2.3389,3,0,3,0,1,,,,,,,,,,,,,,,,,,,,,
,,,,,,,,,,,,,,,,,,,,,,60ff1fabb65fe8b8cff50c59,001,2021-08-01_12h32.32.884,arrow_simon_norep,2021.1.2,Win32,59.41417622,,,,,,,,,,,o,2.3884,4,0,4,0,1,,,,,,,,,,,,,,,,,,,,,
,,,,,,,,,,,,,,,,,,,,,,60ff1fabb65fe8b8cff50c59,001,2021-08-01_12h32.32.884,arrow_simon_norep,2021.1.2,Win32,59.41417622,,,,,,,,,,,p,2.4255,5,0,5,0,1,,,,,,,,,,,,,,,,,,,,,
,,,,,,,,,,,,,,,,,,,,,,60ff1fabb65fe8b8cff50c59,001,2021-08-01_12h32.32.884,arrow_simon_norep,2021.1.2,Win32,59.41417622,,,,,,,,,,,o,2.5197,6,0,6,0,1,,,,,,,,,,,,,,,,,,,,,
,,,,,,,,,,,,,,,,,,,,,,60ff1fabb65fe8b8cff50c59,001,2021-08-01_12h32.32.884,arrow_simon_norep,2021.1.2,Win32,59.41417622,,,,,,,,,,,p,2.5161,7,0,7,0,1,,,,,,,,,,,,,,,,,,,,,
,,,,,,,,,,,,,,,,,,,,,,60ff1fabb65fe8b8cff50c59,001,2021-08-01_12h32.32.884,arrow_simon_norep,2021.1.2,Win32,59.41417622,,,,,,,,,,,o,2.5386,8,0,8,0,1,,,,,,,,,,,,,,,,,,,,,
,,,,,,,,,,,,,,,,,,,,,,60ff1fabb65fe8b8cff50c59,001,2021-08-01_12h32.32.884,arrow_simon_norep,2021.1.2,Win32,59.41417622,,,,,,,,,,,p,2.5661,9,0,9,0,1,,,,,,,,,,,,,,,,,,,,,
,,,,,,,,,,,,,,,,,,,,,,60ff1fabb65fe8b8cff50c59,001,2021-08-01_12h32.32.884,arrow_simon_norep,2021.1.2,Win32,59.41417622,,,,,,,,,,,o,2.4751,10,0,10,0,1,,,,,,,,,,,,,,,,,,,,,
,,,,,,,,,,,,,,,,,,,,,,60ff1fabb65fe8b8cff50c59,001,2021-08-01_12h32.32.884,arrow_simon_norep,2021.1.2,Win32,59.41417622,,,,,,,,,,,p,2.5088,11,0,11,0,1,,,,,,,,,,,,,,,,,,,,,
,,,,,,,,,,,,,,,,,,,,,,60ff1fabb65fe8b8cff50c59,001,2021-08-01_12h32.32.884,arrow_simon_norep,2021.1.2,Win32,59.41417622,,,,,,,,,,,o,2.5501,12,0,12,0,1,,,,,,,,,,,,,,,,,,,,,
,,,,,,,,,,,,,,,,,,,,,,60ff1fabb65fe8b8cff50c59,001,2021-08-01_12h32.32.884,arrow_simon_norep,2021.1.2,Win32,59.41417622,,,,,,,,,,,p,2.487,13,0,13,0,1,,,,,,,,,,,,,,,,,,,,,
,,,,,,,,,,,,,,,,,,,,,,60ff1fabb65fe8b8cff50c59,001,2021-08-01_12h32.32.884,arrow_simon_norep,2021.1.2,Win32,59.41417622,,,,,,,,,,,o,2.5335,14,0,14,0,1,,,,,,,,,,,,,,,,,,,,,
,,,,,,,,,,,,,,,,,,,,,,60ff1fabb65fe8b8cff50c59,001,2021-08-01_12h32.32.884,arrow_simon_norep,2021.1.2,Win32,59.41417622,,,,,,,,,,,p,2.5165,15,0,15,0,1,,,,,,,,,,,,,,,,,,,,,
,,,,,,,,,,,,,,,,,,,,,,60ff1fabb65fe8b8cff50c59,001,2021-08-01_12h32.32.884,arrow_simon_norep,2021.1.2,Win32,59.41417622,,,,,,,,,,,o,2.46,16,0,16,0,1,,,,,,,,,,,,,,,,,,,,,
,,,,,,,,,,,,,,,,,,,,,,60ff1fabb65fe8b8cff50c59,001,2021-08-01_12h32.32.884,arrow_simon_norep,2021.1.2,Win32,59.41417622,,,,,,,,,,,p,2.5329,17,0,17,0,1,,,,,,,,,,,,,,,,,,,,,
,,,,,,,,,,,,,,,,,,,,,,60ff1fabb65fe8b8cff50c59,001,2021-08-01_12h32.32.884,arrow_simon_norep,2021.1.2,Win32,59.41417622,,,,,,,,,,,o,2.4662,18,0,18,0,1,,,,,,,,,,,,,,,,,,,,,
,,,,,,,,,,,,,,,,,,,,,,60ff1fabb65fe8b8cff50c59,001,2021-08-01_12h32.32.884,arrow_simon_norep,2021.1.2,Win32,59.41417622,,,,,,,,,,,p,2.4672,19,0,19,0,1,,,,,,,,,,,,,,,,,,,,,
,,,,,,,,,,,,,,,,,,,,,,60ff1fabb65fe8b8cff50c59,001,2021-08-01_12h32.32.884,arrow_simon_norep,2021.1.2,Win32,59.41417622,,,,,,,,,,,o,2.4658,20,0,20,0,1,,,,,,,,,,,,,,,,,,,,,
,,,,,,,,,,,,,,,,,,,,,,60ff1fabb65fe8b8cff50c59,001,2021-08-01_12h32.32.884,arrow_simon_norep,2021.1.2,Win32,59.41417622,,,,,,,,,,,p,2.5066,21,0,21,0,1,,,,,,,,,,,,,,,,,,,,,
,,,,,,,,,,,,,,,,,,,,,,60ff1fabb65fe8b8cff50c59,001,2021-08-01_12h32.32.884,arrow_simon_norep,2021.1.2,Win32,59.41417622,,,,,,,,,,,o,2.4532,22,0,22,0,1,,,,,,,,,,,,,,,,,,,,,
,,,,,,,,,,,,,,,,,,,,,,60ff1fabb65fe8b8cff50c59,001,2021-08-01_12h32.32.884,arrow_simon_norep,2021.1.2,Win32,59.41417622,,,,,,,,,,,p,2.5329,23,0,23,0,1,,,,,,,,,,,,,,,,,,,,,
,,,,,,,,,,,,,,,,,,,,,,60ff1fabb65fe8b8cff50c59,001,2021-08-01_12h32.32.884,arrow_simon_norep,2021.1.2,Win32,59.41417622,,,,,,,,,,,o,2.5263,24,0,24,0,1,,,,,,,,,,,,,,,,,,,,,
,,,,,,,,,,,,,,,,,,,,,,60ff1fabb65fe8b8cff50c59,001,2021-08-01_12h32.32.884,arrow_simon_norep,2021.1.2,Win32,59.41417622,,,,,,,,,,,p,2.5503,25,0,25,0,1,,,,,,,,,,,,,,,,,,,,,
,,,,,,,,,,,,,,,,,,,,,,60ff1fabb65fe8b8cff50c59,001,2021-08-01_12h32.32.884,arrow_simon_norep,2021.1.2,Win32,59.41417622,,,,,,,,,,,o,2.4826,26,0,26,0,1,,,,,,,,,,,,,,,,,,,,,
,,,,,,,,,,,,,,,,,,,,,,60ff1fabb65fe8b8cff50c59,001,2021-08-01_12h32.32.884,arrow_simon_norep,2021.1.2,Win32,59.41417622,,,,,,,,,,,p,2.5417,27,0,27,0,1,,,,,,,,,,,,,,,,,,,,,
,,,,,,,,,,,,,,,,,,,,,,60ff1fabb65fe8b8cff50c59,001,2021-08-01_12h32.32.884,arrow_simon_norep,2021.1.2,Win32,59.41417622,,,,,,,,,,,o,2.5327,28,0,28,0,1,,,,,,,,,,,,,,,,,,,,,
,,,,,,,,,,,,,,,,,,,,,,60ff1fabb65fe8b8cff50c59,001,2021-08-01_12h32.32.884,arrow_simon_norep,2021.1.2,Win32,59.41417622,,,,,,,,,,,p,2.5494,29,0,29,0,1,,,,,,,,,,,,,,,,,,,,,
,,,,,,,,,,,,,,,,,,,,,,60ff1fabb65fe8b8cff50c59,001,2021-08-01_12h32.32.884,arrow_simon_norep,2021.1.2,Win32,59.41417622,,,,,,,,,,,o,2.516,30,0,30,0,1,,,,,,,,,,,,,,,,,,,,,
,,,,,,,,,,,,,,,,,,,,,,60ff1fabb65fe8b8cff50c59,001,2021-08-01_12h32.32.884,arrow_simon_norep,2021.1.2,Win32,59.41417622,,,,,,,,,,,p,2.4768,31,0,31,0,1,,,,,,,,,,,,,,,,,,,,,
,,,,,,,,,,,,,,,,,,,,,,60ff1fabb65fe8b8cff50c59,001,2021-08-01_12h32.32.884,arrow_simon_norep,2021.1.2,Win32,59.41417622,,,,,,,,,,,o,2.4228,32,0,32,0,1,,,,,,,,,,,,,,,,,,,,,
,,,,,,,,,,,,,,,,,,,,,,60ff1fabb65fe8b8cff50c59,001,2021-08-01_12h32.32.884,arrow_simon_norep,2021.1.2,Win32,59.41417622,,,,,,,,,,,p,2.5328,33,0,33,0,1,,,,,,,,,,,,,,,,,,,,,
,,,,,,,,,,,,,,,,,,,,,,60ff1fabb65fe8b8cff50c59,001,2021-08-01_12h32.32.884,arrow_simon_norep,2021.1.2,Win32,59.41417622,,,,,,,,,,,o,2.4661,34,0,34,0,1,,,,,,,,,,,,,,,,,,,,,
,,,,,,,,,,,,,,,,,,,,,,60ff1fabb65fe8b8cff50c59,001,2021-08-01_12h32.32.884,arrow_simon_norep,2021.1.2,Win32,59.41417622,,,,,,,,,,,p,2.4865,35,0,35,0,1,,,,,,,,,,,,,,,,,,,,,
,,,,,,,,,,,,,,,,,,,,,,60ff1fabb65fe8b8cff50c59,001,2021-08-01_12h32.32.884,arrow_simon_norep,2021.1.2,Win32,59.41417622,,,,,,,,,,,o,2.4764,36,0,36,0,1,,,,,,,,,,,,,,,,,,,,,
,,,,,,,,,,,,,,,,,,,,,,60ff1fabb65fe8b8cff50c59,001,2021-08-01_12h32.32.884,arrow_simon_norep,2021.1.2,Win32,59.41417622,,,,,,,,,,,p,2.5018,37,0,37,0,1,,,,,,,,,,,,,,,,,,,,,
,,,,,,,,,,,,,,,,,,,,,,60ff1fabb65fe8b8cff50c59,001,2021-08-01_12h32.32.884,arrow_simon_norep,2021.1.2,Win32,59.41417622,,,,,,,,,,,o,2.4492,38,0,38,0,1,,,,,,,,,,,,,,,,,,,,,
,,,,,,,,,,,,,,,,,,,,,,60ff1fabb65fe8b8cff50c59,001,2021-08-01_12h32.32.884,arrow_simon_norep,2021.1.2,Win32,59.41417622,,,,,,,,,,,p,2.4662,39,0,39,0,1,,,,,,,,,,,,,,,,,,,,,
,,,,,,,,,,,,,,,,,,,,,,60ff1fabb65fe8b8cff50c59,001,2021-08-01_12h32.32.884,arrow_simon_norep,2021.1.2,Win32,59.41417622,,,,,,,,,,,o,2.4672,40,0,40,0,1,,,,,,,,,,,,,,,,,,,,,
,,,,,,,,,,,,,,,,,,,,,,60ff1fabb65fe8b8cff50c59,001,2021-08-01_12h32.32.884,arrow_simon_norep,2021.1.2,Win32,59.41417622,,,,,,,,,,,p,2.4916,41,0,41,0,1,,,,,,,,,,,,,,,,,,,,,
,,,,,,,,,,,,,,,,,,,,,,60ff1fabb65fe8b8cff50c59,001,2021-08-01_12h32.32.884,arrow_simon_norep,2021.1.2,Win32,59.41417622,,,,,,,,,,,o,2.416,42,0,42,0,1,,,,,,,,,,,,,,,,,,,,,
,,,,,,,,,,,,,,,,,,,,,,60ff1fabb65fe8b8cff50c59,001,2021-08-01_12h32.32.884,arrow_simon_norep,2021.1.2,Win32,59.41417622,,,,,,,,,,,p,2.5839,43,0,43,0,1,,,,,,,,,,,,,,,,,,,,,
,,,,,,,,,,,,,,,,,,,,,,60ff1fabb65fe8b8cff50c59,001,2021-08-01_12h32.32.884,arrow_simon_norep,2021.1.2,Win32,59.41417622,,,,,,,,,,,o,2.4002,44,0,44,0,1,,,,,,,,,,,,,,,,,,,,,
,,,,,,,,,,,,,,,,,,,,,,60ff1fabb65fe8b8cff50c59,001,2021-08-01_12h32.32.884,arrow_simon_norep,2021.1.2,Win32,59.41417622,,,,,,,,,,,p,2.5036,45,0,45,0,1,,,,,,,,,,,,,,,,,,,,,
,,,,,,,,,,,,,,,,,,,,,,60ff1fabb65fe8b8cff50c59,001,2021-08-01_12h32.32.884,arrow_simon_norep,2021.1.2,Win32,59.41417622,,,,,,,,,,,o,2.2401,46,0,46,0,1,,,,,,,,,,,,,,,,,,,,,
,,,,,,,,,,,,,,,,,,,,,,60ff1fabb65fe8b8cff50c59,001,2021-08-01_12h32.32.884,arrow_simon_norep,2021.1.2,Win32,59.41417622,,,,,,,,,,,p,2.3561,47,0,47,0,1,,,,,,,,,,,,,,,,,,,,,
,,,,,,,,,,,,,,,,,,,,,,60ff1fabb65fe8b8cff50c59,001,2021-08-01_12h32.32.884,arrow_simon_norep,2021.1.2,Win32,59.41417622,,,,,,,,,,,o,2.3828,48,0,48,0,1,,,,,,,,,,,,,,,,,,,,,
,,,,,,,,,,,,,,,,,,,,,,60ff1fabb65fe8b8cff50c59,001,2021-08-01_12h32.32.884,arrow_simon_norep,2021.1.2,Win32,59.41417622,,,,,,,,,,,p,2.5087,49,0,49,0,1,,,,,,,,,,,,,,,,,,,,,
,,,,,,,,,,,,,,,,,,,,,,60ff1fabb65fe8b8cff50c59,001,2021-08-01_12h32.32.884,arrow_simon_norep,2021.1.2,Win32,59.41417622,,,,,,,,,,,o,2.4995,50,0,50,0,1,,,,,,,,,,,,,,,,,,,,,
,,,,,,,,,,,,,,,,,,,,,,60ff1fabb65fe8b8cff50c59,001,2021-08-01_12h32.32.884,arrow_simon_norep,2021.1.2,Win32,59.41417622,,,,,,,,,,,p,2.433,51,0,51,0,1,,,,,,,,,,,,,,,,,,,,,
,,,,,,,,,,,,,,,,,,,,,,60ff1fabb65fe8b8cff50c59,001,2021-08-01_12h32.32.884,arrow_simon_norep,2021.1.2,Win32,59.41417622,,,,,,,,,,,o,2.5715,52,0,52,0,1,,,,,,,,,,,,,,,,,,,,,
,,,,,,,,,,,,,,,,,,,,,,60ff1fabb65fe8b8cff50c59,001,2021-08-01_12h32.32.884,arrow_simon_norep,2021.1.2,Win32,59.41417622,,,,,,,,,,,p,2.626,53,0,53,0,1,,,,,,,,,,,,,,,,,,,,,
,,,,,,,,,,,,,,,,,,,,,,60ff1fabb65fe8b8cff50c59,001,2021-08-01_12h32.32.884,arrow_simon_norep,2021.1.2,Win32,59.41417622,,,,,,,,,,,o,2.5594,54,0,54,0,1,,,,,,,,,,,,,,,,,,,,,
,,,,,,,,,,,,,,,,,,,,,,60ff1fabb65fe8b8cff50c59,001,2021-08-01_12h32.32.884,arrow_simon_norep,2021.1.2,Win32,59.41417622,,,,,,,,,,,p,2.4254,55,0,55,0,1,,,,,,,,,,,,,,,,,,,,,
,,,,,,,,,,,,,,,,,,,,,,60ff1fabb65fe8b8cff50c59,001,2021-08-01_12h32.32.884,arrow_simon_norep,2021.1.2,Win32,59.41417622,,,,,,,,,,,o,2.5861,56,0,56,0,1,,,,,,,,,,,,,,,,,,,,,
,,,,,,,,,,,,,,,,,,,,,,60ff1fabb65fe8b8cff50c59,001,2021-08-01_12h32.32.884,arrow_simon_norep,2021.1.2,Win32,59.41417622,,,,,,,,,,,p,2.5526,57,0,57,0,1,,,,,,,,,,,,,,,,,,,,,
,,,,,,,,,,,,,,,,,,,,,,60ff1fabb65fe8b8cff50c59,001,2021-08-01_12h32.32.884,arrow_simon_norep,2021.1.2,Win32,59.41417622,,,,,,,,,,,o,2.4918,58,0,58,0,1,,,,,,,,,,,,,,,,,,,,,
,,,,,,,,,,,,,,,,,,,,,,60ff1fabb65fe8b8cff50c59,001,2021-08-01_12h32.32.884,arrow_simon_norep,2021.1.2,Win32,59.41417622,,,,,,,,,,,p,2.4375,59,0,59,0,1,,,,,,,,,,,,,,,,,,,,,
,,,,,,0,1.983102947,#a3d0fb,,left_blue.png,w,,,,,,w,left_blue.png,left_orange.png,q,left,60ff1fabb65fe8b8cff50c59,001,2021-08-01_12h32.32.884,arrow_simon_norep,2021.1.2,Win32,59.41417622,,,,,,,,,,,,,,,,,,space,0,50.3795,o,0,1.2686,1,FALSE,TRUE,0,0,0,2,1,,,,,,,
,,,,,,0,2.314468298,#f3af84,,left_orange.png,q,,,,,,w,left_blue.png,left_orange.png,q,left,60ff1fabb65fe8b8cff50c59,001,2021-08-01_12h32.32.884,arrow_simon_norep,2021.1.2,Win32,59.41417622,,,,,,,,,,,,,,,,,,,,,q,1,1.9137,2,TRUE,FALSE,0,1,1,2,1,,,,,,,
,,,,,,0,1.757209543,#a3d0fb,,left_blue.png,w,,,,,,w,left_blue.png,left_orange.png,q,left,60ff1fabb65fe8b8cff50c59,001,2021-08-01_12h32.32.884,arrow_simon_norep,2021.1.2,Win32,59.41417622,,,,,,,,,,,,,,,,,,,,,w,1,1.1663,3,FALSE,TRUE,0,2,2,2,1,,,,,,,
,,,,,,0,2.106342792,#f3af84,,right_orange.png,p,,,,,,o,right_blue.png,right_orange.png,p,left,60ff1fabb65fe8b8cff50c59,001,2021-08-01_12h32.32.884,arrow_simon_norep,2021.1.2,Win32,59.41417622,,,,,,,,,,,,,,,,,,,,,p,1,1.716,4,TRUE,FALSE,0,3,3,0,1,,,,,,,
,,,,,,0,2.10862974,#a3d0fb,,left_blue.png,w,,,,,,w,left_blue.png,left_orange.png,q,right,60ff1fabb65fe8b8cff50c59,001,2021-08-01_12h32.32.884,arrow_simon_norep,2021.1.2,Win32,59.41417622,,,,,,,,,,,,,,,,,,,,,w,1,1.7335,5,TRUE,FALSE,1,0,4,3,1,,,,,,,
,,,,,,0,2.064703688,#f3af84,,right_orange.png,p,,,,,,o,right_blue.png,right_orange.png,p,right,60ff1fabb65fe8b8cff50c59,001,2021-08-01_12h32.32.884,arrow_simon_norep,2021.1.2,Win32,59.41417622,,,,,,,,,,,,,,,,,,,,,p,1,1.3815,6,FALSE,TRUE,1,1,5,1,1,,,,,,,
,,,,,,0,2.270298679,#a3d0fb,,right_blue.png,o,,,,,,o,right_blue.png,right_orange.png,p,left,60ff1fabb65fe8b8cff50c59,001,2021-08-01_12h32.32.884,arrow_simon_norep,2021.1.2,Win32,59.41417622,,,,,,,,,,,,,,,,,,,,,w,0,1.7639,7,TRUE,FALSE,1,2,6,0,1,,,,,,,
,,,,,,0,1.918577747,#f3af84,,left_orange.png,q,,,,,,w,left_blue.png,left_orange.png,q,left,60ff1fabb65fe8b8cff50c59,001,2021-08-01_12h32.32.884,arrow_simon_norep,2021.1.2,Win32,59.41417622,,,,,,,,,,,,,,,,,,,,,q,1,1.4952,8,FALSE,FALSE,1,3,7,2,1,,,,,,,
,,,,,,0,2.461833339,#a3d0fb,,left_blue.png,w,,,,,,w,left_blue.png,left_orange.png,q,left,60ff1fabb65fe8b8cff50c59,001,2021-08-01_12h32.32.884,arrow_simon_norep,2021.1.2,Win32,59.41417622,,,,,,,,,,,,,,,,,,,,,w,1,1.7511,9,TRUE,FALSE,2,0,8,2,1,,,,,,,
,,,,,,0,1.790036648,#f3af84,,right_orange.png,p,,,,,,o,right_blue.png,right_orange.png,p,left,60ff1fabb65fe8b8cff50c59,001,2021-08-01_12h32.32.884,arrow_simon_norep,2021.1.2,Win32,59.41417622,,,,,,,,,,,,,,,,,,,,,p,1,1.5858,10,FALSE,FALSE,2,1,9,0,1,,,,,,,
,,,,,,0,1.843057028,#a3d0fb,,right_blue.png,o,,,,,,o,right_blue.png,right_orange.png,p,left,60ff1fabb65fe8b8cff50c59,001,2021-08-01_12h32.32.884,arrow_simon_norep,2021.1.2,Win32,59.41417622,,,,,,,,,,,,,,,,,,,,,o,1,1.5776,11,FALSE,FALSE,2,2,10,0,1,,,,,,,
,,,,,,0,2.02049981,#f3af84,,right_orange.png,p,,,,,,o,right_blue.png,right_orange.png,p,left,60ff1fabb65fe8b8cff50c59,001,2021-08-01_12h32.32.884,arrow_simon_norep,2021.1.2,Win32,59.41417622,,,,,,,,,,,,,,,,,,,,,p,1,1.636,12,TRUE,FALSE,2,3,11,0,1,,,,,,,
,,,,,,0,1.759346389,#a3d0fb,,left_blue.png,w,,,,,,w,left_blue.png,left_orange.png,q,right,60ff1fabb65fe8b8cff50c59,001,2021-08-01_12h32.32.884,arrow_simon_norep,2021.1.2,Win32,59.41417622,,,,,,,,,,,,,,,,,,,,,w,1,1.5332,13,FALSE,FALSE,3,0,12,3,1,,,,,,,
,,,,,,0,2.08504261,#f3af84,,right_orange.png,p,,,,,,o,right_blue.png,right_orange.png,p,left,60ff1fabb65fe8b8cff50c59,001,2021-08-01_12h32.32.884,arrow_simon_norep,2021.1.2,Win32,59.41417622,,,,,,,,,,,,,,,,,,,,,p,1,1.5663,14,FALSE,FALSE,3,1,13,0,1,,,,,,,
,,,,,,0,2.369255132,#a3d0fb,,left_blue.png,w,,,,,,w,left_blue.png,left_orange.png,q,right,60ff1fabb65fe8b8cff50c59,001,2021-08-01_12h32.32.884,arrow_simon_norep,2021.1.2,Win32,59.41417622,,,,,,,,,,,,,,,,,,,,,o,0,1.701,15,TRUE,FALSE,3,2,14,3,1,,,,,,,
,,,,,,0,2.119638569,#f3af84,,right_orange.png,p,,,,,,o,right_blue.png,right_orange.png,p,left,60ff1fabb65fe8b8cff50c59,001,2021-08-01_12h32.32.884,arrow_simon_norep,2021.1.2,Win32,59.41417622,,,,,,,,,,,,,,,,,,,,,p,1,1.4999,16,FALSE,FALSE,3,3,15,0,1,,,,,,,
,,,,,,0,1.807698747,#a3d0fb,,right_blue.png,o,,,,,,o,right_blue.png,right_orange.png,p,left,60ff1fabb65fe8b8cff50c59,001,2021-08-01_12h32.32.884,arrow_simon_norep,2021.1.2,Win32,59.41417622,,,,,,,,,,,,,,,,,,,,,o,1,1.484,17,FALSE,FALSE,4,0,16,0,1,,,,,,,
,,,,,,0,2.142314866,#f3af84,,right_orange.png,p,,,,,,o,right_blue.png,right_orange.png,p,right,60ff1fabb65fe8b8cff50c59,001,2021-08-01_12h32.32.884,arrow_simon_norep,2021.1.2,Win32,59.41417622,,,,,,,,,,,,,,,,,,,,,p,1,1.6269,18,TRUE,FALSE,4,1,17,1,1,,,,,,,
,,,,,,0,2.408272779,#a3d0fb,,right_blue.png,o,,,,,,o,right_blue.png,right_orange.png,p,right,60ff1fabb65fe8b8cff50c59,001,2021-08-01_12h32.32.884,arrow_simon_norep,2021.1.2,Win32,59.41417622,,,,,,,,,,,,,,,,,,,,,o,1,1.6734,19,TRUE,FALSE,4,2,18,1,1,,,,,,,
,,,,,,0,1.562372006,#f3af84,,left_orange.png,q,,,,,,w,left_blue.png,left_orange.png,q,left,60ff1fabb65fe8b8cff50c59,001,2021-08-01_12h32.32.884,arrow_simon_norep,2021.1.2,Win32,59.41417622,,,,,,,,,,,,,,,,,,,,,q,1,1.4113,20,FALSE,FALSE,4,3,19,2,1,,,,,,,
,,,,,,0,1.900398071,#a3d0fb,,left_blue.png,w,,,,,,w,left_blue.png,left_orange.png,q,right,60ff1fabb65fe8b8cff50c59,001,2021-08-01_12h32.32.884,arrow_simon_norep,2021.1.2,Win32,59.41417622,,,,,,,,,,,,,,,,,,,,,w,1,1.5616,21,FALSE,FALSE,5,0,20,3,1,,,,,,,
,,,,,,0,1.553853307,#f3af84,,right_orange.png,p,,,,,,o,right_blue.png,right_orange.png,p,right,60ff1fabb65fe8b8cff50c59,001,2021-08-01_12h32.32.884,arrow_simon_norep,2021.1.2,Win32,59.41417622,,,,,,,,,,,,,,,,,,,,,p,1,1.316,22,FALSE,TRUE,5,1,21,1,1,,,,,,,
,,,,,,0,2.118272421,#a3d0fb,,right_blue.png,o,,,,,,o,right_blue.png,right_orange.png,p,right,60ff1fabb65fe8b8cff50c59,001,2021-08-01_12h32.32.884,arrow_simon_norep,2021.1.2,Win32,59.41417622,,,,,,,,,,,,,,,,,,,,,o,1,1.5767,23,FALSE,FALSE,5,2,22,1,1,,,,,,,
,,,,,,0,1.853176542,#f3af84,,left_orange.png,q,,,,,,w,left_blue.png,left_orange.png,q,right,60ff1fabb65fe8b8cff50c59,001,2021-08-01_12h32.32.884,arrow_simon_norep,2021.1.2,Win32,59.41417622,,,,,,,,,,,,,,,,,,,,,q,1,1.5226,24,FALSE,FALSE,5,3,23,3,1,,,,,,,
,,,,,,0,1.598573207,#a3d0fb,,left_blue.png,w,,,,,,w,left_blue.png,left_orange.png,q,left,60ff1fabb65fe8b8cff50c59,001,2021-08-01_12h32.32.884,arrow_simon_norep,2021.1.2,Win32,59.41417622,,,,,,,,,,,,,,,,,,,,,w,1,1.5165,25,FALSE,FALSE,6,0,24,2,1,,,,,,,
,,,,,,0,2.275068532,#f3af84,,left_orange.png,q,,,,,,w,left_blue.png,left_orange.png,q,right,60ff1fabb65fe8b8cff50c59,001,2021-08-01_12h32.32.884,arrow_simon_norep,2021.1.2,Win32,59.41417622,,,,,,,,,,,,,,,,,,,,,q,1,1.5929,26,FALSE,FALSE,6,1,25,3,1,,,,,,,
,,,,,,0,2.283663216,#a3d0fb,,left_blue.png,w,,,,,,w,left_blue.png,left_orange.png,q,right,60ff1fabb65fe8b8cff50c59,001,2021-08-01_12h32.32.884,arrow_simon_norep,2021.1.2,Win32,59.41417622,,,,,,,,,,,,,,,,,,,,,w,1,1.8162,27,TRUE,FALSE,6,2,26,3,1,,,,,,,
,,,,,,1,2.246175996,#f3af84,,left_orange.png,q,,,,,,w,left_blue.png,left_orange.png,q,left,60ff1fabb65fe8b8cff50c59,001,2021-08-01_12h32.32.884,arrow_simon_norep,2021.1.2,Win32,59.41417622,,,,,,,,,,,,,,,,,,,,,p,0,1.5735,28,FALSE,FALSE,6,3,27,2,1,,,,,,,
,,,,,,0,1.846715905,#a3d0fb,,right_blue.png,o,,,,,,o,right_blue.png,right_orange.png,p,left,60ff1fabb65fe8b8cff50c59,001,2021-08-01_12h32.32.884,arrow_simon_norep,2021.1.2,Win32,59.41417622,,,,,,,,,,,,,,,,,,,,,o,1,1.5204,29,FALSE,FALSE,7,0,28,0,1,,,,,,,
,,,,,,0,1.625052829,#f3af84,,left_orange.png,q,,,,,,w,left_blue.png,left_orange.png,q,left,60ff1fabb65fe8b8cff50c59,001,2021-08-01_12h32.32.884,arrow_simon_norep,2021.1.2,Win32,59.41417622,,,,,,,,,,,,,,,,,,,,,q,1,1.5002,30,FALSE,FALSE,7,1,29,2,1,,,,,,,
,,,,,,0,2.413465587,#a3d0fb,,right_blue.png,o,,,,,,o,right_blue.png,right_orange.png,p,right,60ff1fabb65fe8b8cff50c59,001,2021-08-01_12h32.32.884,arrow_simon_norep,2021.1.2,Win32,59.41417622,,,,,,,,,,,,,,,,,,,,,o,1,1.6508,31,TRUE,FALSE,7,2,30,1,1,,,,,,,
,,,,,,0,1.767239301,#f3af84,,left_orange.png,q,,,,,,w,left_blue.png,left_orange.png,q,left,60ff1fabb65fe8b8cff50c59,001,2021-08-01_12h32.32.884,arrow_simon_norep,2021.1.2,Win32,59.41417622,,,,,,,,,,,,,,,,,,,,,q,1,1.5498,32,FALSE,FALSE,7,3,31,2,1,,,,,,,
,,,,,,0,2.151578022,#a3d0fb,,right_blue.png,o,,,,,,o,right_blue.png,right_orange.png,p,right,60ff1fabb65fe8b8cff50c59,001,2021-08-01_12h32.32.884,arrow_simon_norep,2021.1.2,Win32,59.41417622,,,,,,,,,,,,,,,,,,,,,o,1,1.5405,33,FALSE,FALSE,8,0,32,1,1,,,,,,,
,,,,,,0,2.153294924,#f3af84,,left_orange.png,q,,,,,,w,left_blue.png,left_orange.png,q,right,60ff1fabb65fe8b8cff50c59,001,2021-08-01_12h32.32.884,arrow_simon_norep,2021.1.2,Win32,59.41417622,,,,,,,,,,,,,,,,,,,,,q,1,1.5013,34,FALSE,FALSE,8,1,33,3,1,,,,,,,
,,,,,,0,1.546532463,#a3d0fb,,right_blue.png,o,,,,,,o,right_blue.png,right_orange.png,p,left,60ff1fabb65fe8b8cff50c59,001,2021-08-01_12h32.32.884,arrow_simon_norep,2021.1.2,Win32,59.41417622,,,,,,,,,,,,,,,,,,,,,o,1,1.3611,35,FALSE,TRUE,8,2,34,0,1,,,,,,,
,,,,,,0,2.01606802,#f3af84,,right_orange.png,p,,,,,,o,right_blue.png,right_orange.png,p,right,60ff1fabb65fe8b8cff50c59,001,2021-08-01_12h32.32.884,arrow_simon_norep,2021.1.2,Win32,59.41417622,,,,,,,,,,,,,,,,,,,,,p,1,1.5362,36,FALSE,FALSE,8,3,35,1,1,,,,,,,
,,,,,,0,1.958227657,#a3d0fb,,left_blue.png,w,,,,,,w,left_blue.png,left_orange.png,q,left,60ff1fabb65fe8b8cff50c59,001,2021-08-01_12h32.32.884,arrow_simon_norep,2021.1.2,Win32,59.41417622,,,,,,,,,,,,,,,,,,,,,w,1,1.5347,37,FALSE,FALSE,9,0,36,2,1,,,,,,,
,,,,,,0,2.31128761,#f3af84,,right_orange.png,p,,,,,,o,right_blue.png,right_orange.png,p,right,60ff1fabb65fe8b8cff50c59,001,2021-08-01_12h32.32.884,arrow_simon_norep,2021.1.2,Win32,59.41417622,,,,,,,,,,,,,,,,,,,,,q,0,1.6704,38,TRUE,FALSE,9,1,37,1,1,,,,,,,
,,,,,,0,2.256993271,#a3d0fb,,right_blue.png,o,,,,,,o,right_blue.png,right_orange.png,p,left,60ff1fabb65fe8b8cff50c59,001,2021-08-01_12h32.32.884,arrow_simon_norep,2021.1.2,Win32,59.41417622,,,,,,,,,,,,,,,,,,,,,o,1,1.6196,39,TRUE,FALSE,9,2,38,0,1,,,,,,,
,,,,,,0,1.956061627,#f3af84,,left_orange.png,q,,,,,,w,left_blue.png,left_orange.png,q,right,60ff1fabb65fe8b8cff50c59,001,2021-08-01_12h32.32.884,arrow_simon_norep,2021.1.2,Win32,59.41417622,,,,,,,,,,,,,,,,,,,,,q,1,1.6276,40,TRUE,FALSE,9,3,39,3,1,,,,,,,
,,,,,,0,2.373288627,#a3d0fb,,right_blue.png,o,,,,,,o,right_blue.png,right_orange.png,p,left,60ff1fabb65fe8b8cff50c59,001,2021-08-01_12h32.32.884,arrow_simon_norep,2021.1.2,Win32,59.41417622,,,,,,,,,,,,,,,,,,,,,o,1,1.6163,41,TRUE,FALSE,10,0,40,0,1,,,,,,,
,,,,,,0,2.131142837,#f3af84,,right_orange.png,p,,,,,,o,right_blue.png,right_orange.png,p,right,60ff1fabb65fe8b8cff50c59,001,2021-08-01_12h32.32.884,arrow_simon_norep,2021.1.2,Win32,59.41417622,,,,,,,,,,,,,,,,,,,,,p,1,1.5699,42,FALSE,FALSE,10,1,41,1,1,,,,,,,
,,,,,,0,2.077787747,#a3d0fb,,left_blue.png,w,,,,,,w,left_blue.png,left_orange.png,q,left,60ff1fabb65fe8b8cff50c59,001,2021-08-01_12h32.32.884,arrow_simon_norep,2021.1.2,Win32,59.41417622,,,,,,,,,,,,,,,,,,,,,w,1,1.4932,43,FALSE,FALSE,10,2,42,2,1,,,,,,,
,,,,,,0,1.515131525,#f3af84,,right_orange.png,p,,,,,,o,right_blue.png,right_orange.png,p,left,60ff1fabb65fe8b8cff50c59,001,2021-08-01_12h32.32.884,arrow_simon_norep,2021.1.2,Win32,59.41417622,,,,,,,,,,,,,,,,,,,,,p,1,1.4083,44,FALSE,FALSE,10,3,43,0,1,,,,,,,
,,,,,,0,1.503857039,#a3d0fb,,left_blue.png,w,,,,,,w,left_blue.png,left_orange.png,q,left,60ff1fabb65fe8b8cff50c59,001,2021-08-01_12h32.32.884,arrow_simon_norep,2021.1.2,Win32,59.41417622,,,,,,,,,,,,,,,,,,,,,w,1,1.3376,45,FALSE,TRUE,11,0,44,2,1,,,,,,,
,,,,,,0,1.515012863,#f3af84,,right_orange.png,p,,,,,,o,right_blue.png,right_orange.png,p,left,60ff1fabb65fe8b8cff50c59,001,2021-08-01_12h32.32.884,arrow_simon_norep,2021.1.2,Win32,59.41417622,,,,,,,,,,,,,,,,,,,,,p,1,1.4272,46,FALSE,FALSE,11,1,45,0,1,,,,,,,
,,,,,,0,1.726528872,#a3d0fb,,left_blue.png,w,,,,,,w,left_blue.png,left_orange.png,q,right,60ff1fabb65fe8b8cff50c59,001,2021-08-01_12h32.32.884,arrow_simon_norep,2021.1.2,Win32,59.41417622,,,,,,,,,,,,,,,,,,,,,w,1,1.507,47,FALSE,FALSE,11,2,46,3,1,,,,,,,
,,,,,,0,1.616404129,#f3af84,,right_orange.png,p,,,,,,o,right_blue.png,right_orange.png,p,right,60ff1fabb65fe8b8cff50c59,001,2021-08-01_12h32.32.884,arrow_simon_norep,2021.1.2,Win32,59.41417622,,,,,,,,,,,,,,,,,,,,,p,1,1.507,48,FALSE,FALSE,11,3,47,1,1,,,,,,,
,,,,,,0,1.812234391,#a3d0fb,,right_blue.png,o,,,,,,o,right_blue.png,right_orange.png,p,right,60ff1fabb65fe8b8cff50c59,001,2021-08-01_12h32.32.884,arrow_simon_norep,2021.1.2,Win32,59.41417622,,,,,,,,,,,,,,,,,,,,,o,1,1.6011,49,TRUE,FALSE,12,0,48,1,1,,,,,,,
,,,,,,0,2.014743088,#f3af84,,left_orange.png,q,,,,,,w,left_blue.png,left_orange.png,q,right,60ff1fabb65fe8b8cff50c59,001,2021-08-01_12h32.32.884,arrow_simon_norep,2021.1.2,Win32,59.41417622,,,,,,,,,,,,,,,,,,,,,q,1,1.534,50,FALSE,FALSE,12,1,49,3,1,,,,,,,
,,,,,,0,2.030105212,#a3d0fb,,right_blue.png,o,,,,,,o,right_blue.png,right_orange.png,p,left,60ff1fabb65fe8b8cff50c59,001,2021-08-01_12h32.32.884,arrow_simon_norep,2021.1.2,Win32,59.41417622,,,,,,,,,,,,,,,,,,,,,o,1,1.3882,51,FALSE,TRUE,12,2,50,0,1,,,,,,,
,,,,,,0,2.460639144,#f3af84,,right_orange.png,p,,,,,,o,right_blue.png,right_orange.png,p,right,60ff1fabb65fe8b8cff50c59,001,2021-08-01_12h32.32.884,arrow_simon_norep,2021.1.2,Win32,59.41417622,,,,,,,,,,,,,,,,,,,,,q,0,1.7108,52,TRUE,FALSE,12,3,51,1,1,,,,,,,
,,,,,,0,2.49069009,#a3d0fb,,left_blue.png,w,,,,,,w,left_blue.png,left_orange.png,q,left,60ff1fabb65fe8b8cff50c59,001,2021-08-01_12h32.32.884,arrow_simon_norep,2021.1.2,Win32,59.41417622,,,,,,,,,,,,,,,,,,,,,o,0,1.6063,53,TRUE,FALSE,13,0,52,2,1,,,,,,,
,,,,,,0,2.450110588,#f3af84,,left_orange.png,q,,,,,,w,left_blue.png,left_orange.png,q,right,60ff1fabb65fe8b8cff50c59,001,2021-08-01_12h32.32.884,arrow_simon_norep,2021.1.2,Win32,59.41417622,,,,,,,,,,,,,,,,,,,,,p,0,1.7011,54,TRUE,FALSE,13,1,53,3,1,,,,,,,
,,,,,,0,1.696464348,#a3d0fb,,left_blue.png,w,,,,,,w,left_blue.png,left_orange.png,q,right,60ff1fabb65fe8b8cff50c59,001,2021-08-01_12h32.32.884,arrow_simon_norep,2021.1.2,Win32,59.41417622,,,,,,,,,,,,,,,,,,,,,w,1,1.5004,55,FALSE,FALSE,13,2,54,3,1,,,,,,,
,,,,,,0,1.591556526,#f3af84,,right_orange.png,p,,,,,,o,right_blue.png,right_orange.png,p,right,60ff1fabb65fe8b8cff50c59,001,2021-08-01_12h32.32.884,arrow_simon_norep,2021.1.2,Win32,59.41417622,,,,,,,,,,,,,,,,,,,,,p,1,1.5497,56,FALSE,FALSE,13,3,55,1,1,,,,,,,
,,,,,,0,2.143910818,#a3d0fb,,left_blue.png,w,,,,,,w,left_blue.png,left_orange.png,q,left,60ff1fabb65fe8b8cff50c59,001,2021-08-01_12h32.32.884,arrow_simon_norep,2021.1.2,Win32,59.41417622,,,,,,,,,,,,,,,,,,,,,w,1,1.5125,57,FALSE,FALSE,14,0,56,2,1,,,,,,,
,,,,,,0,1.816771922,#f3af84,,left_orange.png,q,,,,,,w,left_blue.png,left_orange.png,q,right,60ff1fabb65fe8b8cff50c59,001,2021-08-01_12h32.32.884,arrow_simon_norep,2021.1.2,Win32,59.41417622,,,,,,,,,,,,,,,,,,,,,q,1,1.5431,58,FALSE,FALSE,14,1,57,3,1,,,,,,,
,,,,,,0,2.398534857,#a3d0fb,,left_blue.png,w,,,,,,w,left_blue.png,left_orange.png,q,right,60ff1fabb65fe8b8cff50c59,001,2021-08-01_12h32.32.884,arrow_simon_norep,2021.1.2,Win32,59.41417622,,,,,,,,,,,,,,,,,,,,,o,0,1.6785,59,TRUE,FALSE,14,2,58,3,1,,,,,,,
,,,,,,0,1.911429682,#f3af84,,right_orange.png,p,,,,,,o,right_blue.png,right_orange.png,p,right,60ff1fabb65fe8b8cff50c59,001,2021-08-01_12h32.32.884,arrow_simon_norep,2021.1.2,Win32,59.41417622,,,,,,,,,,,,,,,,,,,,,p,1,1.5614,60,FALSE,FALSE,14,3,59,1,1,,,,,,,
,,,,,,,,,,,,,,,,,,,,,,60ff1fabb65fe8b8cff50c59,001,2021-08-01_12h32.32.884,arrow_simon_norep,2021.1.2,Win32,59.41417622,,,,,,,,,,,,,,,,,,,,,,,,,,,,,,,,space,53.2412,0,0,0,0,1
,,,,,,0,1.844259541,#a3d0fb,,left_blue.png,w,,,,,,w,left_blue.png,left_orange.png,q,left,60ff1fabb65fe8b8cff50c59,001,2021-08-01_12h32.32.884,arrow_simon_norep,2021.1.2,Win32,59.41417622,,,,,,,,,,,,,,,,,,,,,w,1,1.5547,1,FALSE,FALSE,0,0,0,2,1,,,,,,,
,,,,,,0,1.558171134,#f3af84,,left_orange.png,q,,,,,,w,left_blue.png,left_orange.png,q,left,60ff1fabb65fe8b8cff50c59,001,2021-08-01_12h32.32.884,arrow_simon_norep,2021.1.2,Win32,59.41417622,,,,,,,,,,,,,,,,,,,,,q,1,1.4592,2,FALSE,FALSE,0,1,1,2,1,,,,,,,
,,,,,,0,1.730242517,#a3d0fb,,left_blue.png,w,,,,,,w,left_blue.png,left_orange.png,q,left,60ff1fabb65fe8b8cff50c59,001,2021-08-01_12h32.32.884,arrow_simon_norep,2021.1.2,Win32,59.41417622,,,,,,,,,,,,,,,,,,,,,w,1,1.5164,3,FALSE,FALSE,0,2,2,2,1,,,,,,,
,,,,,,0,1.820031892,#f3af84,,right_orange.png,p,,,,,,o,right_blue.png,right_orange.png,p,left,60ff1fabb65fe8b8cff50c59,001,2021-08-01_12h32.32.884,arrow_simon_norep,2021.1.2,Win32,59.41417622,,,,,,,,,,,,,,,,,,,,,p,1,1.5282,4,FALSE,FALSE,0,3,3,0,1,,,,,,,
,,,,,,0,1.646578185,#a3d0fb,,left_blue.png,w,,,,,,w,left_blue.png,left_orange.png,q,right,60ff1fabb65fe8b8cff50c59,001,2021-08-01_12h32.32.884,arrow_simon_norep,2021.1.2,Win32,59.41417622,,,,,,,,,,,,,,,,,,,,,w,1,1.4939,5,FALSE,FALSE,1,0,4,3,1,,,,,,,
,,,,,,0,2.16798515,#f3af84,,left_orange.png,q,,,,,,w,left_blue.png,left_orange.png,q,left,60ff1fabb65fe8b8cff50c59,001,2021-08-01_12h32.32.884,arrow_simon_norep,2021.1.2,Win32,59.41417622,,,,,,,,,,,,,,,,,,,,,q,1,1.5093,6,FALSE,FALSE,1,1,5,2,1,,,,,,,
,,,,,,0,2.134448837,#a3d0fb,,right_blue.png,o,,,,,,o,right_blue.png,right_orange.png,p,left,60ff1fabb65fe8b8cff50c59,001,2021-08-01_12h32.32.884,arrow_simon_norep,2021.1.2,Win32,59.41417622,,,,,,,,,,,,,,,,,,,,,o,1,1.5238,7,FALSE,FALSE,1,2,6,0,1,,,,,,,
,,,,,,0,1.960111897,#f3af84,,left_orange.png,q,,,,,,w,left_blue.png,left_orange.png,q,left,60ff1fabb65fe8b8cff50c59,001,2021-08-01_12h32.32.884,arrow_simon_norep,2021.1.2,Win32,59.41417622,,,,,,,,,,,,,,,,,,,,,q,1,1.6334,8,TRUE,FALSE,1,3,7,2,1,,,,,,,
,,,,,,0,2.499016688,#a3d0fb,,right_blue.png,o,,,,,,o,right_blue.png,right_orange.png,p,left,60ff1fabb65fe8b8cff50c59,001,2021-08-01_12h32.32.884,arrow_simon_norep,2021.1.2,Win32,59.41417622,,,,,,,,,,,,,,,,,,,,,w,0,1.7829,9,TRUE,FALSE,2,0,8,0,1,,,,,,,
,,,,,,0,1.523242973,#f3af84,,left_orange.png,q,,,,,,w,left_blue.png,left_orange.png,q,left,60ff1fabb65fe8b8cff50c59,001,2021-08-01_12h32.32.884,arrow_simon_norep,2021.1.2,Win32,59.41417622,,,,,,,,,,,,,,,,,,,,,q,1,1.3929,10,FALSE,TRUE,2,1,9,2,1,,,,,,,
,,,,,,0,2.120612119,#a3d0fb,,right_blue.png,o,,,,,,o,right_blue.png,right_orange.png,p,right,60ff1fabb65fe8b8cff50c59,001,2021-08-01_12h32.32.884,arrow_simon_norep,2021.1.2,Win32,59.41417622,,,,,,,,,,,,,,,,,,,,,o,1,1.4767,11,FALSE,FALSE,2,2,10,1,1,,,,,,,
,,,,,,0,1.561216159,#f3af84,,left_orange.png,q,,,,,,w,left_blue.png,left_orange.png,q,left,60ff1fabb65fe8b8cff50c59,001,2021-08-01_12h32.32.884,arrow_simon_norep,2021.1.2,Win32,59.41417622,,,,,,,,,,,,,,,,,,,,,q,1,1.5247,12,FALSE,FALSE,2,3,11,2,1,,,,,,,
,,,,,,0,2.286899939,#a3d0fb,,right_blue.png,o,,,,,,o,right_blue.png,right_orange.png,p,right,60ff1fabb65fe8b8cff50c59,001,2021-08-01_12h32.32.884,arrow_simon_norep,2021.1.2,Win32,59.41417622,,,,,,,,,,,,,,,,,,,,,o,1,1.5881,13,FALSE,FALSE,3,0,12,1,1,,,,,,,
,,,,,,0,2.467649134,#f3af84,,right_orange.png,p,,,,,,o,right_blue.png,right_orange.png,p,right,60ff1fabb65fe8b8cff50c59,001,2021-08-01_12h32.32.884,arrow_simon_norep,2021.1.2,Win32,59.41417622,,,,,,,,,,,,,,,,,,,,,p,1,1.6837,14,TRUE,FALSE,3,1,13,1,1,,,,,,,
,,,,,,0,1.71677842,#a3d0fb,,right_blue.png,o,,,,,,o,right_blue.png,right_orange.png,p,right,60ff1fabb65fe8b8cff50c59,001,2021-08-01_12h32.32.884,arrow_simon_norep,2021.1.2,Win32,59.41417622,,,,,,,,,,,,,,,,,,,,,o,1,1.4663,15,FALSE,FALSE,3,2,14,1,1,,,,,,,
,,,,,,0,2.372756366,#f3af84,,right_orange.png,p,,,,,,o,right_blue.png,right_orange.png,p,right,60ff1fabb65fe8b8cff50c59,001,2021-08-01_12h32.32.884,arrow_simon_norep,2021.1.2,Win32,59.41417622,,,,,,,,,,,,,,,,,,,,,p,1,1.6591,16,TRUE,FALSE,3,3,15,1,1,,,,,,,
,,,,,,1,2.357867775,#a3d0fb,,left_blue.png,w,,,,,,w,left_blue.png,left_orange.png,q,right,60ff1fabb65fe8b8cff50c59,001,2021-08-01_12h32.32.884,arrow_simon_norep,2021.1.2,Win32,59.41417622,,,,,,,,,,,,,,,,,,,,,o,0,1.5329,17,FALSE,FALSE,4,0,16,3,1,,,,,,,
,,,,,,1,2.437155947,#f3af84,,right_orange.png,p,,,,,,o,right_blue.png,right_orange.png,p,left,60ff1fabb65fe8b8cff50c59,001,2021-08-01_12h32.32.884,arrow_simon_norep,2021.1.2,Win32,59.41417622,,,,,,,,,,,,,,,,,,,,,p,1,1.703,18,TRUE,FALSE,4,1,17,0,1,,,,,,,
,,,,,,0,1.816288408,#a3d0fb,,right_blue.png,o,,,,,,o,right_blue.png,right_orange.png,p,left,60ff1fabb65fe8b8cff50c59,001,2021-08-01_12h32.32.884,arrow_simon_norep,2021.1.2,Win32,59.41417622,,,,,,,,,,,,,,,,,,,,,o,1,1.57,19,FALSE,FALSE,4,2,18,0,1,,,,,,,
,,,,,,0,2.392656044,#f3af84,,right_orange.png,p,,,,,,o,right_blue.png,right_orange.png,p,right,60ff1fabb65fe8b8cff50c59,001,2021-08-01_12h32.32.884,arrow_simon_norep,2021.1.2,Win32,59.41417622,,,,,,,,,,,,,,,,,,,,,p,1,1.6333,20,TRUE,FALSE,4,3,19,1,1,,,,,,,
,,,,,,0,1.727513288,#a3d0fb,,left_blue.png,w,,,,,,w,left_blue.png,left_orange.png,q,left,60ff1fabb65fe8b8cff50c59,001,2021-08-01_12h32.32.884,arrow_simon_norep,2021.1.2,Win32,59.41417622,,,,,,,,,,,,,,,,,,,,,w,1,1.544,21,FALSE,FALSE,5,0,20,2,1,,,,,,,
,,,,,,0,2.274230208,#f3af84,,left_orange.png,q,,,,,,w,left_blue.png,left_orange.png,q,right,60ff1fabb65fe8b8cff50c59,001,2021-08-01_12h32.32.884,arrow_simon_norep,2021.1.2,Win32,59.41417622,,,,,,,,,,,,,,,,,,,,,q,1,1.6442,22,TRUE,FALSE,5,1,21,3,1,,,,,,,
,,,,,,0,2.362027591,#a3d0fb,,right_blue.png,o,,,,,,o,right_blue.png,right_orange.png,p,left,60ff1fabb65fe8b8cff50c59,001,2021-08-01_12h32.32.884,arrow_simon_norep,2021.1.2,Win32,59.41417622,,,,,,,,,,,,,,,,,,,,,o,1,1.5602,23,FALSE,FALSE,5,2,22,0,1,,,,,,,
,,,,,,0,1.590114055,#f3af84,,right_orange.png,p,,,,,,o,right_blue.png,right_orange.png,p,left,60ff1fabb65fe8b8cff50c59,001,2021-08-01_12h32.32.884,arrow_simon_norep,2021.1.2,Win32,59.41417622,,,,,,,,,,,,,,,,,,,,,p,1,1.5455,24,FALSE,FALSE,5,3,23,0,1,,,,,,,
,,,,,,1,2.24905667,#a3d0fb,,left_blue.png,w,,,,,,w,left_blue.png,left_orange.png,q,right,60ff1fabb65fe8b8cff50c59,001,2021-08-01_12h32.32.884,arrow_simon_norep,2021.1.2,Win32,59.41417622,,,,,,,,,,,,,,,,,,,,,o,0,1.5564,25,FALSE,FALSE,6,0,24,3,1,,,,,,,
,,,,,,0,1.808872853,#f3af84,,right_orange.png,p,,,,,,o,right_blue.png,right_orange.png,p,left,60ff1fabb65fe8b8cff50c59,001,2021-08-01_12h32.32.884,arrow_simon_norep,2021.1.2,Win32,59.41417622,,,,,,,,,,,,,,,,,,,,,p,1,1.554,26,FALSE,FALSE,6,1,25,0,1,,,,,,,
,,,,,,0,2.095861927,#a3d0fb,,left_blue.png,w,,,,,,w,left_blue.png,left_orange.png,q,left,60ff1fabb65fe8b8cff50c59,001,2021-08-01_12h32.32.884,arrow_simon_norep,2021.1.2,Win32,59.41417622,,,,,,,,,,,,,,,,,,,,,w,1,1.5521,27,FALSE,FALSE,6,2,26,2,1,,,,,,,
,,,,,,0,2.273886553,#f3af84,,right_orange.png,p,,,,,,o,right_blue.png,right_orange.png,p,left,60ff1fabb65fe8b8cff50c59,001,2021-08-01_12h32.32.884,arrow_simon_norep,2021.1.2,Win32,59.41417622,,,,,,,,,,,,,,,,,,,,,p,1,1.5549,28,FALSE,FALSE,6,3,27,0,1,,,,,,,
,,,,,,0,2.356649723,#a3d0fb,,left_blue.png,w,,,,,,w,left_blue.png,left_orange.png,q,left,60ff1fabb65fe8b8cff50c59,001,2021-08-01_12h32.32.884,arrow_simon_norep,2021.1.2,Win32,59.41417622,,,,,,,,,,,,,,,,,,,,,w,1,1.5998,29,FALSE,FALSE,7,0,28,2,1,,,,,,,
,,,,,,0,1.73412324,#f3af84,,left_orange.png,q,,,,,,w,left_blue.png,left_orange.png,q,right,60ff1fabb65fe8b8cff50c59,001,2021-08-01_12h32.32.884,arrow_simon_norep,2021.1.2,Win32,59.41417622,,,,,,,,,,,,,,,,,,,,,q,1,1.5445,30,FALSE,FALSE,7,1,29,3,1,,,,,,,
,,,,,,0,1.977644699,#a3d0fb,,left_blue.png,w,,,,,,w,left_blue.png,left_orange.png,q,left,60ff1fabb65fe8b8cff50c59,001,2021-08-01_12h32.32.884,arrow_simon_norep,2021.1.2,Win32,59.41417622,,,,,,,,,,,,,,,,,,,,,w,1,1.5534,31,FALSE,FALSE,7,2,30,2,1,,,,,,,
,,,,,,0,1.59582521,#f3af84,,right_orange.png,p,,,,,,o,right_blue.png,right_orange.png,p,left,60ff1fabb65fe8b8cff50c59,001,2021-08-01_12h32.32.884,arrow_simon_norep,2021.1.2,Win32,59.41417622,,,,,,,,,,,,,,,,,,,,,p,1,1.4894,32,FALSE,FALSE,7,3,31,0,1,,,,,,,
,,,,,,0,2.418581136,#a3d0fb,,right_blue.png,o,,,,,,o,right_blue.png,right_orange.png,p,right,60ff1fabb65fe8b8cff50c59,001,2021-08-01_12h32.32.884,arrow_simon_norep,2021.1.2,Win32,59.41417622,,,,,,,,,,,,,,,,,,,,,o,1,1.5859,33,FALSE,FALSE,8,0,32,1,1,,,,,,,
,,,,,,0,1.679702431,#f3af84,,right_orange.png,p,,,,,,o,right_blue.png,right_orange.png,p,left,60ff1fabb65fe8b8cff50c59,001,2021-08-01_12h32.32.884,arrow_simon_norep,2021.1.2,Win32,59.41417622,,,,,,,,,,,,,,,,,,,,,p,1,1.5106,34,FALSE,FALSE,8,1,33,0,1,,,,,,,
,,,,,,0,2.096000746,#a3d0fb,,left_blue.png,w,,,,,,w,left_blue.png,left_orange.png,q,right,60ff1fabb65fe8b8cff50c59,001,2021-08-01_12h32.32.884,arrow_simon_norep,2021.1.2,Win32,59.41417622,,,,,,,,,,,,,,,,,,,,,w,1,1.4261,35,FALSE,FALSE,8,2,34,3,1,,,,,,,
,,,,,,0,2.111960371,#f3af84,,left_orange.png,q,,,,,,w,left_blue.png,left_orange.png,q,right,60ff1fabb65fe8b8cff50c59,001,2021-08-01_12h32.32.884,arrow_simon_norep,2021.1.2,Win32,59.41417622,,,,,,,,,,,,,,,,,,,,,q,1,1.6778,36,TRUE,FALSE,8,3,35,3,1,,,,,,,
,,,,,,0,2.118013263,#a3d0fb,,right_blue.png,o,,,,,,o,right_blue.png,right_orange.png,p,right,60ff1fabb65fe8b8cff50c59,001,2021-08-01_12h32.32.884,arrow_simon_norep,2021.1.2,Win32,59.41417622,,,,,,,,,,,,,,,,,,,,,o,1,1.4729,37,FALSE,FALSE,9,0,36,1,1,,,,,,,
,,,,,,0,1.661080308,#f3af84,,right_orange.png,p,,,,,,o,right_blue.png,right_orange.png,p,right,60ff1fabb65fe8b8cff50c59,001,2021-08-01_12h32.32.884,arrow_simon_norep,2021.1.2,Win32,59.41417622,,,,,,,,,,,,,,,,,,,,,p,1,1.4667,38,FALSE,FALSE,9,1,37,1,1,,,,,,,
,,,,,,1,2.253578451,#a3d0fb,,left_blue.png,w,,,,,,w,left_blue.png,left_orange.png,q,right,60ff1fabb65fe8b8cff50c59,001,2021-08-01_12h32.32.884,arrow_simon_norep,2021.1.2,Win32,59.41417622,,,,,,,,,,,,,,,,,,,,,o,0,1.5962,39,FALSE,FALSE,9,2,38,3,1,,,,,,,
,,,,,,0,2.204333743,#f3af84,,right_orange.png,p,,,,,,o,right_blue.png,right_orange.png,p,left,60ff1fabb65fe8b8cff50c59,001,2021-08-01_12h32.32.884,arrow_simon_norep,2021.1.2,Win32,59.41417622,,,,,,,,,,,,,,,,,,,,,p,1,1.5668,40,FALSE,FALSE,9,3,39,0,1,,,,,,,
,,,,,,0,1.759985609,#a3d0fb,,left_blue.png,w,,,,,,w,left_blue.png,left_orange.png,q,right,60ff1fabb65fe8b8cff50c59,001,2021-08-01_12h32.32.884,arrow_simon_norep,2021.1.2,Win32,59.41417622,,,,,,,,,,,,,,,,,,,,,w,1,1.5668,41,FALSE,FALSE,10,0,40,3,1,,,,,,,
,,,,,,0,2.410845374,#f3af84,,left_orange.png,q,,,,,,w,left_blue.png,left_orange.png,q,right,60ff1fabb65fe8b8cff50c59,001,2021-08-01_12h32.32.884,arrow_simon_norep,2021.1.2,Win32,59.41417622,,,,,,,,,,,,,,,,,,,,,p,0,1.7004,42,TRUE,FALSE,10,1,41,3,1,,,,,,,
,,,,,,0,1.750215116,#a3d0fb,,left_blue.png,w,,,,,,w,left_blue.png,left_orange.png,q,left,60ff1fabb65fe8b8cff50c59,001,2021-08-01_12h32.32.884,arrow_simon_norep,2021.1.2,Win32,59.41417622,,,,,,,,,,,,,,,,,,,,,w,1,1.5229,43,FALSE,FALSE,10,2,42,2,1,,,,,,,
,,,,,,0,1.955038234,#f3af84,,right_orange.png,p,,,,,,o,right_blue.png,right_orange.png,p,right,60ff1fabb65fe8b8cff50c59,001,2021-08-01_12h32.32.884,arrow_simon_norep,2021.1.2,Win32,59.41417622,,,,,,,,,,,,,,,,,,,,,p,1,1.6008,44,TRUE,FALSE,10,3,43,1,1,,,,,,,
,,,,,,0,1.826114579,#a3d0fb,,left_blue.png,w,,,,,,w,left_blue.png,left_orange.png,q,right,60ff1fabb65fe8b8cff50c59,001,2021-08-01_12h32.32.884,arrow_simon_norep,2021.1.2,Win32,59.41417622,,,,,,,,,,,,,,,,,,,,,w,1,1.5024,45,FALSE,FALSE,11,0,44,3,1,,,,,,,
,,,,,,0,2.349770651,#f3af84,,left_orange.png,q,,,,,,w,left_blue.png,left_orange.png,q,right,60ff1fabb65fe8b8cff50c59,001,2021-08-01_12h32.32.884,arrow_simon_norep,2021.1.2,Win32,59.41417622,,,,,,,,,,,,,,,,,,,,,q,1,1.5369,46,FALSE,FALSE,11,1,45,3,1,,,,,,,
,,,,,,0,1.681505747,#a3d0fb,,left_blue.png,w,,,,,,w,left_blue.png,left_orange.png,q,right,60ff1fabb65fe8b8cff50c59,001,2021-08-01_12h32.32.884,arrow_simon_norep,2021.1.2,Win32,59.41417622,,,,,,,,,,,,,,,,,,,,,w,1,1.542,47,FALSE,FALSE,11,2,46,3,1,,,,,,,
,,,,,,0,1.707256368,#f3af84,,left_orange.png,q,,,,,,w,left_blue.png,left_orange.png,q,right,60ff1fabb65fe8b8cff50c59,001,2021-08-01_12h32.32.884,arrow_simon_norep,2021.1.2,Win32,59.41417622,,,,,,,,,,,,,,,,,,,,,q,1,1.5336,48,FALSE,FALSE,11,3,47,3,1,,,,,,,
,,,,,,0,2.125586235,#a3d0fb,,right_blue.png,o,,,,,,o,right_blue.png,right_orange.png,p,left,60ff1fabb65fe8b8cff50c59,001,2021-08-01_12h32.32.884,arrow_simon_norep,2021.1.2,Win32,59.41417622,,,,,,,,,,,,,,,,,,,,,o,1,1.5553,49,FALSE,FALSE,12,0,48,0,1,,,,,,,
,,,,,,0,2.260029685,#f3af84,,left_orange.png,q,,,,,,w,left_blue.png,left_orange.png,q,left,60ff1fabb65fe8b8cff50c59,001,2021-08-01_12h32.32.884,arrow_simon_norep,2021.1.2,Win32,59.41417622,,,,,,,,,,,,,,,,,,,,,q,1,1.5247,50,FALSE,FALSE,12,1,49,2,1,,,,,,,
,,,,,,0,1.988785924,#a3d0fb,,right_blue.png,o,,,,,,o,right_blue.png,right_orange.png,p,left,60ff1fabb65fe8b8cff50c59,001,2021-08-01_12h32.32.884,arrow_simon_norep,2021.1.2,Win32,59.41417622,,,,,,,,,,,,,,,,,,,,,o,1,1.5383,51,FALSE,FALSE,12,2,50,0,1,,,,,,,
,,,,,,0,1.758554287,#f3af84,,right_orange.png,p,,,,,,o,right_blue.png,right_orange.png,p,right,60ff1fabb65fe8b8cff50c59,001,2021-08-01_12h32.32.884,arrow_simon_norep,2021.1.2,Win32,59.41417622,,,,,,,,,,,,,,,,,,,,,p,1,1.5011,52,FALSE,FALSE,12,3,51,1,1,,,,,,,
,,,,,,0,1.654450733,#a3d0fb,,left_blue.png,w,,,,,,w,left_blue.png,left_orange.png,q,right,60ff1fabb65fe8b8cff50c59,001,2021-08-01_12h32.32.884,arrow_simon_norep,2021.1.2,Win32,59.41417622,,,,,,,,,,,,,,,,,,,,,w,1,1.5344,53,FALSE,FALSE,13,0,52,3,1,,,,,,,
,,,,,,0,1.725948122,#f3af84,,right_orange.png,p,,,,,,o,right_blue.png,right_orange.png,p,left,60ff1fabb65fe8b8cff50c59,001,2021-08-01_12h32.32.884,arrow_simon_norep,2021.1.2,Win32,59.41417622,,,,,,,,,,,,,,,,,,,,,p,1,1.534,54,FALSE,FALSE,13,1,53,0,1,,,,,,,
,,,,,,0,1.905333618,#a3d0fb,,right_blue.png,o,,,,,,o,right_blue.png,right_orange.png,p,right,60ff1fabb65fe8b8cff50c59,001,2021-08-01_12h32.32.884,arrow_simon_norep,2021.1.2,Win32,59.41417622,,,,,,,,,,,,,,,,,,,,,o,1,1.6029,55,TRUE,FALSE,13,2,54,1,1,,,,,,,
,,,,,,0,2.439889734,#f3af84,,left_orange.png,q,,,,,,w,left_blue.png,left_orange.png,q,left,60ff1fabb65fe8b8cff50c59,001,2021-08-01_12h32.32.884,arrow_simon_norep,2021.1.2,Win32,59.41417622,,,,,,,,,,,,,,,,,,,,,q,1,1.6111,56,TRUE,FALSE,13,3,55,2,1,,,,,,,
,,,,,,0,1.595452038,#a3d0fb,,right_blue.png,o,,,,,,o,right_blue.png,right_orange.png,p,right,60ff1fabb65fe8b8cff50c59,001,2021-08-01_12h32.32.884,arrow_simon_norep,2021.1.2,Win32,59.41417622,,,,,,,,,,,,,,,,,,,,,o,1,1.4046,57,FALSE,FALSE,14,0,56,1,1,,,,,,,
,,,,,,0,1.669012072,#f3af84,,right_orange.png,p,,,,,,o,right_blue.png,right_orange.png,p,right,60ff1fabb65fe8b8cff50c59,001,2021-08-01_12h32.32.884,arrow_simon_norep,2021.1.2,Win32,59.41417622,,,,,,,,,,,,,,,,,,,,,p,1,1.5332,58,FALSE,FALSE,14,1,57,1,1,,,,,,,
,,,,,,0,2.32130858,#a3d0fb,,left_blue.png,w,,,,,,w,left_blue.png,left_orange.png,q,left,60ff1fabb65fe8b8cff50c59,001,2021-08-01_12h32.32.884,arrow_simon_norep,2021.1.2,Win32,59.41417622,,,,,,,,,,,,,,,,,,,,,w,1,1.5234,59,FALSE,FALSE,14,2,58,2,1,,,,,,,
,,,,,,0,1.81696112,#f3af84,,right_orange.png,p,,,,,,o,right_blue.png,right_orange.png,p,right,60ff1fabb65fe8b8cff50c59,001,2021-08-01_12h32.32.884,arrow_simon_norep,2021.1.2,Win32,59.41417622,,,,,,,,,,,,,,,,,,,,,p,1,1.5,60,FALSE,FALSE,14,3,59,1,1,,,,,,,
,,,,,,,,,,,,,,,,,,,,,,60ff1fabb65fe8b8cff50c59,001,2021-08-01_12h32.32.884,arrow_simon_norep,2021.1.2,Win32,59.41417622,,,,,,,,,,,,,,,,,,,,,,,,,,,,,,,,space,99.719,1,0,1,0,1
,,,,,,0,1.70569775,#a3d0fb,,right_blue.png,o,,,,,,o,right_blue.png,right_orange.png,p,left,60ff1fabb65fe8b8cff50c59,001,2021-08-01_12h32.32.884,arrow_simon_norep,2021.1.2,Win32,59.41417622,,,,,,,,,,,,,,,,,,,,,o,1,1.4869,1,FALSE,FALSE,0,0,0,0,1,,,,,,,
,,,,,,0,1.652943588,#f3af84,,right_orange.png,p,,,,,,o,right_blue.png,right_orange.png,p,right,60ff1fabb65fe8b8cff50c59,001,2021-08-01_12h32.32.884,arrow_simon_norep,2021.1.2,Win32,59.41417622,,,,,,,,,,,,,,,,,,,,,p,1,1.4667,2,FALSE,FALSE,0,1,1,1,1,,,,,,,
,,,,,,1,2.145256417,#a3d0fb,,right_blue.png,o,,,,,,o,right_blue.png,right_orange.png,p,left,60ff1fabb65fe8b8cff50c59,001,2021-08-01_12h32.32.884,arrow_simon_norep,2021.1.2,Win32,59.41417622,,,,,,,,,,,,,,,,,,,,,w,0,1.4162,3,FALSE,FALSE,0,2,2,0,1,,,,,,,
,,,,,,0,1.933609165,#f3af84,,left_orange.png,q,,,,,,w,left_blue.png,left_orange.png,q,left,60ff1fabb65fe8b8cff50c59,001,2021-08-01_12h32.32.884,arrow_simon_norep,2021.1.2,Win32,59.41417622,,,,,,,,,,,,,,,,,,,,,q,1,1.5229,4,FALSE,FALSE,0,3,3,2,1,,,,,,,
,,,,,,0,1.827406039,#a3d0fb,,right_blue.png,o,,,,,,o,right_blue.png,right_orange.png,p,right,60ff1fabb65fe8b8cff50c59,001,2021-08-01_12h32.32.884,arrow_simon_norep,2021.1.2,Win32,59.41417622,,,,,,,,,,,,,,,,,,,,,o,1,1.5168,5,FALSE,FALSE,1,0,4,1,1,,,,,,,
,,,,,,0,1.61991509,#f3af84,,left_orange.png,q,,,,,,w,left_blue.png,left_orange.png,q,right,60ff1fabb65fe8b8cff50c59,001,2021-08-01_12h32.32.884,arrow_simon_norep,2021.1.2,Win32,59.41417622,,,,,,,,,,,,,,,,,,,,,q,1,1.4438,6,FALSE,FALSE,1,1,5,3,1,,,,,,,
,,,,,,0,2.20416121,#a3d0fb,,right_blue.png,o,,,,,,o,right_blue.png,right_orange.png,p,right,60ff1fabb65fe8b8cff50c59,001,2021-08-01_12h32.32.884,arrow_simon_norep,2021.1.2,Win32,59.41417622,,,,,,,,,,,,,,,,,,,,,o,1,1.4835,7,FALSE,FALSE,1,2,6,1,1,,,,,,,
,,,,,,0,1.989043018,#f3af84,,left_orange.png,q,,,,,,w,left_blue.png,left_orange.png,q,left,60ff1fabb65fe8b8cff50c59,001,2021-08-01_12h32.32.884,arrow_simon_norep,2021.1.2,Win32,59.41417622,,,,,,,,,,,,,,,,,,,,,q,1,1.5092,8,FALSE,FALSE,1,3,7,2,1,,,,,,,
,,,,,,0,1.678893258,#a3d0fb,,right_blue.png,o,,,,,,o,right_blue.png,right_orange.png,p,left,60ff1fabb65fe8b8cff50c59,001,2021-08-01_12h32.32.884,arrow_simon_norep,2021.1.2,Win32,59.41417622,,,,,,,,,,,,,,,,,,,,,o,1,1.4944,9,FALSE,FALSE,2,0,8,0,1,,,,,,,
,,,,,,0,2.377076746,#f3af84,,right_orange.png,p,,,,,,o,right_blue.png,right_orange.png,p,left,60ff1fabb65fe8b8cff50c59,001,2021-08-01_12h32.32.884,arrow_simon_norep,2021.1.2,Win32,59.41417622,,,,,,,,,,,,,,,,,,,,,q,0,1.6575,10,TRUE,FALSE,2,1,9,0,1,,,,,,,
,,,,,,0,1.550701195,#a3d0fb,,left_blue.png,w,,,,,,w,left_blue.png,left_orange.png,q,left,60ff1fabb65fe8b8cff50c59,001,2021-08-01_12h32.32.884,arrow_simon_norep,2021.1.2,Win32,59.41417622,,,,,,,,,,,,,,,,,,,,,w,1,1.4167,11,FALSE,FALSE,2,2,10,2,1,,,,,,,
,,,,,,1,2.388192049,#f3af84,,left_orange.png,q,,,,,,w,left_blue.png,left_orange.png,q,right,60ff1fabb65fe8b8cff50c59,001,2021-08-01_12h32.32.884,arrow_simon_norep,2021.1.2,Win32,59.41417622,,,,,,,,,,,,,,,,,,,,,p,0,1.5574,12,FALSE,FALSE,2,3,11,3,1,,,,,,,
,,,,,,0,2.403932143,#a3d0fb,,right_blue.png,o,,,,,,o,right_blue.png,right_orange.png,p,left,60ff1fabb65fe8b8cff50c59,001,2021-08-01_12h32.32.884,arrow_simon_norep,2021.1.2,Win32,59.41417622,,,,,,,,,,,,,,,,,,,,,o,1,1.5835,13,FALSE,FALSE,3,0,12,0,1,,,,,,,
,,,,,,0,2.365444451,#f3af84,,left_orange.png,q,,,,,,w,left_blue.png,left_orange.png,q,left,60ff1fabb65fe8b8cff50c59,001,2021-08-01_12h32.32.884,arrow_simon_norep,2021.1.2,Win32,59.41417622,,,,,,,,,,,,,,,,,,,,,q,1,1.542,14,FALSE,FALSE,3,1,13,2,1,,,,,,,
,,,,,,0,2.034149089,#a3d0fb,,right_blue.png,o,,,,,,o,right_blue.png,right_orange.png,p,right,60ff1fabb65fe8b8cff50c59,001,2021-08-01_12h32.32.884,arrow_simon_norep,2021.1.2,Win32,59.41417622,,,,,,,,,,,,,,,,,,,,,o,1,1.5039,15,FALSE,FALSE,3,2,14,1,1,,,,,,,
,,,,,,0,2.465854284,#f3af84,,left_orange.png,q,,,,,,w,left_blue.png,left_orange.png,q,left,60ff1fabb65fe8b8cff50c59,001,2021-08-01_12h32.32.884,arrow_simon_norep,2021.1.2,Win32,59.41417622,,,,,,,,,,,,,,,,,,,,,q,1,1.5837,16,FALSE,FALSE,3,3,15,2,1,,,,,,,
,,,,,,0,1.971281754,#a3d0fb,,left_blue.png,w,,,,,,w,left_blue.png,left_orange.png,q,right,60ff1fabb65fe8b8cff50c59,001,2021-08-01_12h32.32.884,arrow_simon_norep,2021.1.2,Win32,59.41417622,,,,,,,,,,,,,,,,,,,,,w,1,1.5174,17,FALSE,FALSE,4,0,16,3,1,,,,,,,
,,,,,,0,2.386193678,#f3af84,,right_orange.png,p,,,,,,o,right_blue.png,right_orange.png,p,right,60ff1fabb65fe8b8cff50c59,001,2021-08-01_12h32.32.884,arrow_simon_norep,2021.1.2,Win32,59.41417622,,,,,,,,,,,,,,,,,,,,,p,1,1.6836,18,TRUE,FALSE,4,1,17,1,1,,,,,,,
,,,,,,0,2.160339835,#a3d0fb,,right_blue.png,o,,,,,,o,right_blue.png,right_orange.png,p,right,60ff1fabb65fe8b8cff50c59,001,2021-08-01_12h32.32.884,arrow_simon_norep,2021.1.2,Win32,59.41417622,,,,,,,,,,,,,,,,,,,,,o,1,1.4878,19,FALSE,FALSE,4,2,18,1,1,,,,,,,
,,,,,,0,1.799919722,#f3af84,,right_orange.png,p,,,,,,o,right_blue.png,right_orange.png,p,left,60ff1fabb65fe8b8cff50c59,001,2021-08-01_12h32.32.884,arrow_simon_norep,2021.1.2,Win32,59.41417622,,,,,,,,,,,,,,,,,,,,,p,1,1.5166,20,FALSE,FALSE,4,3,19,0,1,,,,,,,
,,,,,,0,1.709892886,#a3d0fb,,left_blue.png,w,,,,,,w,left_blue.png,left_orange.png,q,left,60ff1fabb65fe8b8cff50c59,001,2021-08-01_12h32.32.884,arrow_simon_norep,2021.1.2,Win32,59.41417622,,,,,,,,,,,,,,,,,,,,,w,1,1.4731,21,FALSE,FALSE,5,0,20,2,1,,,,,,,
,,,,,,0,1.674713843,#f3af84,,right_orange.png,p,,,,,,o,right_blue.png,right_orange.png,p,left,60ff1fabb65fe8b8cff50c59,001,2021-08-01_12h32.32.884,arrow_simon_norep,2021.1.2,Win32,59.41417622,,,,,,,,,,,,,,,,,,,,,p,1,1.5335,22,FALSE,FALSE,5,1,21,0,1,,,,,,,
,,,,,,0,2.234379792,#a3d0fb,,right_blue.png,o,,,,,,o,right_blue.png,right_orange.png,p,right,60ff1fabb65fe8b8cff50c59,001,2021-08-01_12h32.32.884,arrow_simon_norep,2021.1.2,Win32,59.41417622,,,,,,,,,,,,,,,,,,,,,o,1,1.518,23,FALSE,FALSE,5,2,22,1,1,,,,,,,
,,,,,,0,2.140532428,#f3af84,,left_orange.png,q,,,,,,w,left_blue.png,left_orange.png,q,right,60ff1fabb65fe8b8cff50c59,001,2021-08-01_12h32.32.884,arrow_simon_norep,2021.1.2,Win32,59.41417622,,,,,,,,,,,,,,,,,,,,,q,1,1.5234,24,FALSE,FALSE,5,3,23,3,1,,,,,,,
,,,,,,0,1.617649919,#a3d0fb,,right_blue.png,o,,,,,,o,right_blue.png,right_orange.png,p,left,60ff1fabb65fe8b8cff50c59,001,2021-08-01_12h32.32.884,arrow_simon_norep,2021.1.2,Win32,59.41417622,,,,,,,,,,,,,,,,,,,,,o,1,1.4193,25,FALSE,FALSE,6,0,24,0,1,,,,,,,
,,,,,,1,2.218693607,#f3af84,,left_orange.png,q,,,,,,w,left_blue.png,left_orange.png,q,right,60ff1fabb65fe8b8cff50c59,001,2021-08-01_12h32.32.884,arrow_simon_norep,2021.1.2,Win32,59.41417622,,,,,,,,,,,,,,,,,,,,,p,0,1.4908,26,FALSE,FALSE,6,1,25,3,1,,,,,,,
,,,,,,1,2.035068459,#a3d0fb,,right_blue.png,o,,,,,,o,right_blue.png,right_orange.png,p,right,60ff1fabb65fe8b8cff50c59,001,2021-08-01_12h32.32.884,arrow_simon_norep,2021.1.2,Win32,59.41417622,,,,,,,,,,,,,,,,,,,,,w,0,1.3497,27,FALSE,TRUE,6,2,26,1,1,,,,,,,
,,,,,,1,2.432110175,#f3af84,,left_orange.png,q,,,,,,w,left_blue.png,left_orange.png,q,right,60ff1fabb65fe8b8cff50c59,001,2021-08-01_12h32.32.884,arrow_simon_norep,2021.1.2,Win32,59.41417622,,,,,,,,,,,,,,,,,,,,,q,1,1.6047,28,TRUE,FALSE,6,3,27,3,1,,,,,,,
,,,,,,0,2.492267963,#a3d0fb,,right_blue.png,o,,,,,,o,right_blue.png,right_orange.png,p,left,60ff1fabb65fe8b8cff50c59,001,2021-08-01_12h32.32.884,arrow_simon_norep,2021.1.2,Win32,59.41417622,,,,,,,,,,,,,,,,,,,,,o,1,1.5623,29,FALSE,FALSE,7,0,28,0,1,,,,,,,
,,,,,,0,1.668600698,#f3af84,,left_orange.png,q,,,,,,w,left_blue.png,left_orange.png,q,right,60ff1fabb65fe8b8cff50c59,001,2021-08-01_12h32.32.884,arrow_simon_norep,2021.1.2,Win32,59.41417622,,,,,,,,,,,,,,,,,,,,,q,1,1.522,30,FALSE,FALSE,7,1,29,3,1,,,,,,,
,,,,,,0,2.276072042,#a3d0fb,,left_blue.png,w,,,,,,w,left_blue.png,left_orange.png,q,right,60ff1fabb65fe8b8cff50c59,001,2021-08-01_12h32.32.884,arrow_simon_norep,2021.1.2,Win32,59.41417622,,,,,,,,,,,,,,,,,,,,,w,1,1.7072,31,TRUE,FALSE,7,2,30,3,1,,,,,,,
,,,,,,0,1.615677763,#f3af84,,right_orange.png,p,,,,,,o,right_blue.png,right_orange.png,p,right,60ff1fabb65fe8b8cff50c59,001,2021-08-01_12h32.32.884,arrow_simon_norep,2021.1.2,Win32,59.41417622,,,,,,,,,,,,,,,,,,,,,p,1,1.5403,32,FALSE,FALSE,7,3,31,1,1,,,,,,,
,,,,,,1,2.189247622,#a3d0fb,,left_blue.png,w,,,,,,w,left_blue.png,left_orange.png,q,left,60ff1fabb65fe8b8cff50c59,001,2021-08-01_12h32.32.884,arrow_simon_norep,2021.1.2,Win32,59.41417622,,,,,,,,,,,,,,,,,,,,,o,0,1.4459,33,FALSE,FALSE,8,0,32,2,1,,,,,,,
,,,,,,0,1.930459497,#f3af84,,left_orange.png,q,,,,,,w,left_blue.png,left_orange.png,q,left,60ff1fabb65fe8b8cff50c59,001,2021-08-01_12h32.32.884,arrow_simon_norep,2021.1.2,Win32,59.41417622,,,,,,,,,,,,,,,,,,,,,q,1,1.5769,34,FALSE,FALSE,8,1,33,2,1,,,,,,,
,,,,,,0,2.003399385,#a3d0fb,,right_blue.png,o,,,,,,o,right_blue.png,right_orange.png,p,left,60ff1fabb65fe8b8cff50c59,001,2021-08-01_12h32.32.884,arrow_simon_norep,2021.1.2,Win32,59.41417622,,,,,,,,,,,,,,,,,,,,,o,1,1.3369,35,FALSE,TRUE,8,2,34,0,1,,,,,,,
,,,,,,0,1.772409821,#f3af84,,left_orange.png,q,,,,,,w,left_blue.png,left_orange.png,q,right,60ff1fabb65fe8b8cff50c59,001,2021-08-01_12h32.32.884,arrow_simon_norep,2021.1.2,Win32,59.41417622,,,,,,,,,,,,,,,,,,,,,q,1,1.4555,36,FALSE,FALSE,8,3,35,3,1,,,,,,,
,,,,,,0,1.99690688,#a3d0fb,,left_blue.png,w,,,,,,w,left_blue.png,left_orange.png,q,left,60ff1fabb65fe8b8cff50c59,001,2021-08-01_12h32.32.884,arrow_simon_norep,2021.1.2,Win32,59.41417622,,,,,,,,,,,,,,,,,,,,,w,1,1.528,37,FALSE,FALSE,9,0,36,2,1,,,,,,,
,,,,,,0,2.163344371,#f3af84,,right_orange.png,p,,,,,,o,right_blue.png,right_orange.png,p,right,60ff1fabb65fe8b8cff50c59,001,2021-08-01_12h32.32.884,arrow_simon_norep,2021.1.2,Win32,59.41417622,,,,,,,,,,,,,,,,,,,,,p,1,1.4497,38,FALSE,FALSE,9,1,37,1,1,,,,,,,
,,,,,,0,1.758214457,#a3d0fb,,right_blue.png,o,,,,,,o,right_blue.png,right_orange.png,p,right,60ff1fabb65fe8b8cff50c59,001,2021-08-01_12h32.32.884,arrow_simon_norep,2021.1.2,Win32,59.41417622,,,,,,,,,,,,,,,,,,,,,o,1,1.55,39,FALSE,FALSE,9,2,38,1,1,,,,,,,
,,,,,,0,2.175601082,#f3af84,,left_orange.png,q,,,,,,w,left_blue.png,left_orange.png,q,right,60ff1fabb65fe8b8cff50c59,001,2021-08-01_12h32.32.884,arrow_simon_norep,2021.1.2,Win32,59.41417622,,,,,,,,,,,,,,,,,,,,,q,1,1.5234,40,FALSE,FALSE,9,3,39,3,1,,,,,,,
,,,,,,0,2.087628327,#a3d0fb,,right_blue.png,o,,,,,,o,right_blue.png,right_orange.png,p,right,60ff1fabb65fe8b8cff50c59,001,2021-08-01_12h32.32.884,arrow_simon_norep,2021.1.2,Win32,59.41417622,,,,,,,,,,,,,,,,,,,,,o,1,1.5363,41,FALSE,FALSE,10,0,40,1,1,,,,,,,
,,,,,,0,1.569835383,#f3af84,,left_orange.png,q,,,,,,w,left_blue.png,left_orange.png,q,left,60ff1fabb65fe8b8cff50c59,001,2021-08-01_12h32.32.884,arrow_simon_norep,2021.1.2,Win32,59.41417622,,,,,,,,,,,,,,,,,,,,,q,1,1.5461,42,FALSE,FALSE,10,1,41,2,1,,,,,,,
,,,,,,0,1.99911336,#a3d0fb,,right_blue.png,o,,,,,,o,right_blue.png,right_orange.png,p,right,60ff1fabb65fe8b8cff50c59,001,2021-08-01_12h32.32.884,arrow_simon_norep,2021.1.2,Win32,59.41417622,,,,,,,,,,,,,,,,,,,,,o,1,1.54,43,FALSE,FALSE,10,2,42,1,1,,,,,,,
,,,,,,0,1.876016572,#f3af84,,right_orange.png,p,,,,,,o,right_blue.png,right_orange.png,p,left,60ff1fabb65fe8b8cff50c59,001,2021-08-01_12h32.32.884,arrow_simon_norep,2021.1.2,Win32,59.41417622,,,,,,,,,,,,,,,,,,,,,p,1,1.5766,44,FALSE,FALSE,10,3,43,0,1,,,,,,,
,,,,,,0,2.429213293,#a3d0fb,,left_blue.png,w,,,,,,w,left_blue.png,left_orange.png,q,right,60ff1fabb65fe8b8cff50c59,001,2021-08-01_12h32.32.884,arrow_simon_norep,2021.1.2,Win32,59.41417622,,,,,,,,,,,,,,,,,,,,,o,0,1.6364,45,TRUE,FALSE,11,0,44,3,1,,,,,,,
,,,,,,0,2.274147179,#f3af84,,right_orange.png,p,,,,,,o,right_blue.png,right_orange.png,p,right,60ff1fabb65fe8b8cff50c59,001,2021-08-01_12h32.32.884,arrow_simon_norep,2021.1.2,Win32,59.41417622,,,,,,,,,,,,,,,,,,,,,p,1,1.6073,46,TRUE,FALSE,11,1,45,1,1,,,,,,,
,,,,,,0,2.001074697,#a3d0fb,,right_blue.png,o,,,,,,o,right_blue.png,right_orange.png,p,left,60ff1fabb65fe8b8cff50c59,001,2021-08-01_12h32.32.884,arrow_simon_norep,2021.1.2,Win32,59.41417622,,,,,,,,,,,,,,,,,,,,,o,1,1.5259,47,FALSE,FALSE,11,2,46,0,1,,,,,,,
,,,,,,0,2.450820399,#f3af84,,right_orange.png,p,,,,,,o,right_blue.png,right_orange.png,p,left,60ff1fabb65fe8b8cff50c59,001,2021-08-01_12h32.32.884,arrow_simon_norep,2021.1.2,Win32,59.41417622,,,,,,,,,,,,,,,,,,,,,q,0,1.6775,48,TRUE,FALSE,11,3,47,0,1,,,,,,,
,,,,,,0,1.997248599,#a3d0fb,,left_blue.png,w,,,,,,w,left_blue.png,left_orange.png,q,left,60ff1fabb65fe8b8cff50c59,001,2021-08-01_12h32.32.884,arrow_simon_norep,2021.1.2,Win32,59.41417622,,,,,,,,,,,,,,,,,,,,,w,1,1.5998,49,FALSE,FALSE,12,0,48,2,1,,,,,,,
,,,,,,0,1.954570635,#f3af84,,right_orange.png,p,,,,,,o,right_blue.png,right_orange.png,p,left,60ff1fabb65fe8b8cff50c59,001,2021-08-01_12h32.32.884,arrow_simon_norep,2021.1.2,Win32,59.41417622,,,,,,,,,,,,,,,,,,,,,p,1,1.5896,50,FALSE,FALSE,12,1,49,0,1,,,,,,,
,,,,,,0,2.11935205,#a3d0fb,,right_blue.png,o,,,,,,o,right_blue.png,right_orange.png,p,right,60ff1fabb65fe8b8cff50c59,001,2021-08-01_12h32.32.884,arrow_simon_norep,2021.1.2,Win32,59.41417622,,,,,,,,,,,,,,,,,,,,,o,1,1.5666,51,FALSE,FALSE,12,2,50,1,1,,,,,,,
,,,,,,0,1.640910744,#f3af84,,left_orange.png,q,,,,,,w,left_blue.png,left_orange.png,q,left,60ff1fabb65fe8b8cff50c59,001,2021-08-01_12h32.32.884,arrow_simon_norep,2021.1.2,Win32,59.41417622,,,,,,,,,,,,,,,,,,,,,q,1,1.4996,52,FALSE,FALSE,12,3,51,2,1,,,,,,,
,,,,,,1,2.345754621,#a3d0fb,,left_blue.png,w,,,,,,w,left_blue.png,left_orange.png,q,right,60ff1fabb65fe8b8cff50c59,001,2021-08-01_12h32.32.884,arrow_simon_norep,2021.1.2,Win32,59.41417622,,,,,,,,,,,,,,,,,,,,,o,0,1.5335,53,FALSE,FALSE,13,0,52,3,1,,,,,,,
,,,,,,0,1.538788779,#f3af84,,right_orange.png,p,,,,,,o,right_blue.png,right_orange.png,p,left,60ff1fabb65fe8b8cff50c59,001,2021-08-01_12h32.32.884,arrow_simon_norep,2021.1.2,Win32,59.41417622,,,,,,,,,,,,,,,,,,,,,p,1,1.4998,54,FALSE,FALSE,13,1,53,0,1,,,,,,,
,,,,,,0,2.448882662,#a3d0fb,,left_blue.png,w,,,,,,w,left_blue.png,left_orange.png,q,right,60ff1fabb65fe8b8cff50c59,001,2021-08-01_12h32.32.884,arrow_simon_norep,2021.1.2,Win32,59.41417622,,,,,,,,,,,,,,,,,,,,,w,1,1.6025,55,TRUE,FALSE,13,2,54,3,1,,,,,,,
,,,,,,0,1.953038561,#f3af84,,left_orange.png,q,,,,,,w,left_blue.png,left_orange.png,q,left,60ff1fabb65fe8b8cff50c59,001,2021-08-01_12h32.32.884,arrow_simon_norep,2021.1.2,Win32,59.41417622,,,,,,,,,,,,,,,,,,,,,q,1,1.4166,56,FALSE,FALSE,13,3,55,2,1,,,,,,,
,,,,,,0,2.403053274,#a3d0fb,,left_blue.png,w,,,,,,w,left_blue.png,left_orange.png,q,left,60ff1fabb65fe8b8cff50c59,001,2021-08-01_12h32.32.884,arrow_simon_norep,2021.1.2,Win32,59.41417622,,,,,,,,,,,,,,,,,,,,,w,1,1.4341,57,FALSE,FALSE,14,0,56,2,1,,,,,,,
,,,,,,0,1.684939309,#f3af84,,left_orange.png,q,,,,,,w,left_blue.png,left_orange.png,q,left,60ff1fabb65fe8b8cff50c59,001,2021-08-01_12h32.32.884,arrow_simon_norep,2021.1.2,Win32,59.41417622,,,,,,,,,,,,,,,,,,,,,q,1,1.3997,58,FALSE,TRUE,14,1,57,2,1,,,,,,,
,,,,,,0,2.479369175,#a3d0fb,,left_blue.png,w,,,,,,w,left_blue.png,left_orange.png,q,right,60ff1fabb65fe8b8cff50c59,001,2021-08-01_12h32.32.884,arrow_simon_norep,2021.1.2,Win32,59.41417622,,,,,,,,,,,,,,,,,,,,,w,1,1.5179,59,FALSE,FALSE,14,2,58,3,1,,,,,,,
,,,,,,0,1.697336886,#f3af84,,left_orange.png,q,,,,,,w,left_blue.png,left_orange.png,q,right,60ff1fabb65fe8b8cff50c59,001,2021-08-01_12h32.32.884,arrow_simon_norep,2021.1.2,Win32,59.41417622,,,,,,,,,,,,,,,,,,,,,q,1,1.5121,60,FALSE,FALSE,14,3,59,3,1,,,,,,,
,,,,,,,,,,,,,,,,,,,,,,60ff1fabb65fe8b8cff50c59,001,2021-08-01_12h32.32.884,arrow_simon_norep,2021.1.2,Win32,59.41417622,,,,,,,,,,,,,,,,,,,,,,,,,,,,,,,,space,147.9443,2,0,2,0,1
,,,,,,0,1.768752665,#a3d0fb,,right_blue.png,o,,,,,,o,right_blue.png,right_orange.png,p,right,60ff1fabb65fe8b8cff50c59,001,2021-08-01_12h32.32.884,arrow_simon_norep,2021.1.2,Win32,59.41417622,,,,,,,,,,,,,,,,,,,,,o,1,1.4841,1,FALSE,FALSE,0,0,0,1,1,,,,,,,
,,,,,,0,1.768985592,#f3af84,,right_orange.png,p,,,,,,o,right_blue.png,right_orange.png,p,left,60ff1fabb65fe8b8cff50c59,001,2021-08-01_12h32.32.884,arrow_simon_norep,2021.1.2,Win32,59.41417622,,,,,,,,,,,,,,,,,,,,,p,1,1.5361,2,FALSE,FALSE,0,1,1,0,1,,,,,,,
,,,,,,0,2.00365784,#a3d0fb,,left_blue.png,w,,,,,,w,left_blue.png,left_orange.png,q,right,60ff1fabb65fe8b8cff50c59,001,2021-08-01_12h32.32.884,arrow_simon_norep,2021.1.2,Win32,59.41417622,,,,,,,,,,,,,,,,,,,,,w,1,1.5035,3,FALSE,FALSE,0,2,2,3,1,,,,,,,
,,,,,,0,1.616582165,#f3af84,,right_orange.png,p,,,,,,o,right_blue.png,right_orange.png,p,left,60ff1fabb65fe8b8cff50c59,001,2021-08-01_12h32.32.884,arrow_simon_norep,2021.1.2,Win32,59.41417622,,,,,,,,,,,,,,,,,,,,,p,1,1.5422,4,FALSE,FALSE,0,3,3,0,1,,,,,,,
,,,,,,0,1.909151093,#a3d0fb,,right_blue.png,o,,,,,,o,right_blue.png,right_orange.png,p,left,60ff1fabb65fe8b8cff50c59,001,2021-08-01_12h32.32.884,arrow_simon_norep,2021.1.2,Win32,59.41417622,,,,,,,,,,,,,,,,,,,,,o,1,1.55,5,FALSE,FALSE,1,0,4,0,1,,,,,,,
,,,,,,0,2.127729959,#f3af84,,left_orange.png,q,,,,,,w,left_blue.png,left_orange.png,q,right,60ff1fabb65fe8b8cff50c59,001,2021-08-01_12h32.32.884,arrow_simon_norep,2021.1.2,Win32,59.41417622,,,,,,,,,,,,,,,,,,,,,q,1,1.5832,6,FALSE,FALSE,1,1,5,3,1,,,,,,,
,,,,,,0,1.72501454,#a3d0fb,,left_blue.png,w,,,,,,w,left_blue.png,left_orange.png,q,left,60ff1fabb65fe8b8cff50c59,001,2021-08-01_12h32.32.884,arrow_simon_norep,2021.1.2,Win32,59.41417622,,,,,,,,,,,,,,,,,,,,,w,1,1.4234,7,FALSE,FALSE,1,2,6,2,1,,,,,,,
,,,,,,1,2.424377262,#f3af84,,left_orange.png,q,,,,,,w,left_blue.png,left_orange.png,q,right,60ff1fabb65fe8b8cff50c59,001,2021-08-01_12h32.32.884,arrow_simon_norep,2021.1.2,Win32,59.41417622,,,,,,,,,,,,,,,,,,,,,p,0,1.5334,8,FALSE,FALSE,1,3,7,3,1,,,,,,,
,,,,,,1,2.362130759,#a3d0fb,,left_blue.png,w,,,,,,w,left_blue.png,left_orange.png,q,right,60ff1fabb65fe8b8cff50c59,001,2021-08-01_12h32.32.884,arrow_simon_norep,2021.1.2,Win32,59.41417622,,,,,,,,,,,,,,,,,,,,,o,0,1.5164,9,FALSE,FALSE,2,0,8,3,1,,,,,,,
,,,,,,0,1.776646515,#f3af84,,right_orange.png,p,,,,,,o,right_blue.png,right_orange.png,p,left,60ff1fabb65fe8b8cff50c59,001,2021-08-01_12h32.32.884,arrow_simon_norep,2021.1.2,Win32,59.41417622,,,,,,,,,,,,,,,,,,,,,p,1,1.5264,10,FALSE,FALSE,2,1,9,0,1,,,,,,,
,,,,,,0,2.126431692,#a3d0fb,,left_blue.png,w,,,,,,w,left_blue.png,left_orange.png,q,right,60ff1fabb65fe8b8cff50c59,001,2021-08-01_12h32.32.884,arrow_simon_norep,2021.1.2,Win32,59.41417622,,,,,,,,,,,,,,,,,,,,,w,1,1.4946,11,FALSE,FALSE,2,2,10,3,1,,,,,,,
,,,,,,0,2.017662595,#f3af84,,left_orange.png,q,,,,,,w,left_blue.png,left_orange.png,q,right,60ff1fabb65fe8b8cff50c59,001,2021-08-01_12h32.32.884,arrow_simon_norep,2021.1.2,Win32,59.41417622,,,,,,,,,,,,,,,,,,,,,q,1,1.5848,12,FALSE,FALSE,2,3,11,3,1,,,,,,,
,,,,,,0,1.592864185,#a3d0fb,,right_blue.png,o,,,,,,o,right_blue.png,right_orange.png,p,left,60ff1fabb65fe8b8cff50c59,001,2021-08-01_12h32.32.884,arrow_simon_norep,2021.1.2,Win32,59.41417622,,,,,,,,,,,,,,,,,,,,,o,1,1.4386,13,FALSE,FALSE,3,0,12,0,1,,,,,,,
,,,,,,1,2.420615038,#f3af84,,left_orange.png,q,,,,,,w,left_blue.png,left_orange.png,q,right,60ff1fabb65fe8b8cff50c59,001,2021-08-01_12h32.32.884,arrow_simon_norep,2021.1.2,Win32,59.41417622,,,,,,,,,,,,,,,,,,,,,p,0,1.4841,14,FALSE,FALSE,3,1,13,3,1,,,,,,,
,,,,,,0,1.854981645,#a3d0fb,,right_blue.png,o,,,,,,o,right_blue.png,right_orange.png,p,left,60ff1fabb65fe8b8cff50c59,001,2021-08-01_12h32.32.884,arrow_simon_norep,2021.1.2,Win32,59.41417622,,,,,,,,,,,,,,,,,,,,,o,1,1.5166,15,FALSE,FALSE,3,2,14,0,1,,,,,,,
,,,,,,0,1.909742943,#f3af84,,left_orange.png,q,,,,,,w,left_blue.png,left_orange.png,q,left,60ff1fabb65fe8b8cff50c59,001,2021-08-01_12h32.32.884,arrow_simon_norep,2021.1.2,Win32,59.41417622,,,,,,,,,,,,,,,,,,,,,q,1,1.4332,16,FALSE,FALSE,3,3,15,2,1,,,,,,,
,,,,,,0,1.716308744,#a3d0fb,,right_blue.png,o,,,,,,o,right_blue.png,right_orange.png,p,left,60ff1fabb65fe8b8cff50c59,001,2021-08-01_12h32.32.884,arrow_simon_norep,2021.1.2,Win32,59.41417622,,,,,,,,,,,,,,,,,,,,,o,1,1.4714,17,FALSE,FALSE,4,0,16,0,1,,,,,,,
,,,,,,1,2.383226424,#f3af84,,right_orange.png,p,,,,,,o,right_blue.png,right_orange.png,p,left,60ff1fabb65fe8b8cff50c59,001,2021-08-01_12h32.32.884,arrow_simon_norep,2021.1.2,Win32,59.41417622,,,,,,,,,,,,,,,,,,,,,q,0,1.5031,18,FALSE,FALSE,4,1,17,0,1,,,,,,,
,,,,,,0,1.592343916,#a3d0fb,,right_blue.png,o,,,,,,o,right_blue.png,right_orange.png,p,right,60ff1fabb65fe8b8cff50c59,001,2021-08-01_12h32.32.884,arrow_simon_norep,2021.1.2,Win32,59.41417622,,,,,,,,,,,,,,,,,,,,,o,1,1.4667,19,FALSE,FALSE,4,2,18,1,1,,,,,,,
,,,,,,0,2.269240375,#f3af84,,left_orange.png,q,,,,,,w,left_blue.png,left_orange.png,q,left,60ff1fabb65fe8b8cff50c59,001,2021-08-01_12h32.32.884,arrow_simon_norep,2021.1.2,Win32,59.41417622,,,,,,,,,,,,,,,,,,,,,q,1,1.5173,20,FALSE,FALSE,4,3,19,2,1,,,,,,,
,,,,,,0,1.514986181,#a3d0fb,,left_blue.png,w,,,,,,w,left_blue.png,left_orange.png,q,left,60ff1fabb65fe8b8cff50c59,001,2021-08-01_12h32.32.884,arrow_simon_norep,2021.1.2,Win32,59.41417622,,,,,,,,,,,,,,,,,,,,,w,1,1.5667,21,FALSE,FALSE,5,0,20,2,1,,,,,,,
,,,,,,0,2.220158069,#f3af84,,left_orange.png,q,,,,,,w,left_blue.png,left_orange.png,q,left,60ff1fabb65fe8b8cff50c59,001,2021-08-01_12h32.32.884,arrow_simon_norep,2021.1.2,Win32,59.41417622,,,,,,,,,,,,,,,,,,,,,q,1,1.6387,22,TRUE,FALSE,5,1,21,2,1,,,,,,,
,,,,,,0,2.142498493,#a3d0fb,,left_blue.png,w,,,,,,w,left_blue.png,left_orange.png,q,left,60ff1fabb65fe8b8cff50c59,001,2021-08-01_12h32.32.884,arrow_simon_norep,2021.1.2,Win32,59.41417622,,,,,,,,,,,,,,,,,,,,,w,1,1.4671,23,FALSE,FALSE,5,2,22,2,1,,,,,,,
,,,,,,0,1.670332635,#f3af84,,left_orange.png,q,,,,,,w,left_blue.png,left_orange.png,q,left,60ff1fabb65fe8b8cff50c59,001,2021-08-01_12h32.32.884,arrow_simon_norep,2021.1.2,Win32,59.41417622,,,,,,,,,,,,,,,,,,,,,q,1,1.475,24,FALSE,FALSE,5,3,23,2,1,,,,,,,
,,,,,,0,1.968907777,#a3d0fb,,right_blue.png,o,,,,,,o,right_blue.png,right_orange.png,p,left,60ff1fabb65fe8b8cff50c59,001,2021-08-01_12h32.32.884,arrow_simon_norep,2021.1.2,Win32,59.41417622,,,,,,,,,,,,,,,,,,,,,o,1,1.4928,25,FALSE,FALSE,6,0,24,0,1,,,,,,,
,,,,,,0,2.17188645,#f3af84,,left_orange.png,q,,,,,,w,left_blue.png,left_orange.png,q,left,60ff1fabb65fe8b8cff50c59,001,2021-08-01_12h32.32.884,arrow_simon_norep,2021.1.2,Win32,59.41417622,,,,,,,,,,,,,,,,,,,,,q,1,1.5566,26,FALSE,FALSE,6,1,25,2,1,,,,,,,
,,,,,,0,2.284573744,#a3d0fb,,right_blue.png,o,,,,,,o,right_blue.png,right_orange.png,p,right,60ff1fabb65fe8b8cff50c59,001,2021-08-01_12h32.32.884,arrow_simon_norep,2021.1.2,Win32,59.41417622,,,,,,,,,,,,,,,,,,,,,o,1,1.601,27,TRUE,FALSE,6,2,26,1,1,,,,,,,
,,,,,,0,2.145682075,#f3af84,,left_orange.png,q,,,,,,w,left_blue.png,left_orange.png,q,right,60ff1fabb65fe8b8cff50c59,001,2021-08-01_12h32.32.884,arrow_simon_norep,2021.1.2,Win32,59.41417622,,,,,,,,,,,,,,,,,,,,,q,1,2.2328,28,TRUE,FALSE,6,3,27,3,1,,,,,,,
,,,,,,0,2.479448832,#a3d0fb,,left_blue.png,w,,,,,,w,left_blue.png,left_orange.png,q,right,60ff1fabb65fe8b8cff50c59,001,2021-08-01_12h32.32.884,arrow_simon_norep,2021.1.2,Win32,59.41417622,,,,,,,,,,,,,,,,,,,,,w,1,1.585,29,FALSE,FALSE,7,0,28,3,1,,,,,,,
,,,,,,0,1.649076581,#f3af84,,right_orange.png,p,,,,,,o,right_blue.png,right_orange.png,p,left,60ff1fabb65fe8b8cff50c59,001,2021-08-01_12h32.32.884,arrow_simon_norep,2021.1.2,Win32,59.41417622,,,,,,,,,,,,,,,,,,,,,p,1,1.4781,30,FALSE,FALSE,7,1,29,0,1,,,,,,,
,,,,,,0,2.289377084,#a3d0fb,,right_blue.png,o,,,,,,o,right_blue.png,right_orange.png,p,right,60ff1fabb65fe8b8cff50c59,001,2021-08-01_12h32.32.884,arrow_simon_norep,2021.1.2,Win32,59.41417622,,,,,,,,,,,,,,,,,,,,,o,1,1.5162,31,FALSE,FALSE,7,2,30,1,1,,,,,,,
,,,,,,0,2.264479602,#f3af84,,right_orange.png,p,,,,,,o,right_blue.png,right_orange.png,p,right,60ff1fabb65fe8b8cff50c59,001,2021-08-01_12h32.32.884,arrow_simon_norep,2021.1.2,Win32,59.41417622,,,,,,,,,,,,,,,,,,,,,p,1,1.5105,32,FALSE,FALSE,7,3,31,1,1,,,,,,,
,,,,,,0,1.940150284,#a3d0fb,,right_blue.png,o,,,,,,o,right_blue.png,right_orange.png,p,right,60ff1fabb65fe8b8cff50c59,001,2021-08-01_12h32.32.884,arrow_simon_norep,2021.1.2,Win32,59.41417622,,,,,,,,,,,,,,,,,,,,,o,1,1.45,33,FALSE,FALSE,8,0,32,1,1,,,,,,,
,,,,,,1,2.356224709,#f3af84,,left_orange.png,q,,,,,,w,left_blue.png,left_orange.png,q,left,60ff1fabb65fe8b8cff50c59,001,2021-08-01_12h32.32.884,arrow_simon_norep,2021.1.2,Win32,59.41417622,,,,,,,,,,,,,,,,,,,,,p,0,1.5335,34,FALSE,FALSE,8,1,33,2,1,,,,,,,
,,,,,,0,2.190318524,#a3d0fb,,right_blue.png,o,,,,,,o,right_blue.png,right_orange.png,p,right,60ff1fabb65fe8b8cff50c59,001,2021-08-01_12h32.32.884,arrow_simon_norep,2021.1.2,Win32,59.41417622,,,,,,,,,,,,,,,,,,,,,o,1,1.471,35,FALSE,FALSE,8,2,34,1,1,,,,,,,
,,,,,,0,2.421563694,#f3af84,,left_orange.png,q,,,,,,w,left_blue.png,left_orange.png,q,left,60ff1fabb65fe8b8cff50c59,001,2021-08-01_12h32.32.884,arrow_simon_norep,2021.1.2,Win32,59.41417622,,,,,,,,,,,,,,,,,,,,,q,1,1.6608,36,TRUE,FALSE,8,3,35,2,1,,,,,,,
,,,,,,0,1.574148778,#a3d0fb,,right_blue.png,o,,,,,,o,right_blue.png,right_orange.png,p,right,60ff1fabb65fe8b8cff50c59,001,2021-08-01_12h32.32.884,arrow_simon_norep,2021.1.2,Win32,59.41417622,,,,,,,,,,,,,,,,,,,,,o,1,1.4501,37,FALSE,FALSE,9,0,36,1,1,,,,,,,
,,,,,,0,2.39089381,#f3af84,,left_orange.png,q,,,,,,w,left_blue.png,left_orange.png,q,right,60ff1fabb65fe8b8cff50c59,001,2021-08-01_12h32.32.884,arrow_simon_norep,2021.1.2,Win32,59.41417622,,,,,,,,,,,,,,,,,,,,,q,1,1.5186,38,FALSE,FALSE,9,1,37,3,1,,,,,,,
,,,,,,0,1.587161839,#a3d0fb,,left_blue.png,w,,,,,,w,left_blue.png,left_orange.png,q,right,60ff1fabb65fe8b8cff50c59,001,2021-08-01_12h32.32.884,arrow_simon_norep,2021.1.2,Win32,59.41417622,,,,,,,,,,,,,,,,,,,,,w,1,1.5332,39,FALSE,FALSE,9,2,38,3,1,,,,,,,
,,,,,,0,1.529883008,#f3af84,,right_orange.png,p,,,,,,o,right_blue.png,right_orange.png,p,right,60ff1fabb65fe8b8cff50c59,001,2021-08-01_12h32.32.884,arrow_simon_norep,2021.1.2,Win32,59.41417622,,,,,,,,,,,,,,,,,,,,,p,1,1.4994,40,FALSE,FALSE,9,3,39,1,1,,,,,,,
,,,,,,0,1.666976961,#a3d0fb,,left_blue.png,w,,,,,,w,left_blue.png,left_orange.png,q,right,60ff1fabb65fe8b8cff50c59,001,2021-08-01_12h32.32.884,arrow_simon_norep,2021.1.2,Win32,59.41417622,,,,,,,,,,,,,,,,,,,,,w,1,1.4603,41,FALSE,FALSE,10,0,40,3,1,,,,,,,
,,,,,,0,2.075852845,#f3af84,,right_orange.png,p,,,,,,o,right_blue.png,right_orange.png,p,right,60ff1fabb65fe8b8cff50c59,001,2021-08-01_12h32.32.884,arrow_simon_norep,2021.1.2,Win32,59.41417622,,,,,,,,,,,,,,,,,,,,,p,1,1.6495,42,TRUE,FALSE,10,1,41,1,1,,,,,,,
,,,,,,0,2.401317135,#a3d0fb,,left_blue.png,w,,,,,,w,left_blue.png,left_orange.png,q,left,60ff1fabb65fe8b8cff50c59,001,2021-08-01_12h32.32.884,arrow_simon_norep,2021.1.2,Win32,59.41417622,,,,,,,,,,,,,,,,,,,,,w,1,1.4552,43,FALSE,FALSE,10,2,42,2,1,,,,,,,
,,,,,,0,2.226978491,#f3af84,,left_orange.png,q,,,,,,w,left_blue.png,left_orange.png,q,left,60ff1fabb65fe8b8cff50c59,001,2021-08-01_12h32.32.884,arrow_simon_norep,2021.1.2,Win32,59.41417622,,,,,,,,,,,,,,,,,,,,,q,1,1.4854,44,FALSE,FALSE,10,3,43,2,1,,,,,,,
,,,,,,0,2.057596967,#a3d0fb,,right_blue.png,o,,,,,,o,right_blue.png,right_orange.png,p,right,60ff1fabb65fe8b8cff50c59,001,2021-08-01_12h32.32.884,arrow_simon_norep,2021.1.2,Win32,59.41417622,,,,,,,,,,,,,,,,,,,,,o,1,1.3949,45,FALSE,TRUE,11,0,44,1,1,,,,,,,
,,,,,,0,1.628416011,#f3af84,,left_orange.png,q,,,,,,w,left_blue.png,left_orange.png,q,left,60ff1fabb65fe8b8cff50c59,001,2021-08-01_12h32.32.884,arrow_simon_norep,2021.1.2,Win32,59.41417622,,,,,,,,,,,,,,,,,,,,,q,1,1.4286,46,FALSE,FALSE,11,1,45,2,1,,,,,,,
,,,,,,0,2.499889912,#a3d0fb,,right_blue.png,o,,,,,,o,right_blue.png,right_orange.png,p,left,60ff1fabb65fe8b8cff50c59,001,2021-08-01_12h32.32.884,arrow_simon_norep,2021.1.2,Win32,59.41417622,,,,,,,,,,,,,,,,,,,,,o,1,1.5058,47,FALSE,FALSE,11,2,46,0,1,,,,,,,
,,,,,,1,2.441883041,#f3af84,,right_orange.png,p,,,,,,o,right_blue.png,right_orange.png,p,left,60ff1fabb65fe8b8cff50c59,001,2021-08-01_12h32.32.884,arrow_simon_norep,2021.1.2,Win32,59.41417622,,,,,,,,,,,,,,,,,,,,,q,0,1.5093,48,FALSE,FALSE,11,3,47,0,1,,,,,,,
,,,,,,0,1.992794396,#a3d0fb,,left_blue.png,w,,,,,,w,left_blue.png,left_orange.png,q,left,60ff1fabb65fe8b8cff50c59,001,2021-08-01_12h32.32.884,arrow_simon_norep,2021.1.2,Win32,59.41417622,,,,,,,,,,,,,,,,,,,,,w,1,1.4876,49,FALSE,FALSE,12,0,48,2,1,,,,,,,
,,,,,,0,1.649080105,#f3af84,,right_orange.png,p,,,,,,o,right_blue.png,right_orange.png,p,right,60ff1fabb65fe8b8cff50c59,001,2021-08-01_12h32.32.884,arrow_simon_norep,2021.1.2,Win32,59.41417622,,,,,,,,,,,,,,,,,,,,,p,1,1.4584,50,FALSE,FALSE,12,1,49,1,1,,,,,,,
