instruct_resp_simon.keys,instruct_resp_simon.corr,instruct_resp_simon.rt,trial_resp_simon.keys,trial_resp_simon.corr,trial_resp_simon.rt,kerr,target_onset,target_color,target_pos,target_file,target_resp,trials_train_simon.thisRepN,trials_train_simon.thisTrialN,trials_train_simon.thisN,trials_train_simon.thisIndex,trials_train_simon.ran,odd_target_resp,odd_target_file,even_target_file,even_target_resp,target_side,participant,session,date,expName,psychopyVersion,OS,frameRate,train_block_note_resp.keys,train_block_note_resp.rt,blocks_train.thisRepN,blocks_train.thisTrialN,blocks_train.thisN,blocks_train.thisIndex,blocks_train.ran,instruct_resp_timing.keys,instruct_resp_timing.corr,instruct_resp_timing.rt,trial_resp_timing.keys,trial_resp_timing.rt,trials_train_timing.thisRepN,trials_train_timing.thisTrialN,trials_train_timing.thisN,trials_train_timing.thisIndex,trials_train_timing.ran,instruct_resp.keys,instruct_resp.corr,instruct_resp.rt,trial_resp.keys,trial_resp.corr,trial_resp.rt,trial_num,too_slow,too_soon,trials.thisRepN,trials.thisTrialN,trials.thisN,trials.thisIndex,trials.ran,block_note_resp.keys,block_note_resp.rt,blocks.thisRepN,blocks.thisTrialN,blocks.thisN,blocks.thisIndex,blocks.ran
space,0,46.274,o,0,3.2221,1,0.338206411,#a3d0fb,,left_blue.png,w,0,0,0,3,1,w,left_blue.png,left_orange.png,q,right,60ff46310ae1809cbbd2240a,001,2021-08-01_12h29.03.542,arrow_simon_norep,2021.1.2,Win32,60.07449237,,,,,,,,,,,,,,,,,,,,,,,,,,,,,,,,,,,,,,
,,,q,1,5.3772,0,0.618071643,#f3af84,,left_orange.png,q,0,1,1,2,1,w,left_blue.png,left_orange.png,q,left,60ff46310ae1809cbbd2240a,001,2021-08-01_12h29.03.542,arrow_simon_norep,2021.1.2,Win32,60.07449237,,,,,,,,,,,,,,,,,,,,,,,,,,,,,,,,,,,,,,
,,,w,1,3.4022,0,0.044767087,#a3d0fb,,left_blue.png,w,0,2,2,3,1,w,left_blue.png,left_orange.png,q,right,60ff46310ae1809cbbd2240a,001,2021-08-01_12h29.03.542,arrow_simon_norep,2021.1.2,Win32,60.07449237,,,,,,,,,,,,,,,,,,,,,,,,,,,,,,,,,,,,,,
,,,p,1,2.1754,0,0.938318502,#f3af84,,right_orange.png,p,0,3,3,0,1,o,right_blue.png,right_orange.png,p,left,60ff46310ae1809cbbd2240a,001,2021-08-01_12h29.03.542,arrow_simon_norep,2021.1.2,Win32,60.07449237,,,,,,,,,,,,,,,,,,,,,,,,,,,,,,,,,,,,,,
,,,o,1,1.1949,0,0.29895291,#a3d0fb,,right_blue.png,o,1,0,4,1,1,o,right_blue.png,right_orange.png,p,right,60ff46310ae1809cbbd2240a,001,2021-08-01_12h29.03.542,arrow_simon_norep,2021.1.2,Win32,60.07449237,,,,,,,,,,,,,,,,,,,,,,,,,,,,,,,,,,,,,,
,,,q,1,2.6151,0,0.924635426,#f3af84,,left_orange.png,q,1,1,5,3,1,w,left_blue.png,left_orange.png,q,right,60ff46310ae1809cbbd2240a,001,2021-08-01_12h29.03.542,arrow_simon_norep,2021.1.2,Win32,60.07449237,,,,,,,,,,,,,,,,,,,,,,,,,,,,,,,,,,,,,,
,,,o,1,2.2791,0,0.516995062,#a3d0fb,,right_blue.png,o,1,2,6,0,1,o,right_blue.png,right_orange.png,p,left,60ff46310ae1809cbbd2240a,001,2021-08-01_12h29.03.542,arrow_simon_norep,2021.1.2,Win32,60.07449237,,,,,,,,,,,,,,,,,,,,,,,,,,,,,,,,,,,,,,
,,,q,1,2.9425,0,0.663986678,#f3af84,,left_orange.png,q,1,3,7,3,1,w,left_blue.png,left_orange.png,q,right,60ff46310ae1809cbbd2240a,001,2021-08-01_12h29.03.542,arrow_simon_norep,2021.1.2,Win32,60.07449237,,,,,,,,,,,,,,,,,,,,,,,,,,,,,,,,,,,,,,
,,,w,1,1.646,0,0.442654213,#a3d0fb,,left_blue.png,w,2,0,8,2,1,w,left_blue.png,left_orange.png,q,left,60ff46310ae1809cbbd2240a,001,2021-08-01_12h29.03.542,arrow_simon_norep,2021.1.2,Win32,60.07449237,,,,,,,,,,,,,,,,,,,,,,,,,,,,,,,,,,,,,,
,,,q,1,0.9172,0,0.331602612,#f3af84,,left_orange.png,q,2,1,9,2,1,w,left_blue.png,left_orange.png,q,left,60ff46310ae1809cbbd2240a,001,2021-08-01_12h29.03.542,arrow_simon_norep,2021.1.2,Win32,60.07449237,,,,,,,,,,,,,,,,,,,,,,,,,,,,,,,,,,,,,,
,,,o,1,1.328,0,0.397451289,#a3d0fb,,right_blue.png,o,2,2,10,0,1,o,right_blue.png,right_orange.png,p,left,60ff46310ae1809cbbd2240a,001,2021-08-01_12h29.03.542,arrow_simon_norep,2021.1.2,Win32,60.07449237,,,,,,,,,,,,,,,,,,,,,,,,,,,,,,,,,,,,,,
,,,q,1,1.5229,0,0.018620299,#f3af84,,left_orange.png,q,2,3,11,3,1,w,left_blue.png,left_orange.png,q,right,60ff46310ae1809cbbd2240a,001,2021-08-01_12h29.03.542,arrow_simon_norep,2021.1.2,Win32,60.07449237,,,,,,,,,,,,,,,,,,,,,,,,,,,,,,,,,,,,,,
,,,o,1,1.746,0,0.804106447,#a3d0fb,,right_blue.png,o,3,0,12,0,1,o,right_blue.png,right_orange.png,p,left,60ff46310ae1809cbbd2240a,001,2021-08-01_12h29.03.542,arrow_simon_norep,2021.1.2,Win32,60.07449237,,,,,,,,,,,,,,,,,,,,,,,,,,,,,,,,,,,,,,
,,,p,1,1.6895,0,0.910663009,#f3af84,,right_orange.png,p,3,1,13,1,1,o,right_blue.png,right_orange.png,p,right,60ff46310ae1809cbbd2240a,001,2021-08-01_12h29.03.542,arrow_simon_norep,2021.1.2,Win32,60.07449237,,,,,,,,,,,,,,,,,,,,,,,,,,,,,,,,,,,,,,
,,,o,1,1.1157,0,0.36149921,#a3d0fb,,right_blue.png,o,3,2,14,1,1,o,right_blue.png,right_orange.png,p,right,60ff46310ae1809cbbd2240a,001,2021-08-01_12h29.03.542,arrow_simon_norep,2021.1.2,Win32,60.07449237,,,,,,,,,,,,,,,,,,,,,,,,,,,,,,,,,,,,,,
,,,q,1,1.2277,0,0.481919342,#f3af84,,left_orange.png,q,3,3,15,3,1,w,left_blue.png,left_orange.png,q,right,60ff46310ae1809cbbd2240a,001,2021-08-01_12h29.03.542,arrow_simon_norep,2021.1.2,Win32,60.07449237,,,,,,,,,,,,,,,,,,,,,,,,,,,,,,,,,,,,,,
,,,o,1,0.7516,0,0.098110898,#a3d0fb,,right_blue.png,o,4,0,16,1,1,o,right_blue.png,right_orange.png,p,right,60ff46310ae1809cbbd2240a,001,2021-08-01_12h29.03.542,arrow_simon_norep,2021.1.2,Win32,60.07449237,,,,,,,,,,,,,,,,,,,,,,,,,,,,,,,,,,,,,,
,,,q,0,3.1165,1,0.88817508,#f3af84,,right_orange.png,p,4,1,17,0,1,o,right_blue.png,right_orange.png,p,left,60ff46310ae1809cbbd2240a,001,2021-08-01_12h29.03.542,arrow_simon_norep,2021.1.2,Win32,60.07449237,,,,,,,,,,,,,,,,,,,,,,,,,,,,,,,,,,,,,,
,,,o,1,1.1845,0,0.262244666,#a3d0fb,,right_blue.png,o,4,2,18,1,1,o,right_blue.png,right_orange.png,p,right,60ff46310ae1809cbbd2240a,001,2021-08-01_12h29.03.542,arrow_simon_norep,2021.1.2,Win32,60.07449237,,,,,,,,,,,,,,,,,,,,,,,,,,,,,,,,,,,,,,
,,,q,1,2.1946,0,0.765302847,#f3af84,,left_orange.png,q,4,3,19,2,1,w,left_blue.png,left_orange.png,q,left,60ff46310ae1809cbbd2240a,001,2021-08-01_12h29.03.542,arrow_simon_norep,2021.1.2,Win32,60.07449237,,,,,,,,,,,,,,,,,,,,,,,,,,,,,,,,,,,,,,
,,,o,0,1.2973,1,0.564773475,#a3d0fb,,left_blue.png,w,5,0,20,3,1,w,left_blue.png,left_orange.png,q,right,60ff46310ae1809cbbd2240a,001,2021-08-01_12h29.03.542,arrow_simon_norep,2021.1.2,Win32,60.07449237,,,,,,,,,,,,,,,,,,,,,,,,,,,,,,,,,,,,,,
,,,q,0,2.0728,1,0.730544577,#f3af84,,right_orange.png,p,5,1,21,0,1,o,right_blue.png,right_orange.png,p,left,60ff46310ae1809cbbd2240a,001,2021-08-01_12h29.03.542,arrow_simon_norep,2021.1.2,Win32,60.07449237,,,,,,,,,,,,,,,,,,,,,,,,,,,,,,,,,,,,,,
,,,o,1,2.2084,0,0.769778324,#a3d0fb,,right_blue.png,o,5,2,22,0,1,o,right_blue.png,right_orange.png,p,left,60ff46310ae1809cbbd2240a,001,2021-08-01_12h29.03.542,arrow_simon_norep,2021.1.2,Win32,60.07449237,,,,,,,,,,,,,,,,,,,,,,,,,,,,,,,,,,,,,,
,,,q,1,1.7577,0,0.808202455,#f3af84,,left_orange.png,q,5,3,23,3,1,w,left_blue.png,left_orange.png,q,right,60ff46310ae1809cbbd2240a,001,2021-08-01_12h29.03.542,arrow_simon_norep,2021.1.2,Win32,60.07449237,,,,,,,,,,,,,,,,,,,,,,,,,,,,,,,,,,,,,,
,,,o,1,1.8987,0,0.734779647,#a3d0fb,,right_blue.png,o,6,0,24,0,1,o,right_blue.png,right_orange.png,p,left,60ff46310ae1809cbbd2240a,001,2021-08-01_12h29.03.542,arrow_simon_norep,2021.1.2,Win32,60.07449237,,,,,,,,,,,,,,,,,,,,,,,,,,,,,,,,,,,,,,
,,,p,1,1.7129,0,0.389910235,#f3af84,,right_orange.png,p,6,1,25,1,1,o,right_blue.png,right_orange.png,p,right,60ff46310ae1809cbbd2240a,001,2021-08-01_12h29.03.542,arrow_simon_norep,2021.1.2,Win32,60.07449237,,,,,,,,,,,,,,,,,,,,,,,,,,,,,,,,,,,,,,
,,,q,0,1.6337,1,0.909334595,#a3d0fb,,left_blue.png,w,6,2,26,2,1,w,left_blue.png,left_orange.png,q,left,60ff46310ae1809cbbd2240a,001,2021-08-01_12h29.03.542,arrow_simon_norep,2021.1.2,Win32,60.07449237,,,,,,,,,,,,,,,,,,,,,,,,,,,,,,,,,,,,,,
,,,p,1,2.2293,0,0.571836813,#f3af84,,right_orange.png,p,6,3,27,1,1,o,right_blue.png,right_orange.png,p,right,60ff46310ae1809cbbd2240a,001,2021-08-01_12h29.03.542,arrow_simon_norep,2021.1.2,Win32,60.07449237,,,,,,,,,,,,,,,,,,,,,,,,,,,,,,,,,,,,,,
,,,w,1,1.7294,0,0.429393898,#a3d0fb,,left_blue.png,w,7,0,28,3,1,w,left_blue.png,left_orange.png,q,right,60ff46310ae1809cbbd2240a,001,2021-08-01_12h29.03.542,arrow_simon_norep,2021.1.2,Win32,60.07449237,,,,,,,,,,,,,,,,,,,,,,,,,,,,,,,,,,,,,,
,,,q,1,2.0009,0,0.003991274,#f3af84,,left_orange.png,q,7,1,29,2,1,w,left_blue.png,left_orange.png,q,left,60ff46310ae1809cbbd2240a,001,2021-08-01_12h29.03.542,arrow_simon_norep,2021.1.2,Win32,60.07449237,,,,,,,,,,,,,,,,,,,,,,,,,,,,,,,,,,,,,,
,,,o,1,1.6286,0,0.873742332,#a3d0fb,,right_blue.png,o,7,2,30,0,1,o,right_blue.png,right_orange.png,p,left,60ff46310ae1809cbbd2240a,001,2021-08-01_12h29.03.542,arrow_simon_norep,2021.1.2,Win32,60.07449237,,,,,,,,,,,,,,,,,,,,,,,,,,,,,,,,,,,,,,
,,,q,1,2.5528,0,0.793711474,#f3af84,,left_orange.png,q,7,3,31,2,1,w,left_blue.png,left_orange.png,q,left,60ff46310ae1809cbbd2240a,001,2021-08-01_12h29.03.542,arrow_simon_norep,2021.1.2,Win32,60.07449237,,,,,,,,,,,,,,,,,,,,,,,,,,,,,,,,,,,,,,
,,,o,1,1.0209,0,0.08814118,#a3d0fb,,right_blue.png,o,8,0,32,0,1,o,right_blue.png,right_orange.png,p,left,60ff46310ae1809cbbd2240a,001,2021-08-01_12h29.03.542,arrow_simon_norep,2021.1.2,Win32,60.07449237,,,,,,,,,,,,,,,,,,,,,,,,,,,,,,,,,,,,,,
,,,q,1,2.5904,0,0.458520479,#f3af84,,left_orange.png,q,8,1,33,2,1,w,left_blue.png,left_orange.png,q,left,60ff46310ae1809cbbd2240a,001,2021-08-01_12h29.03.542,arrow_simon_norep,2021.1.2,Win32,60.07449237,,,,,,,,,,,,,,,,,,,,,,,,,,,,,,,,,,,,,,
,,,w,1,2.9824,0,0.337594044,#a3d0fb,,left_blue.png,w,8,2,34,3,1,w,left_blue.png,left_orange.png,q,right,60ff46310ae1809cbbd2240a,001,2021-08-01_12h29.03.542,arrow_simon_norep,2021.1.2,Win32,60.07449237,,,,,,,,,,,,,,,,,,,,,,,,,,,,,,,,,,,,,,
,,,q,1,1.2662,0,0.234215087,#f3af84,,left_orange.png,q,8,3,35,2,1,w,left_blue.png,left_orange.png,q,left,60ff46310ae1809cbbd2240a,001,2021-08-01_12h29.03.542,arrow_simon_norep,2021.1.2,Win32,60.07449237,,,,,,,,,,,,,,,,,,,,,,,,,,,,,,,,,,,,,,
,,,w,1,1.0541,0,0.285178411,#a3d0fb,,left_blue.png,w,9,0,36,3,1,w,left_blue.png,left_orange.png,q,right,60ff46310ae1809cbbd2240a,001,2021-08-01_12h29.03.542,arrow_simon_norep,2021.1.2,Win32,60.07449237,,,,,,,,,,,,,,,,,,,,,,,,,,,,,,,,,,,,,,
,,,p,1,1.1077,0,0.445589657,#f3af84,,right_orange.png,p,9,1,37,1,1,o,right_blue.png,right_orange.png,p,right,60ff46310ae1809cbbd2240a,001,2021-08-01_12h29.03.542,arrow_simon_norep,2021.1.2,Win32,60.07449237,,,,,,,,,,,,,,,,,,,,,,,,,,,,,,,,,,,,,,
,,,o,1,0.8508,0,0.061598852,#a3d0fb,,right_blue.png,o,9,2,38,0,1,o,right_blue.png,right_orange.png,p,left,60ff46310ae1809cbbd2240a,001,2021-08-01_12h29.03.542,arrow_simon_norep,2021.1.2,Win32,60.07449237,,,,,,,,,,,,,,,,,,,,,,,,,,,,,,,,,,,,,,
,,,q,1,1.6486,0,0.899597781,#f3af84,,left_orange.png,q,9,3,39,2,1,w,left_blue.png,left_orange.png,q,left,60ff46310ae1809cbbd2240a,001,2021-08-01_12h29.03.542,arrow_simon_norep,2021.1.2,Win32,60.07449237,,,,,,,,,,,,,,,,,,,,,,,,,,,,,,,,,,,,,,
,,,p,0,1.4168,1,0.733843993,#a3d0fb,,right_blue.png,o,10,0,40,1,1,o,right_blue.png,right_orange.png,p,right,60ff46310ae1809cbbd2240a,001,2021-08-01_12h29.03.542,arrow_simon_norep,2021.1.2,Win32,60.07449237,,,,,,,,,,,,,,,,,,,,,,,,,,,,,,,,,,,,,,
,,,q,1,1.8237,0,0.10738571,#f3af84,,left_orange.png,q,10,1,41,2,1,w,left_blue.png,left_orange.png,q,left,60ff46310ae1809cbbd2240a,001,2021-08-01_12h29.03.542,arrow_simon_norep,2021.1.2,Win32,60.07449237,,,,,,,,,,,,,,,,,,,,,,,,,,,,,,,,,,,,,,
,,,o,0,1.0608,1,0.2254483,#a3d0fb,,left_blue.png,w,10,2,42,3,1,w,left_blue.png,left_orange.png,q,right,60ff46310ae1809cbbd2240a,001,2021-08-01_12h29.03.542,arrow_simon_norep,2021.1.2,Win32,60.07449237,,,,,,,,,,,,,,,,,,,,,,,,,,,,,,,,,,,,,,
,,,p,1,1.3704,0,0.083064027,#f3af84,,right_orange.png,p,10,3,43,0,1,o,right_blue.png,right_orange.png,p,left,60ff46310ae1809cbbd2240a,001,2021-08-01_12h29.03.542,arrow_simon_norep,2021.1.2,Win32,60.07449237,,,,,,,,,,,,,,,,,,,,,,,,,,,,,,,,,,,,,,
,,,w,0,1.2659,1,0.032115164,#a3d0fb,,right_blue.png,o,11,0,44,0,1,o,right_blue.png,right_orange.png,p,left,60ff46310ae1809cbbd2240a,001,2021-08-01_12h29.03.542,arrow_simon_norep,2021.1.2,Win32,60.07449237,,,,,,,,,,,,,,,,,,,,,,,,,,,,,,,,,,,,,,
,,,q,1,3.0143,0,0.34725265,#f3af84,,left_orange.png,q,11,1,45,3,1,w,left_blue.png,left_orange.png,q,right,60ff46310ae1809cbbd2240a,001,2021-08-01_12h29.03.542,arrow_simon_norep,2021.1.2,Win32,60.07449237,,,,,,,,,,,,,,,,,,,,,,,,,,,,,,,,,,,,,,
,,,o,1,2.1207,0,0.812999815,#a3d0fb,,right_blue.png,o,11,2,46,1,1,o,right_blue.png,right_orange.png,p,right,60ff46310ae1809cbbd2240a,001,2021-08-01_12h29.03.542,arrow_simon_norep,2021.1.2,Win32,60.07449237,,,,,,,,,,,,,,,,,,,,,,,,,,,,,,,,,,,,,,
,,,p,1,1.1747,0,0.172794324,#f3af84,,right_orange.png,p,11,3,47,0,1,o,right_blue.png,right_orange.png,p,left,60ff46310ae1809cbbd2240a,001,2021-08-01_12h29.03.542,arrow_simon_norep,2021.1.2,Win32,60.07449237,,,,,,,,,,,,,,,,,,,,,,,,,,,,,,,,,,,,,,
,,,w,1,1.9601,0,0.757540067,#a3d0fb,,left_blue.png,w,12,0,48,2,1,w,left_blue.png,left_orange.png,q,left,60ff46310ae1809cbbd2240a,001,2021-08-01_12h29.03.542,arrow_simon_norep,2021.1.2,Win32,60.07449237,,,,,,,,,,,,,,,,,,,,,,,,,,,,,,,,,,,,,,
,,,q,1,1.6324,0,0.699611794,#f3af84,,left_orange.png,q,12,1,49,2,1,w,left_blue.png,left_orange.png,q,left,60ff46310ae1809cbbd2240a,001,2021-08-01_12h29.03.542,arrow_simon_norep,2021.1.2,Win32,60.07449237,,,,,,,,,,,,,,,,,,,,,,,,,,,,,,,,,,,,,,
,,,o,1,0.9332,0,0.136579208,#a3d0fb,,right_blue.png,o,12,2,50,0,1,o,right_blue.png,right_orange.png,p,left,60ff46310ae1809cbbd2240a,001,2021-08-01_12h29.03.542,arrow_simon_norep,2021.1.2,Win32,60.07449237,,,,,,,,,,,,,,,,,,,,,,,,,,,,,,,,,,,,,,
,,,p,1,1.8083,0,0.543159851,#f3af84,,right_orange.png,p,12,3,51,1,1,o,right_blue.png,right_orange.png,p,right,60ff46310ae1809cbbd2240a,001,2021-08-01_12h29.03.542,arrow_simon_norep,2021.1.2,Win32,60.07449237,,,,,,,,,,,,,,,,,,,,,,,,,,,,,,,,,,,,,,
,,,w,1,1.1405,0,0.256404246,#a3d0fb,,left_blue.png,w,13,0,52,2,1,w,left_blue.png,left_orange.png,q,left,60ff46310ae1809cbbd2240a,001,2021-08-01_12h29.03.542,arrow_simon_norep,2021.1.2,Win32,60.07449237,,,,,,,,,,,,,,,,,,,,,,,,,,,,,,,,,,,,,,
,,,q,1,1.6934,0,0.688208253,#f3af84,,left_orange.png,q,13,1,53,3,1,w,left_blue.png,left_orange.png,q,right,60ff46310ae1809cbbd2240a,001,2021-08-01_12h29.03.542,arrow_simon_norep,2021.1.2,Win32,60.07449237,,,,,,,,,,,,,,,,,,,,,,,,,,,,,,,,,,,,,,
,,,p,0,1.4337,1,0.818575846,#a3d0fb,,right_blue.png,o,13,2,54,1,1,o,right_blue.png,right_orange.png,p,right,60ff46310ae1809cbbd2240a,001,2021-08-01_12h29.03.542,arrow_simon_norep,2021.1.2,Win32,60.07449237,,,,,,,,,,,,,,,,,,,,,,,,,,,,,,,,,,,,,,
,,,p,1,2.0956,0,0.597436826,#f3af84,,right_orange.png,p,13,3,55,1,1,o,right_blue.png,right_orange.png,p,right,60ff46310ae1809cbbd2240a,001,2021-08-01_12h29.03.542,arrow_simon_norep,2021.1.2,Win32,60.07449237,,,,,,,,,,,,,,,,,,,,,,,,,,,,,,,,,,,,,,
,,,w,1,1.0108,0,0.020459437,#a3d0fb,,left_blue.png,w,14,0,56,3,1,w,left_blue.png,left_orange.png,q,right,60ff46310ae1809cbbd2240a,001,2021-08-01_12h29.03.542,arrow_simon_norep,2021.1.2,Win32,60.07449237,,,,,,,,,,,,,,,,,,,,,,,,,,,,,,,,,,,,,,
,,,q,1,1.6667,0,0.729104699,#f3af84,,left_orange.png,q,14,1,57,2,1,w,left_blue.png,left_orange.png,q,left,60ff46310ae1809cbbd2240a,001,2021-08-01_12h29.03.542,arrow_simon_norep,2021.1.2,Win32,60.07449237,,,,,,,,,,,,,,,,,,,,,,,,,,,,,,,,,,,,,,
,,,o,1,1.483,0,0.531576692,#a3d0fb,,right_blue.png,o,14,2,58,1,1,o,right_blue.png,right_orange.png,p,right,60ff46310ae1809cbbd2240a,001,2021-08-01_12h29.03.542,arrow_simon_norep,2021.1.2,Win32,60.07449237,,,,,,,,,,,,,,,,,,,,,,,,,,,,,,,,,,,,,,
,,,p,1,1.1571,0,0.487396519,#f3af84,,right_orange.png,p,14,3,59,1,1,o,right_blue.png,right_orange.png,p,right,60ff46310ae1809cbbd2240a,001,2021-08-01_12h29.03.542,arrow_simon_norep,2021.1.2,Win32,60.07449237,,,,,,,,,,,,,,,,,,,,,,,,,,,,,,,,,,,,,,
,,,,,,,,,,,,,,,,,,,,,,60ff46310ae1809cbbd2240a,001,2021-08-01_12h29.03.542,arrow_simon_norep,2021.1.2,Win32,60.07449237,space,4.0212,0,0,0,0,1,,,,,,,,,,,,,,,,,,,,,,,,,,,,,,,
,,,w,1,3.2062,0,0.866312253,#a3d0fb,,left_blue.png,w,0,0,0,3,1,w,left_blue.png,left_orange.png,q,right,60ff46310ae1809cbbd2240a,001,2021-08-01_12h29.03.542,arrow_simon_norep,2021.1.2,Win32,60.07449237,,,,,,,,,,,,,,,,,,,,,,,,,,,,,,,,,,,,,,
,,,p,1,1.236,0,0.265108106,#f3af84,,right_orange.png,p,0,1,1,1,1,o,right_blue.png,right_orange.png,p,right,60ff46310ae1809cbbd2240a,001,2021-08-01_12h29.03.542,arrow_simon_norep,2021.1.2,Win32,60.07449237,,,,,,,,,,,,,,,,,,,,,,,,,,,,,,,,,,,,,,
,,,o,1,1.262,0,0.297990724,#a3d0fb,,right_blue.png,o,0,2,2,1,1,o,right_blue.png,right_orange.png,p,right,60ff46310ae1809cbbd2240a,001,2021-08-01_12h29.03.542,arrow_simon_norep,2021.1.2,Win32,60.07449237,,,,,,,,,,,,,,,,,,,,,,,,,,,,,,,,,,,,,,
,,,q,1,1.5301,0,0.593418048,#f3af84,,left_orange.png,q,0,3,3,3,1,w,left_blue.png,left_orange.png,q,right,60ff46310ae1809cbbd2240a,001,2021-08-01_12h29.03.542,arrow_simon_norep,2021.1.2,Win32,60.07449237,,,,,,,,,,,,,,,,,,,,,,,,,,,,,,,,,,,,,,
,,,w,1,0.9707,0,0.073306295,#a3d0fb,,left_blue.png,w,1,0,4,3,1,w,left_blue.png,left_orange.png,q,right,60ff46310ae1809cbbd2240a,001,2021-08-01_12h29.03.542,arrow_simon_norep,2021.1.2,Win32,60.07449237,,,,,,,,,,,,,,,,,,,,,,,,,,,,,,,,,,,,,,
,,,q,1,1.3722,0,0.870392196,#f3af84,,left_orange.png,q,1,1,5,2,1,w,left_blue.png,left_orange.png,q,left,60ff46310ae1809cbbd2240a,001,2021-08-01_12h29.03.542,arrow_simon_norep,2021.1.2,Win32,60.07449237,,,,,,,,,,,,,,,,,,,,,,,,,,,,,,,,,,,,,,
,,,q,0,1.2623,1,0.594256064,#a3d0fb,,left_blue.png,w,1,2,6,2,1,w,left_blue.png,left_orange.png,q,left,60ff46310ae1809cbbd2240a,001,2021-08-01_12h29.03.542,arrow_simon_norep,2021.1.2,Win32,60.07449237,,,,,,,,,,,,,,,,,,,,,,,,,,,,,,,,,,,,,,
,,,q,1,0.8993,0,0.179577668,#f3af84,,left_orange.png,q,1,3,7,2,1,w,left_blue.png,left_orange.png,q,left,60ff46310ae1809cbbd2240a,001,2021-08-01_12h29.03.542,arrow_simon_norep,2021.1.2,Win32,60.07449237,,,,,,,,,,,,,,,,,,,,,,,,,,,,,,,,,,,,,,
,,,o,1,1.5608,0,0.864488327,#a3d0fb,,right_blue.png,o,2,0,8,0,1,o,right_blue.png,right_orange.png,p,left,60ff46310ae1809cbbd2240a,001,2021-08-01_12h29.03.542,arrow_simon_norep,2021.1.2,Win32,60.07449237,,,,,,,,,,,,,,,,,,,,,,,,,,,,,,,,,,,,,,
,,,q,1,1.2222,0,0.144194895,#f3af84,,left_orange.png,q,2,1,9,2,1,w,left_blue.png,left_orange.png,q,left,60ff46310ae1809cbbd2240a,001,2021-08-01_12h29.03.542,arrow_simon_norep,2021.1.2,Win32,60.07449237,,,,,,,,,,,,,,,,,,,,,,,,,,,,,,,,,,,,,,
,,,w,1,1.1194,0,0.309134195,#a3d0fb,,left_blue.png,w,2,2,10,2,1,w,left_blue.png,left_orange.png,q,left,60ff46310ae1809cbbd2240a,001,2021-08-01_12h29.03.542,arrow_simon_norep,2021.1.2,Win32,60.07449237,,,,,,,,,,,,,,,,,,,,,,,,,,,,,,,,,,,,,,
,,,p,1,1.6305,0,0.981026644,#f3af84,,right_orange.png,p,2,3,11,0,1,o,right_blue.png,right_orange.png,p,left,60ff46310ae1809cbbd2240a,001,2021-08-01_12h29.03.542,arrow_simon_norep,2021.1.2,Win32,60.07449237,,,,,,,,,,,,,,,,,,,,,,,,,,,,,,,,,,,,,,
,,,w,1,1.5945,0,0.79248793,#a3d0fb,,left_blue.png,w,3,0,12,2,1,w,left_blue.png,left_orange.png,q,left,60ff46310ae1809cbbd2240a,001,2021-08-01_12h29.03.542,arrow_simon_norep,2021.1.2,Win32,60.07449237,,,,,,,,,,,,,,,,,,,,,,,,,,,,,,,,,,,,,,
,,,p,1,1.1151,0,0.311036319,#f3af84,,right_orange.png,p,3,1,13,1,1,o,right_blue.png,right_orange.png,p,right,60ff46310ae1809cbbd2240a,001,2021-08-01_12h29.03.542,arrow_simon_norep,2021.1.2,Win32,60.07449237,,,,,,,,,,,,,,,,,,,,,,,,,,,,,,,,,,,,,,
,,,w,1,1.5002,0,0.598058892,#a3d0fb,,left_blue.png,w,3,2,14,2,1,w,left_blue.png,left_orange.png,q,left,60ff46310ae1809cbbd2240a,001,2021-08-01_12h29.03.542,arrow_simon_norep,2021.1.2,Win32,60.07449237,,,,,,,,,,,,,,,,,,,,,,,,,,,,,,,,,,,,,,
,,,q,1,2.4016,0,0.039573793,#f3af84,,left_orange.png,q,3,3,15,2,1,w,left_blue.png,left_orange.png,q,left,60ff46310ae1809cbbd2240a,001,2021-08-01_12h29.03.542,arrow_simon_norep,2021.1.2,Win32,60.07449237,,,,,,,,,,,,,,,,,,,,,,,,,,,,,,,,,,,,,,
,,,o,1,1.5114,0,0.747841183,#a3d0fb,,right_blue.png,o,4,0,16,0,1,o,right_blue.png,right_orange.png,p,left,60ff46310ae1809cbbd2240a,001,2021-08-01_12h29.03.542,arrow_simon_norep,2021.1.2,Win32,60.07449237,,,,,,,,,,,,,,,,,,,,,,,,,,,,,,,,,,,,,,
,,,p,1,0.9669,0,0.199077954,#f3af84,,right_orange.png,p,4,1,17,1,1,o,right_blue.png,right_orange.png,p,right,60ff46310ae1809cbbd2240a,001,2021-08-01_12h29.03.542,arrow_simon_norep,2021.1.2,Win32,60.07449237,,,,,,,,,,,,,,,,,,,,,,,,,,,,,,,,,,,,,,
,,,w,1,1.3234,0,0.266150393,#a3d0fb,,left_blue.png,w,4,2,18,3,1,w,left_blue.png,left_orange.png,q,right,60ff46310ae1809cbbd2240a,001,2021-08-01_12h29.03.542,arrow_simon_norep,2021.1.2,Win32,60.07449237,,,,,,,,,,,,,,,,,,,,,,,,,,,,,,,,,,,,,,
,,,q,1,1.3918,0,0.631216241,#f3af84,,left_orange.png,q,4,3,19,3,1,w,left_blue.png,left_orange.png,q,right,60ff46310ae1809cbbd2240a,001,2021-08-01_12h29.03.542,arrow_simon_norep,2021.1.2,Win32,60.07449237,,,,,,,,,,,,,,,,,,,,,,,,,,,,,,,,,,,,,,
,,,w,1,0.7562,0,0.113166725,#a3d0fb,,left_blue.png,w,5,0,20,3,1,w,left_blue.png,left_orange.png,q,right,60ff46310ae1809cbbd2240a,001,2021-08-01_12h29.03.542,arrow_simon_norep,2021.1.2,Win32,60.07449237,,,,,,,,,,,,,,,,,,,,,,,,,,,,,,,,,,,,,,
,,,q,1,1.448,0,0.698715875,#f3af84,,left_orange.png,q,5,1,21,2,1,w,left_blue.png,left_orange.png,q,left,60ff46310ae1809cbbd2240a,001,2021-08-01_12h29.03.542,arrow_simon_norep,2021.1.2,Win32,60.07449237,,,,,,,,,,,,,,,,,,,,,,,,,,,,,,,,,,,,,,
,,,o,1,1.4001,0,0.815789391,#a3d0fb,,right_blue.png,o,5,2,22,1,1,o,right_blue.png,right_orange.png,p,right,60ff46310ae1809cbbd2240a,001,2021-08-01_12h29.03.542,arrow_simon_norep,2021.1.2,Win32,60.07449237,,,,,,,,,,,,,,,,,,,,,,,,,,,,,,,,,,,,,,
,,,p,1,1.7533,0,0.864545729,#f3af84,,right_orange.png,p,5,3,23,0,1,o,right_blue.png,right_orange.png,p,left,60ff46310ae1809cbbd2240a,001,2021-08-01_12h29.03.542,arrow_simon_norep,2021.1.2,Win32,60.07449237,,,,,,,,,,,,,,,,,,,,,,,,,,,,,,,,,,,,,,
,,,q,0,1.5361,1,0.957313504,#a3d0fb,,left_blue.png,w,6,0,24,2,1,w,left_blue.png,left_orange.png,q,left,60ff46310ae1809cbbd2240a,001,2021-08-01_12h29.03.542,arrow_simon_norep,2021.1.2,Win32,60.07449237,,,,,,,,,,,,,,,,,,,,,,,,,,,,,,,,,,,,,,
,,,p,1,1.2818,0,0.328561367,#f3af84,,right_orange.png,p,6,1,25,0,1,o,right_blue.png,right_orange.png,p,left,60ff46310ae1809cbbd2240a,001,2021-08-01_12h29.03.542,arrow_simon_norep,2021.1.2,Win32,60.07449237,,,,,,,,,,,,,,,,,,,,,,,,,,,,,,,,,,,,,,
,,,o,1,2.0818,0,0.944922129,#a3d0fb,,right_blue.png,o,6,2,26,1,1,o,right_blue.png,right_orange.png,p,right,60ff46310ae1809cbbd2240a,001,2021-08-01_12h29.03.542,arrow_simon_norep,2021.1.2,Win32,60.07449237,,,,,,,,,,,,,,,,,,,,,,,,,,,,,,,,,,,,,,
,,,p,1,1.5483,0,0.615224122,#f3af84,,right_orange.png,p,6,3,27,0,1,o,right_blue.png,right_orange.png,p,left,60ff46310ae1809cbbd2240a,001,2021-08-01_12h29.03.542,arrow_simon_norep,2021.1.2,Win32,60.07449237,,,,,,,,,,,,,,,,,,,,,,,,,,,,,,,,,,,,,,
,,,w,1,0.7709,0,0.019714591,#a3d0fb,,left_blue.png,w,7,0,28,2,1,w,left_blue.png,left_orange.png,q,left,60ff46310ae1809cbbd2240a,001,2021-08-01_12h29.03.542,arrow_simon_norep,2021.1.2,Win32,60.07449237,,,,,,,,,,,,,,,,,,,,,,,,,,,,,,,,,,,,,,
,,,p,1,0.9719,0,0.126099201,#f3af84,,right_orange.png,p,7,1,29,1,1,o,right_blue.png,right_orange.png,p,right,60ff46310ae1809cbbd2240a,001,2021-08-01_12h29.03.542,arrow_simon_norep,2021.1.2,Win32,60.07449237,,,,,,,,,,,,,,,,,,,,,,,,,,,,,,,,,,,,,,
,,,o,1,1.8219,0,0.869975939,#a3d0fb,,right_blue.png,o,7,2,30,0,1,o,right_blue.png,right_orange.png,p,left,60ff46310ae1809cbbd2240a,001,2021-08-01_12h29.03.542,arrow_simon_norep,2021.1.2,Win32,60.07449237,,,,,,,,,,,,,,,,,,,,,,,,,,,,,,,,,,,,,,
,,,q,1,1.7268,0,0.886942679,#f3af84,,left_orange.png,q,7,3,31,2,1,w,left_blue.png,left_orange.png,q,left,60ff46310ae1809cbbd2240a,001,2021-08-01_12h29.03.542,arrow_simon_norep,2021.1.2,Win32,60.07449237,,,,,,,,,,,,,,,,,,,,,,,,,,,,,,,,,,,,,,
,,,o,1,1.136,0,0.475193318,#a3d0fb,,right_blue.png,o,8,0,32,1,1,o,right_blue.png,right_orange.png,p,right,60ff46310ae1809cbbd2240a,001,2021-08-01_12h29.03.542,arrow_simon_norep,2021.1.2,Win32,60.07449237,,,,,,,,,,,,,,,,,,,,,,,,,,,,,,,,,,,,,,
,,,p,1,1.8308,0,0.364079159,#f3af84,,right_orange.png,p,8,1,33,1,1,o,right_blue.png,right_orange.png,p,right,60ff46310ae1809cbbd2240a,001,2021-08-01_12h29.03.542,arrow_simon_norep,2021.1.2,Win32,60.07449237,,,,,,,,,,,,,,,,,,,,,,,,,,,,,,,,,,,,,,
,,,o,1,1.2033,0,0.51359906,#a3d0fb,,right_blue.png,o,8,2,34,1,1,o,right_blue.png,right_orange.png,p,right,60ff46310ae1809cbbd2240a,001,2021-08-01_12h29.03.542,arrow_simon_norep,2021.1.2,Win32,60.07449237,,,,,,,,,,,,,,,,,,,,,,,,,,,,,,,,,,,,,,
,,,p,1,1.0819,0,0.193980344,#f3af84,,right_orange.png,p,8,3,35,0,1,o,right_blue.png,right_orange.png,p,left,60ff46310ae1809cbbd2240a,001,2021-08-01_12h29.03.542,arrow_simon_norep,2021.1.2,Win32,60.07449237,,,,,,,,,,,,,,,,,,,,,,,,,,,,,,,,,,,,,,
,,,p,0,0.8652,1,0.344130852,#a3d0fb,,right_blue.png,o,9,0,36,0,1,o,right_blue.png,right_orange.png,p,left,60ff46310ae1809cbbd2240a,001,2021-08-01_12h29.03.542,arrow_simon_norep,2021.1.2,Win32,60.07449237,,,,,,,,,,,,,,,,,,,,,,,,,,,,,,,,,,,,,,
,,,p,1,1.8975,0,0.900350036,#f3af84,,right_orange.png,p,9,1,37,0,1,o,right_blue.png,right_orange.png,p,left,60ff46310ae1809cbbd2240a,001,2021-08-01_12h29.03.542,arrow_simon_norep,2021.1.2,Win32,60.07449237,,,,,,,,,,,,,,,,,,,,,,,,,,,,,,,,,,,,,,
,,,w,1,1.5166,0,0.877624216,#a3d0fb,,left_blue.png,w,9,2,38,3,1,w,left_blue.png,left_orange.png,q,right,60ff46310ae1809cbbd2240a,001,2021-08-01_12h29.03.542,arrow_simon_norep,2021.1.2,Win32,60.07449237,,,,,,,,,,,,,,,,,,,,,,,,,,,,,,,,,,,,,,
,,,p,1,1.0402,0,0.455764033,#f3af84,,right_orange.png,p,9,3,39,0,1,o,right_blue.png,right_orange.png,p,left,60ff46310ae1809cbbd2240a,001,2021-08-01_12h29.03.542,arrow_simon_norep,2021.1.2,Win32,60.07449237,,,,,,,,,,,,,,,,,,,,,,,,,,,,,,,,,,,,,,
,,,w,1,1.0956,0,0.191810886,#a3d0fb,,left_blue.png,w,10,0,40,2,1,w,left_blue.png,left_orange.png,q,left,60ff46310ae1809cbbd2240a,001,2021-08-01_12h29.03.542,arrow_simon_norep,2021.1.2,Win32,60.07449237,,,,,,,,,,,,,,,,,,,,,,,,,,,,,,,,,,,,,,
,,,q,1,1.8326,0,0.387237336,#f3af84,,left_orange.png,q,10,1,41,3,1,w,left_blue.png,left_orange.png,q,right,60ff46310ae1809cbbd2240a,001,2021-08-01_12h29.03.542,arrow_simon_norep,2021.1.2,Win32,60.07449237,,,,,,,,,,,,,,,,,,,,,,,,,,,,,,,,,,,,,,
,,,o,1,1.4987,0,0.721349022,#a3d0fb,,right_blue.png,o,10,2,42,1,1,o,right_blue.png,right_orange.png,p,right,60ff46310ae1809cbbd2240a,001,2021-08-01_12h29.03.542,arrow_simon_norep,2021.1.2,Win32,60.07449237,,,,,,,,,,,,,,,,,,,,,,,,,,,,,,,,,,,,,,
,,,q,1,1.3648,0,0.661949796,#f3af84,,left_orange.png,q,10,3,43,3,1,w,left_blue.png,left_orange.png,q,right,60ff46310ae1809cbbd2240a,001,2021-08-01_12h29.03.542,arrow_simon_norep,2021.1.2,Win32,60.07449237,,,,,,,,,,,,,,,,,,,,,,,,,,,,,,,,,,,,,,
,,,w,1,1.5649,0,0.292593904,#a3d0fb,,left_blue.png,w,11,0,44,3,1,w,left_blue.png,left_orange.png,q,right,60ff46310ae1809cbbd2240a,001,2021-08-01_12h29.03.542,arrow_simon_norep,2021.1.2,Win32,60.07449237,,,,,,,,,,,,,,,,,,,,,,,,,,,,,,,,,,,,,,
,,,q,1,1.2863,0,0.673292785,#f3af84,,left_orange.png,q,11,1,45,3,1,w,left_blue.png,left_orange.png,q,right,60ff46310ae1809cbbd2240a,001,2021-08-01_12h29.03.542,arrow_simon_norep,2021.1.2,Win32,60.07449237,,,,,,,,,,,,,,,,,,,,,,,,,,,,,,,,,,,,,,
,,,o,1,1.1443,0,0.471142638,#a3d0fb,,right_blue.png,o,11,2,46,1,1,o,right_blue.png,right_orange.png,p,right,60ff46310ae1809cbbd2240a,001,2021-08-01_12h29.03.542,arrow_simon_norep,2021.1.2,Win32,60.07449237,,,,,,,,,,,,,,,,,,,,,,,,,,,,,,,,,,,,,,
,,,p,1,1.4011,0,0.806162391,#f3af84,,right_orange.png,p,11,3,47,1,1,o,right_blue.png,right_orange.png,p,right,60ff46310ae1809cbbd2240a,001,2021-08-01_12h29.03.542,arrow_simon_norep,2021.1.2,Win32,60.07449237,,,,,,,,,,,,,,,,,,,,,,,,,,,,,,,,,,,,,,
,,,o,1,1.2662,0,0.439910222,#a3d0fb,,right_blue.png,o,12,0,48,0,1,o,right_blue.png,right_orange.png,p,left,60ff46310ae1809cbbd2240a,001,2021-08-01_12h29.03.542,arrow_simon_norep,2021.1.2,Win32,60.07449237,,,,,,,,,,,,,,,,,,,,,,,,,,,,,,,,,,,,,,
,,,q,1,1.528,0,0.527105443,#f3af84,,left_orange.png,q,12,1,49,3,1,w,left_blue.png,left_orange.png,q,right,60ff46310ae1809cbbd2240a,001,2021-08-01_12h29.03.542,arrow_simon_norep,2021.1.2,Win32,60.07449237,,,,,,,,,,,,,,,,,,,,,,,,,,,,,,,,,,,,,,
,,,w,1,1.4964,0,0.918350909,#a3d0fb,,left_blue.png,w,12,2,50,2,1,w,left_blue.png,left_orange.png,q,left,60ff46310ae1809cbbd2240a,001,2021-08-01_12h29.03.542,arrow_simon_norep,2021.1.2,Win32,60.07449237,,,,,,,,,,,,,,,,,,,,,,,,,,,,,,,,,,,,,,
,,,q,1,1.2466,0,0.526964116,#f3af84,,left_orange.png,q,12,3,51,3,1,w,left_blue.png,left_orange.png,q,right,60ff46310ae1809cbbd2240a,001,2021-08-01_12h29.03.542,arrow_simon_norep,2021.1.2,Win32,60.07449237,,,,,,,,,,,,,,,,,,,,,,,,,,,,,,,,,,,,,,
,,,w,1,1.6108,0,0.802422945,#a3d0fb,,left_blue.png,w,13,0,52,3,1,w,left_blue.png,left_orange.png,q,right,60ff46310ae1809cbbd2240a,001,2021-08-01_12h29.03.542,arrow_simon_norep,2021.1.2,Win32,60.07449237,,,,,,,,,,,,,,,,,,,,,,,,,,,,,,,,,,,,,,
,,,p,1,0.9037,0,0.434155509,#f3af84,,right_orange.png,p,13,1,53,0,1,o,right_blue.png,right_orange.png,p,left,60ff46310ae1809cbbd2240a,001,2021-08-01_12h29.03.542,arrow_simon_norep,2021.1.2,Win32,60.07449237,,,,,,,,,,,,,,,,,,,,,,,,,,,,,,,,,,,,,,
,,,o,1,0.7356,0,0.339838886,#a3d0fb,,right_blue.png,o,13,2,54,1,1,o,right_blue.png,right_orange.png,p,right,60ff46310ae1809cbbd2240a,001,2021-08-01_12h29.03.542,arrow_simon_norep,2021.1.2,Win32,60.07449237,,,,,,,,,,,,,,,,,,,,,,,,,,,,,,,,,,,,,,
,,,p,1,0.9457,0,0.492897113,#f3af84,,right_orange.png,p,13,3,55,1,1,o,right_blue.png,right_orange.png,p,right,60ff46310ae1809cbbd2240a,001,2021-08-01_12h29.03.542,arrow_simon_norep,2021.1.2,Win32,60.07449237,,,,,,,,,,,,,,,,,,,,,,,,,,,,,,,,,,,,,,
,,,w,1,1.4316,0,0.907098224,#a3d0fb,,left_blue.png,w,14,0,56,3,1,w,left_blue.png,left_orange.png,q,right,60ff46310ae1809cbbd2240a,001,2021-08-01_12h29.03.542,arrow_simon_norep,2021.1.2,Win32,60.07449237,,,,,,,,,,,,,,,,,,,,,,,,,,,,,,,,,,,,,,
,,,p,1,1.6541,0,0.94009706,#f3af84,,right_orange.png,p,14,1,57,0,1,o,right_blue.png,right_orange.png,p,left,60ff46310ae1809cbbd2240a,001,2021-08-01_12h29.03.542,arrow_simon_norep,2021.1.2,Win32,60.07449237,,,,,,,,,,,,,,,,,,,,,,,,,,,,,,,,,,,,,,
,,,q,0,1.5256,1,0.989363129,#a3d0fb,,left_blue.png,w,14,2,58,2,1,w,left_blue.png,left_orange.png,q,left,60ff46310ae1809cbbd2240a,001,2021-08-01_12h29.03.542,arrow_simon_norep,2021.1.2,Win32,60.07449237,,,,,,,,,,,,,,,,,,,,,,,,,,,,,,,,,,,,,,
,,,p,1,1.7253,0,0.075471093,#f3af84,,right_orange.png,p,14,3,59,0,1,o,right_blue.png,right_orange.png,p,left,60ff46310ae1809cbbd2240a,001,2021-08-01_12h29.03.542,arrow_simon_norep,2021.1.2,Win32,60.07449237,,,,,,,,,,,,,,,,,,,,,,,,,,,,,,,,,,,,,,
,,,,,,,,,,,,,,,,,,,,,,60ff46310ae1809cbbd2240a,001,2021-08-01_12h29.03.542,arrow_simon_norep,2021.1.2,Win32,60.07449237,space,4.947,1,0,1,0,1,,,,,,,,,,,,,,,,,,,,,,,,,,,,,,,
,,,,,,,,,,,,,,,,,,,,,,60ff46310ae1809cbbd2240a,001,2021-08-01_12h29.03.542,arrow_simon_norep,2021.1.2,Win32,60.07449237,,,,,,,,space,0,34.8868,o,1.5823,0,0,0,0,1,,,,,,,,,,,,,,,,,,,,,
,,,,,,,,,,,,,,,,,,,,,,60ff46310ae1809cbbd2240a,001,2021-08-01_12h29.03.542,arrow_simon_norep,2021.1.2,Win32,60.07449237,,,,,,,,,,,o,2.8257,1,0,1,0,1,,,,,,,,,,,,,,,,,,,,,
,,,,,,,,,,,,,,,,,,,,,,60ff46310ae1809cbbd2240a,001,2021-08-01_12h29.03.542,arrow_simon_norep,2021.1.2,Win32,60.07449237,,,,,,,,,,,o,2.4,2,0,2,0,1,,,,,,,,,,,,,,,,,,,,,
,,,,,,,,,,,,,,,,,,,,,,60ff46310ae1809cbbd2240a,001,2021-08-01_12h29.03.542,arrow_simon_norep,2021.1.2,Win32,60.07449237,,,,,,,,,,,p,2.2972,3,0,3,0,1,,,,,,,,,,,,,,,,,,,,,
,,,,,,,,,,,,,,,,,,,,,,60ff46310ae1809cbbd2240a,001,2021-08-01_12h29.03.542,arrow_simon_norep,2021.1.2,Win32,60.07449237,,,,,,,,,,,o,2.3594,4,0,4,0,1,,,,,,,,,,,,,,,,,,,,,
,,,,,,,,,,,,,,,,,,,,,,60ff46310ae1809cbbd2240a,001,2021-08-01_12h29.03.542,arrow_simon_norep,2021.1.2,Win32,60.07449237,,,,,,,,,,,p,2.4799,5,0,5,0,1,,,,,,,,,,,,,,,,,,,,,
,,,,,,,,,,,,,,,,,,,,,,60ff46310ae1809cbbd2240a,001,2021-08-01_12h29.03.542,arrow_simon_norep,2021.1.2,Win32,60.07449237,,,,,,,,,,,o,2.369,6,0,6,0,1,,,,,,,,,,,,,,,,,,,,,
,,,,,,,,,,,,,,,,,,,,,,60ff46310ae1809cbbd2240a,001,2021-08-01_12h29.03.542,arrow_simon_norep,2021.1.2,Win32,60.07449237,,,,,,,,,,,p,2.4286,7,0,7,0,1,,,,,,,,,,,,,,,,,,,,,
,,,,,,,,,,,,,,,,,,,,,,60ff46310ae1809cbbd2240a,001,2021-08-01_12h29.03.542,arrow_simon_norep,2021.1.2,Win32,60.07449237,,,,,,,,,,,q,2.3966,8,0,8,0,1,,,,,,,,,,,,,,,,,,,,,
,,,,,,,,,,,,,,,,,,,,,,60ff46310ae1809cbbd2240a,001,2021-08-01_12h29.03.542,arrow_simon_norep,2021.1.2,Win32,60.07449237,,,,,,,,,,,w,2.5593,9,0,9,0,1,,,,,,,,,,,,,,,,,,,,,
,,,,,,,,,,,,,,,,,,,,,,60ff46310ae1809cbbd2240a,001,2021-08-01_12h29.03.542,arrow_simon_norep,2021.1.2,Win32,60.07449237,,,,,,,,,,,o,2.4453,10,0,10,0,1,,,,,,,,,,,,,,,,,,,,,
,,,,,,,,,,,,,,,,,,,,,,60ff46310ae1809cbbd2240a,001,2021-08-01_12h29.03.542,arrow_simon_norep,2021.1.2,Win32,60.07449237,,,,,,,,,,,p,2.5189,11,0,11,0,1,,,,,,,,,,,,,,,,,,,,,
,,,,,,,,,,,,,,,,,,,,,,60ff46310ae1809cbbd2240a,001,2021-08-01_12h29.03.542,arrow_simon_norep,2021.1.2,Win32,60.07449237,,,,,,,,,,,o,2.4492,12,0,12,0,1,,,,,,,,,,,,,,,,,,,,,
,,,,,,,,,,,,,,,,,,,,,,60ff46310ae1809cbbd2240a,001,2021-08-01_12h29.03.542,arrow_simon_norep,2021.1.2,Win32,60.07449237,,,,,,,,,,,w,2.5531,13,0,13,0,1,,,,,,,,,,,,,,,,,,,,,
,,,,,,,,,,,,,,,,,,,,,,60ff46310ae1809cbbd2240a,001,2021-08-01_12h29.03.542,arrow_simon_norep,2021.1.2,Win32,60.07449237,,,,,,,,,,,w,2.4586,14,0,14,0,1,,,,,,,,,,,,,,,,,,,,,
,,,,,,,,,,,,,,,,,,,,,,60ff46310ae1809cbbd2240a,001,2021-08-01_12h29.03.542,arrow_simon_norep,2021.1.2,Win32,60.07449237,,,,,,,,,,,p,2.4494,15,0,15,0,1,,,,,,,,,,,,,,,,,,,,,
,,,,,,,,,,,,,,,,,,,,,,60ff46310ae1809cbbd2240a,001,2021-08-01_12h29.03.542,arrow_simon_norep,2021.1.2,Win32,60.07449237,,,,,,,,,,,o,2.4656,16,0,16,0,1,,,,,,,,,,,,,,,,,,,,,
,,,,,,,,,,,,,,,,,,,,,,60ff46310ae1809cbbd2240a,001,2021-08-01_12h29.03.542,arrow_simon_norep,2021.1.2,Win32,60.07449237,,,,,,,,,,,q,2.5568,17,0,17,0,1,,,,,,,,,,,,,,,,,,,,,
,,,,,,,,,,,,,,,,,,,,,,60ff46310ae1809cbbd2240a,001,2021-08-01_12h29.03.542,arrow_simon_norep,2021.1.2,Win32,60.07449237,,,,,,,,,,,w,2.5928,18,0,18,0,1,,,,,,,,,,,,,,,,,,,,,
,,,,,,,,,,,,,,,,,,,,,,60ff46310ae1809cbbd2240a,001,2021-08-01_12h29.03.542,arrow_simon_norep,2021.1.2,Win32,60.07449237,,,,,,,,,,,p,2.3799,19,0,19,0,1,,,,,,,,,,,,,,,,,,,,,
,,,,,,,,,,,,,,,,,,,,,,60ff46310ae1809cbbd2240a,001,2021-08-01_12h29.03.542,arrow_simon_norep,2021.1.2,Win32,60.07449237,,,,,,,,,,,o,2.4403,20,0,20,0,1,,,,,,,,,,,,,,,,,,,,,
,,,,,,,,,,,,,,,,,,,,,,60ff46310ae1809cbbd2240a,001,2021-08-01_12h29.03.542,arrow_simon_norep,2021.1.2,Win32,60.07449237,,,,,,,,,,,q,2.493,21,0,21,0,1,,,,,,,,,,,,,,,,,,,,,
,,,,,,,,,,,,,,,,,,,,,,60ff46310ae1809cbbd2240a,001,2021-08-01_12h29.03.542,arrow_simon_norep,2021.1.2,Win32,60.07449237,,,,,,,,,,,w,2.4443,22,0,22,0,1,,,,,,,,,,,,,,,,,,,,,
,,,,,,,,,,,,,,,,,,,,,,60ff46310ae1809cbbd2240a,001,2021-08-01_12h29.03.542,arrow_simon_norep,2021.1.2,Win32,60.07449237,,,,,,,,,,,p,2.4823,23,0,23,0,1,,,,,,,,,,,,,,,,,,,,,
,,,,,,,,,,,,,,,,,,,,,,60ff46310ae1809cbbd2240a,001,2021-08-01_12h29.03.542,arrow_simon_norep,2021.1.2,Win32,60.07449237,,,,,,,,,,,o,2.4418,24,0,24,0,1,,,,,,,,,,,,,,,,,,,,,
,,,,,,,,,,,,,,,,,,,,,,60ff46310ae1809cbbd2240a,001,2021-08-01_12h29.03.542,arrow_simon_norep,2021.1.2,Win32,60.07449237,,,,,,,,,,,q,2.4145,25,0,25,0,1,,,,,,,,,,,,,,,,,,,,,
,,,,,,,,,,,,,,,,,,,,,,60ff46310ae1809cbbd2240a,001,2021-08-01_12h29.03.542,arrow_simon_norep,2021.1.2,Win32,60.07449237,,,,,,,,,,,w,2.4173,26,0,26,0,1,,,,,,,,,,,,,,,,,,,,,
,,,,,,,,,,,,,,,,,,,,,,60ff46310ae1809cbbd2240a,001,2021-08-01_12h29.03.542,arrow_simon_norep,2021.1.2,Win32,60.07449237,,,,,,,,,,,p,2.4354,27,0,27,0,1,,,,,,,,,,,,,,,,,,,,,
,,,,,,,,,,,,,,,,,,,,,,60ff46310ae1809cbbd2240a,001,2021-08-01_12h29.03.542,arrow_simon_norep,2021.1.2,Win32,60.07449237,,,,,,,,,,,o,2.4654,28,0,28,0,1,,,,,,,,,,,,,,,,,,,,,
,,,,,,,,,,,,,,,,,,,,,,60ff46310ae1809cbbd2240a,001,2021-08-01_12h29.03.542,arrow_simon_norep,2021.1.2,Win32,60.07449237,,,,,,,,,,,p,2.399,29,0,29,0,1,,,,,,,,,,,,,,,,,,,,,
,,,,,,,,,,,,,,,,,,,,,,60ff46310ae1809cbbd2240a,001,2021-08-01_12h29.03.542,arrow_simon_norep,2021.1.2,Win32,60.07449237,,,,,,,,,,,o,2.4583,30,0,30,0,1,,,,,,,,,,,,,,,,,,,,,
,,,,,,,,,,,,,,,,,,,,,,60ff46310ae1809cbbd2240a,001,2021-08-01_12h29.03.542,arrow_simon_norep,2021.1.2,Win32,60.07449237,,,,,,,,,,,q,2.4433,31,0,31,0,1,,,,,,,,,,,,,,,,,,,,,
,,,,,,,,,,,,,,,,,,,,,,60ff46310ae1809cbbd2240a,001,2021-08-01_12h29.03.542,arrow_simon_norep,2021.1.2,Win32,60.07449237,,,,,,,,,,,q,2.083,32,0,32,0,1,,,,,,,,,,,,,,,,,,,,,
,,,,,,,,,,,,,,,,,,,,,,60ff46310ae1809cbbd2240a,001,2021-08-01_12h29.03.542,arrow_simon_norep,2021.1.2,Win32,60.07449237,,,,,,,,,,,q,2.5506,33,0,33,0,1,,,,,,,,,,,,,,,,,,,,,
,,,,,,,,,,,,,,,,,,,,,,60ff46310ae1809cbbd2240a,001,2021-08-01_12h29.03.542,arrow_simon_norep,2021.1.2,Win32,60.07449237,,,,,,,,,,,o,2.4081,34,0,34,0,1,,,,,,,,,,,,,,,,,,,,,
,,,,,,,,,,,,,,,,,,,,,,60ff46310ae1809cbbd2240a,001,2021-08-01_12h29.03.542,arrow_simon_norep,2021.1.2,Win32,60.07449237,,,,,,,,,,,p,2.4089,35,0,35,0,1,,,,,,,,,,,,,,,,,,,,,
,,,,,,,,,,,,,,,,,,,,,,60ff46310ae1809cbbd2240a,001,2021-08-01_12h29.03.542,arrow_simon_norep,2021.1.2,Win32,60.07449237,,,,,,,,,,,o,2.5419,36,0,36,0,1,,,,,,,,,,,,,,,,,,,,,
,,,,,,,,,,,,,,,,,,,,,,60ff46310ae1809cbbd2240a,001,2021-08-01_12h29.03.542,arrow_simon_norep,2021.1.2,Win32,60.07449237,,,,,,,,,,,p,2.506,37,0,37,0,1,,,,,,,,,,,,,,,,,,,,,
,,,,,,,,,,,,,,,,,,,,,,60ff46310ae1809cbbd2240a,001,2021-08-01_12h29.03.542,arrow_simon_norep,2021.1.2,Win32,60.07449237,,,,,,,,,,,o,2.6231,38,0,38,0,1,,,,,,,,,,,,,,,,,,,,,
,,,,,,,,,,,,,,,,,,,,,,60ff46310ae1809cbbd2240a,001,2021-08-01_12h29.03.542,arrow_simon_norep,2021.1.2,Win32,60.07449237,,,,,,,,,,,p,2.3467,39,0,39,0,1,,,,,,,,,,,,,,,,,,,,,
,,,,,,,,,,,,,,,,,,,,,,60ff46310ae1809cbbd2240a,001,2021-08-01_12h29.03.542,arrow_simon_norep,2021.1.2,Win32,60.07449237,,,,,,,,,,,o,2.4802,40,0,40,0,1,,,,,,,,,,,,,,,,,,,,,
,,,,,,,,,,,,,,,,,,,,,,60ff46310ae1809cbbd2240a,001,2021-08-01_12h29.03.542,arrow_simon_norep,2021.1.2,Win32,60.07449237,,,,,,,,,,,p,2.419,41,0,41,0,1,,,,,,,,,,,,,,,,,,,,,
,,,,,,,,,,,,,,,,,,,,,,60ff46310ae1809cbbd2240a,001,2021-08-01_12h29.03.542,arrow_simon_norep,2021.1.2,Win32,60.07449237,,,,,,,,,,,o,2.459,42,0,42,0,1,,,,,,,,,,,,,,,,,,,,,
,,,,,,,,,,,,,,,,,,,,,,60ff46310ae1809cbbd2240a,001,2021-08-01_12h29.03.542,arrow_simon_norep,2021.1.2,Win32,60.07449237,,,,,,,,,,,p,2.3433,43,0,43,0,1,,,,,,,,,,,,,,,,,,,,,
,,,,,,,,,,,,,,,,,,,,,,60ff46310ae1809cbbd2240a,001,2021-08-01_12h29.03.542,arrow_simon_norep,2021.1.2,Win32,60.07449237,,,,,,,,,,,o,2.2176,44,0,44,0,1,,,,,,,,,,,,,,,,,,,,,
,,,,,,,,,,,,,,,,,,,,,,60ff46310ae1809cbbd2240a,001,2021-08-01_12h29.03.542,arrow_simon_norep,2021.1.2,Win32,60.07449237,,,,,,,,,,,p,2.4621,45,0,45,0,1,,,,,,,,,,,,,,,,,,,,,
,,,,,,,,,,,,,,,,,,,,,,60ff46310ae1809cbbd2240a,001,2021-08-01_12h29.03.542,arrow_simon_norep,2021.1.2,Win32,60.07449237,,,,,,,,,,,o,2.523,46,0,46,0,1,,,,,,,,,,,,,,,,,,,,,
,,,,,,,,,,,,,,,,,,,,,,60ff46310ae1809cbbd2240a,001,2021-08-01_12h29.03.542,arrow_simon_norep,2021.1.2,Win32,60.07449237,,,,,,,,,,,p,2.5164,47,0,47,0,1,,,,,,,,,,,,,,,,,,,,,
,,,,,,,,,,,,,,,,,,,,,,60ff46310ae1809cbbd2240a,001,2021-08-01_12h29.03.542,arrow_simon_norep,2021.1.2,Win32,60.07449237,,,,,,,,,,,o,2.5101,48,0,48,0,1,,,,,,,,,,,,,,,,,,,,,
,,,,,,,,,,,,,,,,,,,,,,60ff46310ae1809cbbd2240a,001,2021-08-01_12h29.03.542,arrow_simon_norep,2021.1.2,Win32,60.07449237,,,,,,,,,,,p,2.3594,49,0,49,0,1,,,,,,,,,,,,,,,,,,,,,
,,,,,,,,,,,,,,,,,,,,,,60ff46310ae1809cbbd2240a,001,2021-08-01_12h29.03.542,arrow_simon_norep,2021.1.2,Win32,60.07449237,,,,,,,,,,,o,2.5348,50,0,50,0,1,,,,,,,,,,,,,,,,,,,,,
,,,,,,,,,,,,,,,,,,,,,,60ff46310ae1809cbbd2240a,001,2021-08-01_12h29.03.542,arrow_simon_norep,2021.1.2,Win32,60.07449237,,,,,,,,,,,p,2.432,51,0,51,0,1,,,,,,,,,,,,,,,,,,,,,
,,,,,,,,,,,,,,,,,,,,,,60ff46310ae1809cbbd2240a,001,2021-08-01_12h29.03.542,arrow_simon_norep,2021.1.2,Win32,60.07449237,,,,,,,,,,,o,2.515,52,0,52,0,1,,,,,,,,,,,,,,,,,,,,,
,,,,,,,,,,,,,,,,,,,,,,60ff46310ae1809cbbd2240a,001,2021-08-01_12h29.03.542,arrow_simon_norep,2021.1.2,Win32,60.07449237,,,,,,,,,,,p,2.4507,53,0,53,0,1,,,,,,,,,,,,,,,,,,,,,
,,,,,,,,,,,,,,,,,,,,,,60ff46310ae1809cbbd2240a,001,2021-08-01_12h29.03.542,arrow_simon_norep,2021.1.2,Win32,60.07449237,,,,,,,,,,,w,2.4685,54,0,54,0,1,,,,,,,,,,,,,,,,,,,,,
,,,,,,,,,,,,,,,,,,,,,,60ff46310ae1809cbbd2240a,001,2021-08-01_12h29.03.542,arrow_simon_norep,2021.1.2,Win32,60.07449237,,,,,,,,,,,q,2.4523,55,0,55,0,1,,,,,,,,,,,,,,,,,,,,,
,,,,,,,,,,,,,,,,,,,,,,60ff46310ae1809cbbd2240a,001,2021-08-01_12h29.03.542,arrow_simon_norep,2021.1.2,Win32,60.07449237,,,,,,,,,,,w,2.4287,56,0,56,0,1,,,,,,,,,,,,,,,,,,,,,
,,,,,,,,,,,,,,,,,,,,,,60ff46310ae1809cbbd2240a,001,2021-08-01_12h29.03.542,arrow_simon_norep,2021.1.2,Win32,60.07449237,,,,,,,,,,,p,2.4608,57,0,57,0,1,,,,,,,,,,,,,,,,,,,,,
,,,,,,,,,,,,,,,,,,,,,,60ff46310ae1809cbbd2240a,001,2021-08-01_12h29.03.542,arrow_simon_norep,2021.1.2,Win32,60.07449237,,,,,,,,,,,o,2.3936,58,0,58,0,1,,,,,,,,,,,,,,,,,,,,,
,,,,,,,,,,,,,,,,,,,,,,60ff46310ae1809cbbd2240a,001,2021-08-01_12h29.03.542,arrow_simon_norep,2021.1.2,Win32,60.07449237,,,,,,,,,,,p,2.4402,59,0,59,0,1,,,,,,,,,,,,,,,,,,,,,
,,,,,,0,1.901710664,#a3d0fb,,right_blue.png,o,,,,,,o,right_blue.png,right_orange.png,p,right,60ff46310ae1809cbbd2240a,001,2021-08-01_12h29.03.542,arrow_simon_norep,2021.1.2,Win32,60.07449237,,,,,,,,,,,,,,,,,,space,0,23.6314,o,1,1.5006,1,FALSE,FALSE,0,0,0,1,1,,,,,,,
,,,,,,0,1.71828694,#f3af84,,left_orange.png,q,,,,,,w,left_blue.png,left_orange.png,q,left,60ff46310ae1809cbbd2240a,001,2021-08-01_12h29.03.542,arrow_simon_norep,2021.1.2,Win32,60.07449237,,,,,,,,,,,,,,,,,,,,,q,1,1.2328,2,FALSE,TRUE,0,1,1,2,1,,,,,,,
,,,,,,0,2.427713274,#a3d0fb,,left_blue.png,w,,,,,,w,left_blue.png,left_orange.png,q,right,60ff46310ae1809cbbd2240a,001,2021-08-01_12h29.03.542,arrow_simon_norep,2021.1.2,Win32,60.07449237,,,,,,,,,,,,,,,,,,,,,o,0,1.8517,3,TRUE,FALSE,0,2,2,3,1,,,,,,,
,,,,,,0,1.86466102,#f3af84,,right_orange.png,p,,,,,,o,right_blue.png,right_orange.png,p,left,60ff46310ae1809cbbd2240a,001,2021-08-01_12h29.03.542,arrow_simon_norep,2021.1.2,Win32,60.07449237,,,,,,,,,,,,,,,,,,,,,p,1,1.2765,4,FALSE,TRUE,0,3,3,0,1,,,,,,,
,,,,,,0,2.219551307,#a3d0fb,,right_blue.png,o,,,,,,o,right_blue.png,right_orange.png,p,left,60ff46310ae1809cbbd2240a,001,2021-08-01_12h29.03.542,arrow_simon_norep,2021.1.2,Win32,60.07449237,,,,,,,,,,,,,,,,,,,,,w,0,1.6024,5,TRUE,FALSE,1,0,4,0,1,,,,,,,
,,,,,,0,1.535776733,#f3af84,,right_orange.png,p,,,,,,o,right_blue.png,right_orange.png,p,right,60ff46310ae1809cbbd2240a,001,2021-08-01_12h29.03.542,arrow_simon_norep,2021.1.2,Win32,60.07449237,,,,,,,,,,,,,,,,,,,,,p,1,1.3718,6,FALSE,TRUE,1,1,5,1,1,,,,,,,
,,,,,,0,2.392934707,#a3d0fb,,right_blue.png,o,,,,,,o,right_blue.png,right_orange.png,p,right,60ff46310ae1809cbbd2240a,001,2021-08-01_12h29.03.542,arrow_simon_norep,2021.1.2,Win32,60.07449237,,,,,,,,,,,,,,,,,,,,,o,1,1.7313,7,TRUE,FALSE,1,2,6,1,1,,,,,,,
,,,,,,1,1.923871705,#f3af84,,right_orange.png,p,,,,,,o,right_blue.png,right_orange.png,p,left,60ff46310ae1809cbbd2240a,001,2021-08-01_12h29.03.542,arrow_simon_norep,2021.1.2,Win32,60.07449237,,,,,,,,,,,,,,,,,,,,,q,0,1.5316,8,FALSE,FALSE,1,3,7,0,1,,,,,,,
,,,,,,1,2.136855167,#a3d0fb,,right_blue.png,o,,,,,,o,right_blue.png,right_orange.png,p,left,60ff46310ae1809cbbd2240a,001,2021-08-01_12h29.03.542,arrow_simon_norep,2021.1.2,Win32,60.07449237,,,,,,,,,,,,,,,,,,,,,o,1,1.6467,9,TRUE,FALSE,2,0,8,0,1,,,,,,,
,,,,,,0,1.791814256,#f3af84,,right_orange.png,p,,,,,,o,right_blue.png,right_orange.png,p,left,60ff46310ae1809cbbd2240a,001,2021-08-01_12h29.03.542,arrow_simon_norep,2021.1.2,Win32,60.07449237,,,,,,,,,,,,,,,,,,,,,p,1,1.4603,10,FALSE,FALSE,2,1,9,0,1,,,,,,,
,,,,,,0,1.55490083,#a3d0fb,,right_blue.png,o,,,,,,o,right_blue.png,right_orange.png,p,right,60ff46310ae1809cbbd2240a,001,2021-08-01_12h29.03.542,arrow_simon_norep,2021.1.2,Win32,60.07449237,,,,,,,,,,,,,,,,,,,,,o,1,1.5071,11,FALSE,FALSE,2,2,10,1,1,,,,,,,
,,,,,,0,1.597116155,#f3af84,,right_orange.png,p,,,,,,o,right_blue.png,right_orange.png,p,left,60ff46310ae1809cbbd2240a,001,2021-08-01_12h29.03.542,arrow_simon_norep,2021.1.2,Win32,60.07449237,,,,,,,,,,,,,,,,,,,,,p,1,1.4921,12,FALSE,FALSE,2,3,11,0,1,,,,,,,
,,,,,,0,2.400025892,#a3d0fb,,right_blue.png,o,,,,,,o,right_blue.png,right_orange.png,p,right,60ff46310ae1809cbbd2240a,001,2021-08-01_12h29.03.542,arrow_simon_norep,2021.1.2,Win32,60.07449237,,,,,,,,,,,,,,,,,,,,,o,1,1.7146,13,TRUE,FALSE,3,0,12,1,1,,,,,,,
,,,,,,0,1.881571313,#f3af84,,right_orange.png,p,,,,,,o,right_blue.png,right_orange.png,p,right,60ff46310ae1809cbbd2240a,001,2021-08-01_12h29.03.542,arrow_simon_norep,2021.1.2,Win32,60.07449237,,,,,,,,,,,,,,,,,,,,,p,1,1.4672,14,FALSE,FALSE,3,1,13,1,1,,,,,,,
,,,,,,0,1.933721145,#a3d0fb,,left_blue.png,w,,,,,,w,left_blue.png,left_orange.png,q,left,60ff46310ae1809cbbd2240a,001,2021-08-01_12h29.03.542,arrow_simon_norep,2021.1.2,Win32,60.07449237,,,,,,,,,,,,,,,,,,,,,w,1,1.5,15,FALSE,FALSE,3,2,14,2,1,,,,,,,
,,,,,,0,2.230896963,#f3af84,,left_orange.png,q,,,,,,w,left_blue.png,left_orange.png,q,right,60ff46310ae1809cbbd2240a,001,2021-08-01_12h29.03.542,arrow_simon_norep,2021.1.2,Win32,60.07449237,,,,,,,,,,,,,,,,,,,,,q,1,1.6662,16,TRUE,FALSE,3,3,15,3,1,,,,,,,
,,,,,,0,2.457932141,#a3d0fb,,left_blue.png,w,,,,,,w,left_blue.png,left_orange.png,q,left,60ff46310ae1809cbbd2240a,001,2021-08-01_12h29.03.542,arrow_simon_norep,2021.1.2,Win32,60.07449237,,,,,,,,,,,,,,,,,,,,,w,1,1.8221,17,TRUE,FALSE,4,0,16,2,1,,,,,,,
,,,,,,0,2.085225113,#f3af84,,left_orange.png,q,,,,,,w,left_blue.png,left_orange.png,q,right,60ff46310ae1809cbbd2240a,001,2021-08-01_12h29.03.542,arrow_simon_norep,2021.1.2,Win32,60.07449237,,,,,,,,,,,,,,,,,,,,,p,0,1.3846,18,FALSE,TRUE,4,1,17,3,1,,,,,,,
,,,,,,0,2.169579427,#a3d0fb,,right_blue.png,o,,,,,,o,right_blue.png,right_orange.png,p,right,60ff46310ae1809cbbd2240a,001,2021-08-01_12h29.03.542,arrow_simon_norep,2021.1.2,Win32,60.07449237,,,,,,,,,,,,,,,,,,,,,o,1,1.532,19,FALSE,FALSE,4,2,18,1,1,,,,,,,
,,,,,,0,1.913671004,#f3af84,,left_orange.png,q,,,,,,w,left_blue.png,left_orange.png,q,left,60ff46310ae1809cbbd2240a,001,2021-08-01_12h29.03.542,arrow_simon_norep,2021.1.2,Win32,60.07449237,,,,,,,,,,,,,,,,,,,,,q,1,1.4944,20,FALSE,FALSE,4,3,19,2,1,,,,,,,
,,,,,,0,2.276104903,#a3d0fb,,right_blue.png,o,,,,,,o,right_blue.png,right_orange.png,p,left,60ff46310ae1809cbbd2240a,001,2021-08-01_12h29.03.542,arrow_simon_norep,2021.1.2,Win32,60.07449237,,,,,,,,,,,,,,,,,,,,,o,1,1.6656,21,TRUE,FALSE,5,0,20,0,1,,,,,,,
,,,,,,0,2.25220649,#f3af84,,right_orange.png,p,,,,,,o,right_blue.png,right_orange.png,p,left,60ff46310ae1809cbbd2240a,001,2021-08-01_12h29.03.542,arrow_simon_norep,2021.1.2,Win32,60.07449237,,,,,,,,,,,,,,,,,,,,,q,0,1.6337,22,TRUE,FALSE,5,1,21,0,1,,,,,,,
,,,,,,0,2.010013466,#a3d0fb,,right_blue.png,o,,,,,,o,right_blue.png,right_orange.png,p,right,60ff46310ae1809cbbd2240a,001,2021-08-01_12h29.03.542,arrow_simon_norep,2021.1.2,Win32,60.07449237,,,,,,,,,,,,,,,,,,,,,o,1,1.49,23,FALSE,FALSE,5,2,22,1,1,,,,,,,
,,,,,,0,1.776463733,#f3af84,,right_orange.png,p,,,,,,o,right_blue.png,right_orange.png,p,left,60ff46310ae1809cbbd2240a,001,2021-08-01_12h29.03.542,arrow_simon_norep,2021.1.2,Win32,60.07449237,,,,,,,,,,,,,,,,,,,,,p,1,1.5236,24,FALSE,FALSE,5,3,23,0,1,,,,,,,
,,,,,,0,2.055462184,#a3d0fb,,left_blue.png,w,,,,,,w,left_blue.png,left_orange.png,q,left,60ff46310ae1809cbbd2240a,001,2021-08-01_12h29.03.542,arrow_simon_norep,2021.1.2,Win32,60.07449237,,,,,,,,,,,,,,,,,,,,,w,1,1.4098,25,FALSE,FALSE,6,0,24,2,1,,,,,,,
,,,,,,0,2.451085411,#f3af84,,right_orange.png,p,,,,,,o,right_blue.png,right_orange.png,p,left,60ff46310ae1809cbbd2240a,001,2021-08-01_12h29.03.542,arrow_simon_norep,2021.1.2,Win32,60.07449237,,,,,,,,,,,,,,,,,,,,,q,0,1.8042,26,TRUE,FALSE,6,1,25,0,1,,,,,,,
,,,,,,1,1.752840766,#a3d0fb,,left_blue.png,w,,,,,,w,left_blue.png,left_orange.png,q,left,60ff46310ae1809cbbd2240a,001,2021-08-01_12h29.03.542,arrow_simon_norep,2021.1.2,Win32,60.07449237,,,,,,,,,,,,,,,,,,,,,o,0,1.4968,27,FALSE,FALSE,6,2,26,2,1,,,,,,,
,,,,,,0,2.023404868,#f3af84,,left_orange.png,q,,,,,,w,left_blue.png,left_orange.png,q,left,60ff46310ae1809cbbd2240a,001,2021-08-01_12h29.03.542,arrow_simon_norep,2021.1.2,Win32,60.07449237,,,,,,,,,,,,,,,,,,,,,q,1,1.422,28,FALSE,FALSE,6,3,27,2,1,,,,,,,
,,,,,,0,1.916248832,#a3d0fb,,right_blue.png,o,,,,,,o,right_blue.png,right_orange.png,p,left,60ff46310ae1809cbbd2240a,001,2021-08-01_12h29.03.542,arrow_simon_norep,2021.1.2,Win32,60.07449237,,,,,,,,,,,,,,,,,,,,,o,1,1.4797,29,FALSE,FALSE,7,0,28,0,1,,,,,,,
,,,,,,0,2.395262795,#f3af84,,right_orange.png,p,,,,,,o,right_blue.png,right_orange.png,p,right,60ff46310ae1809cbbd2240a,001,2021-08-01_12h29.03.542,arrow_simon_norep,2021.1.2,Win32,60.07449237,,,,,,,,,,,,,,,,,,,,,p,1,1.6995,30,TRUE,FALSE,7,1,29,1,1,,,,,,,
,,,,,,0,2.300024311,#a3d0fb,,right_blue.png,o,,,,,,o,right_blue.png,right_orange.png,p,left,60ff46310ae1809cbbd2240a,001,2021-08-01_12h29.03.542,arrow_simon_norep,2021.1.2,Win32,60.07449237,,,,,,,,,,,,,,,,,,,,,o,1,1.7142,31,TRUE,FALSE,7,2,30,0,1,,,,,,,
,,,,,,0,1.975119883,#f3af84,,right_orange.png,p,,,,,,o,right_blue.png,right_orange.png,p,right,60ff46310ae1809cbbd2240a,001,2021-08-01_12h29.03.542,arrow_simon_norep,2021.1.2,Win32,60.07449237,,,,,,,,,,,,,,,,,,,,,p,1,1.4199,32,FALSE,FALSE,7,3,31,1,1,,,,,,,
,,,,,,0,2.281198772,#a3d0fb,,left_blue.png,w,,,,,,w,left_blue.png,left_orange.png,q,left,60ff46310ae1809cbbd2240a,001,2021-08-01_12h29.03.542,arrow_simon_norep,2021.1.2,Win32,60.07449237,,,,,,,,,,,,,,,,,,,,,o,0,1.7004,33,TRUE,FALSE,8,0,32,2,1,,,,,,,
,,,,,,0,2.075356604,#f3af84,,right_orange.png,p,,,,,,o,right_blue.png,right_orange.png,p,right,60ff46310ae1809cbbd2240a,001,2021-08-01_12h29.03.542,arrow_simon_norep,2021.1.2,Win32,60.07449237,,,,,,,,,,,,,,,,,,,,,p,1,1.445,34,FALSE,FALSE,8,1,33,1,1,,,,,,,
,,,,,,0,1.634709762,#a3d0fb,,right_blue.png,o,,,,,,o,right_blue.png,right_orange.png,p,left,60ff46310ae1809cbbd2240a,001,2021-08-01_12h29.03.542,arrow_simon_norep,2021.1.2,Win32,60.07449237,,,,,,,,,,,,,,,,,,,,,o,1,1.365,35,FALSE,TRUE,8,2,34,0,1,,,,,,,
,,,,,,1,2.216893871,#f3af84,,left_orange.png,q,,,,,,w,left_blue.png,left_orange.png,q,left,60ff46310ae1809cbbd2240a,001,2021-08-01_12h29.03.542,arrow_simon_norep,2021.1.2,Win32,60.07449237,,,,,,,,,,,,,,,,,,,,,w,0,1.596,36,FALSE,FALSE,8,3,35,2,1,,,,,,,
,,,,,,1,1.660456383,#a3d0fb,,right_blue.png,o,,,,,,o,right_blue.png,right_orange.png,p,left,60ff46310ae1809cbbd2240a,001,2021-08-01_12h29.03.542,arrow_simon_norep,2021.1.2,Win32,60.07449237,,,,,,,,,,,,,,,,,,,,,o,1,1.3754,37,FALSE,TRUE,9,0,36,0,1,,,,,,,
,,,,,,0,1.975377961,#f3af84,,left_orange.png,q,,,,,,w,left_blue.png,left_orange.png,q,left,60ff46310ae1809cbbd2240a,001,2021-08-01_12h29.03.542,arrow_simon_norep,2021.1.2,Win32,60.07449237,,,,,,,,,,,,,,,,,,,,,q,1,1.4555,38,FALSE,FALSE,9,1,37,2,1,,,,,,,
,,,,,,0,2.214002788,#a3d0fb,,left_blue.png,w,,,,,,w,left_blue.png,left_orange.png,q,left,60ff46310ae1809cbbd2240a,001,2021-08-01_12h29.03.542,arrow_simon_norep,2021.1.2,Win32,60.07449237,,,,,,,,,,,,,,,,,,,,,w,1,1.5649,39,FALSE,FALSE,9,2,38,2,1,,,,,,,
,,,,,,0,1.790542206,#f3af84,,right_orange.png,p,,,,,,o,right_blue.png,right_orange.png,p,left,60ff46310ae1809cbbd2240a,001,2021-08-01_12h29.03.542,arrow_simon_norep,2021.1.2,Win32,60.07449237,,,,,,,,,,,,,,,,,,,,,p,1,1.4079,40,FALSE,FALSE,9,3,39,0,1,,,,,,,
,,,,,,0,1.547228163,#a3d0fb,,right_blue.png,o,,,,,,o,right_blue.png,right_orange.png,p,right,60ff46310ae1809cbbd2240a,001,2021-08-01_12h29.03.542,arrow_simon_norep,2021.1.2,Win32,60.07449237,,,,,,,,,,,,,,,,,,,,,o,1,1.3185,41,FALSE,TRUE,10,0,40,1,1,,,,,,,
,,,,,,0,1.550414586,#f3af84,,left_orange.png,q,,,,,,w,left_blue.png,left_orange.png,q,right,60ff46310ae1809cbbd2240a,001,2021-08-01_12h29.03.542,arrow_simon_norep,2021.1.2,Win32,60.07449237,,,,,,,,,,,,,,,,,,,,,q,1,1.3982,42,FALSE,TRUE,10,1,41,3,1,,,,,,,
,,,,,,0,1.781178172,#a3d0fb,,left_blue.png,w,,,,,,w,left_blue.png,left_orange.png,q,right,60ff46310ae1809cbbd2240a,001,2021-08-01_12h29.03.542,arrow_simon_norep,2021.1.2,Win32,60.07449237,,,,,,,,,,,,,,,,,,,,,w,1,1.5128,43,FALSE,FALSE,10,2,42,3,1,,,,,,,
,,,,,,0,1.944299894,#f3af84,,left_orange.png,q,,,,,,w,left_blue.png,left_orange.png,q,right,60ff46310ae1809cbbd2240a,001,2021-08-01_12h29.03.542,arrow_simon_norep,2021.1.2,Win32,60.07449237,,,,,,,,,,,,,,,,,,,,,p,0,1.3829,44,FALSE,TRUE,10,3,43,3,1,,,,,,,
,,,,,,0,2.390524287,#a3d0fb,,left_blue.png,w,,,,,,w,left_blue.png,left_orange.png,q,right,60ff46310ae1809cbbd2240a,001,2021-08-01_12h29.03.542,arrow_simon_norep,2021.1.2,Win32,60.07449237,,,,,,,,,,,,,,,,,,,,,o,0,1.7879,45,TRUE,FALSE,11,0,44,3,1,,,,,,,
,,,,,,0,1.573123258,#f3af84,,left_orange.png,q,,,,,,w,left_blue.png,left_orange.png,q,right,60ff46310ae1809cbbd2240a,001,2021-08-01_12h29.03.542,arrow_simon_norep,2021.1.2,Win32,60.07449237,,,,,,,,,,,,,,,,,,,,,q,1,1.5547,46,FALSE,FALSE,11,1,45,3,1,,,,,,,
,,,,,,0,1.622582712,#a3d0fb,,left_blue.png,w,,,,,,w,left_blue.png,left_orange.png,q,left,60ff46310ae1809cbbd2240a,001,2021-08-01_12h29.03.542,arrow_simon_norep,2021.1.2,Win32,60.07449237,,,,,,,,,,,,,,,,,,,,,w,1,1.4665,47,FALSE,FALSE,11,2,46,2,1,,,,,,,
,,,,,,0,2.327924405,#f3af84,,left_orange.png,q,,,,,,w,left_blue.png,left_orange.png,q,right,60ff46310ae1809cbbd2240a,001,2021-08-01_12h29.03.542,arrow_simon_norep,2021.1.2,Win32,60.07449237,,,,,,,,,,,,,,,,,,,,,p,0,1.6671,48,TRUE,FALSE,11,3,47,3,1,,,,,,,
,,,,,,0,1.765723574,#a3d0fb,,left_blue.png,w,,,,,,w,left_blue.png,left_orange.png,q,left,60ff46310ae1809cbbd2240a,001,2021-08-01_12h29.03.542,arrow_simon_norep,2021.1.2,Win32,60.07449237,,,,,,,,,,,,,,,,,,,,,w,1,1.1226,49,FALSE,TRUE,12,0,48,2,1,,,,,,,
,,,,,,0,2.275063108,#f3af84,,left_orange.png,q,,,,,,w,left_blue.png,left_orange.png,q,right,60ff46310ae1809cbbd2240a,001,2021-08-01_12h29.03.542,arrow_simon_norep,2021.1.2,Win32,60.07449237,,,,,,,,,,,,,,,,,,,,,p,0,1.6316,50,TRUE,FALSE,12,1,49,3,1,,,,,,,
,,,,,,1,2.292265482,#a3d0fb,,left_blue.png,w,,,,,,w,left_blue.png,left_orange.png,q,right,60ff46310ae1809cbbd2240a,001,2021-08-01_12h29.03.542,arrow_simon_norep,2021.1.2,Win32,60.07449237,,,,,,,,,,,,,,,,,,,,,o,0,1.5982,51,FALSE,FALSE,12,2,50,3,1,,,,,,,
,,,,,,0,2.142908149,#f3af84,,left_orange.png,q,,,,,,w,left_blue.png,left_orange.png,q,right,60ff46310ae1809cbbd2240a,001,2021-08-01_12h29.03.542,arrow_simon_norep,2021.1.2,Win32,60.07449237,,,,,,,,,,,,,,,,,,,,,q,1,1.5393,52,FALSE,FALSE,12,3,51,3,1,,,,,,,
,,,,,,0,1.693130067,#a3d0fb,,left_blue.png,w,,,,,,w,left_blue.png,left_orange.png,q,right,60ff46310ae1809cbbd2240a,001,2021-08-01_12h29.03.542,arrow_simon_norep,2021.1.2,Win32,60.07449237,,,,,,,,,,,,,,,,,,,,,w,1,1.071,53,FALSE,TRUE,13,0,52,3,1,,,,,,,
,,,,,,0,1.741595418,#f3af84,,left_orange.png,q,,,,,,w,left_blue.png,left_orange.png,q,left,60ff46310ae1809cbbd2240a,001,2021-08-01_12h29.03.542,arrow_simon_norep,2021.1.2,Win32,60.07449237,,,,,,,,,,,,,,,,,,,,,q,1,1.0607,54,FALSE,TRUE,13,1,53,2,1,,,,,,,
,,,,,,0,1.780134152,#a3d0fb,,right_blue.png,o,,,,,,o,right_blue.png,right_orange.png,p,right,60ff46310ae1809cbbd2240a,001,2021-08-01_12h29.03.542,arrow_simon_norep,2021.1.2,Win32,60.07449237,,,,,,,,,,,,,,,,,,,,,p,0,1.1842,55,FALSE,TRUE,13,2,54,1,1,,,,,,,
,,,,,,0,1.995060751,#f3af84,,right_orange.png,p,,,,,,o,right_blue.png,right_orange.png,p,right,60ff46310ae1809cbbd2240a,001,2021-08-01_12h29.03.542,arrow_simon_norep,2021.1.2,Win32,60.07449237,,,,,,,,,,,,,,,,,,,,,p,1,1.4427,56,FALSE,FALSE,13,3,55,1,1,,,,,,,
,,,,,,0,1.757101526,#a3d0fb,,left_blue.png,w,,,,,,w,left_blue.png,left_orange.png,q,right,60ff46310ae1809cbbd2240a,001,2021-08-01_12h29.03.542,arrow_simon_norep,2021.1.2,Win32,60.07449237,,,,,,,,,,,,,,,,,,,,,w,1,1.3503,57,FALSE,TRUE,14,0,56,3,1,,,,,,,
,,,,,,0,2.147839391,#f3af84,,left_orange.png,q,,,,,,w,left_blue.png,left_orange.png,q,right,60ff46310ae1809cbbd2240a,001,2021-08-01_12h29.03.542,arrow_simon_norep,2021.1.2,Win32,60.07449237,,,,,,,,,,,,,,,,,,,,,q,1,1.5328,58,FALSE,FALSE,14,1,57,3,1,,,,,,,
,,,,,,0,1.992871537,#a3d0fb,,right_blue.png,o,,,,,,o,right_blue.png,right_orange.png,p,right,60ff46310ae1809cbbd2240a,001,2021-08-01_12h29.03.542,arrow_simon_norep,2021.1.2,Win32,60.07449237,,,,,,,,,,,,,,,,,,,,,o,1,1.3332,59,FALSE,TRUE,14,2,58,1,1,,,,,,,
,,,,,,0,1.879422944,#f3af84,,left_orange.png,q,,,,,,w,left_blue.png,left_orange.png,q,left,60ff46310ae1809cbbd2240a,001,2021-08-01_12h29.03.542,arrow_simon_norep,2021.1.2,Win32,60.07449237,,,,,,,,,,,,,,,,,,,,,q,1,1.5217,60,FALSE,FALSE,14,3,59,2,1,,,,,,,
,,,,,,,,,,,,,,,,,,,,,,60ff46310ae1809cbbd2240a,001,2021-08-01_12h29.03.542,arrow_simon_norep,2021.1.2,Win32,60.07449237,,,,,,,,,,,,,,,,,,,,,,,,,,,,,,,,space,16.302,0,0,0,0,1
,,,,,,0,1.634527066,#a3d0fb,,left_blue.png,w,,,,,,w,left_blue.png,left_orange.png,q,right,60ff46310ae1809cbbd2240a,001,2021-08-01_12h29.03.542,arrow_simon_norep,2021.1.2,Win32,60.07449237,,,,,,,,,,,,,,,,,,,,,w,1,1.4632,1,FALSE,FALSE,0,0,0,3,1,,,,,,,
,,,,,,0,1.504575013,#f3af84,,right_orange.png,p,,,,,,o,right_blue.png,right_orange.png,p,left,60ff46310ae1809cbbd2240a,001,2021-08-01_12h29.03.542,arrow_simon_norep,2021.1.2,Win32,60.07449237,,,,,,,,,,,,,,,,,,,,,p,1,1.384,2,FALSE,TRUE,0,1,1,0,1,,,,,,,
,,,,,,0,1.517007645,#a3d0fb,,left_blue.png,w,,,,,,w,left_blue.png,left_orange.png,q,right,60ff46310ae1809cbbd2240a,001,2021-08-01_12h29.03.542,arrow_simon_norep,2021.1.2,Win32,60.07449237,,,,,,,,,,,,,,,,,,,,,w,1,1.491,3,FALSE,FALSE,0,2,2,3,1,,,,,,,
,,,,,,0,1.526082424,#f3af84,,left_orange.png,q,,,,,,w,left_blue.png,left_orange.png,q,right,60ff46310ae1809cbbd2240a,001,2021-08-01_12h29.03.542,arrow_simon_norep,2021.1.2,Win32,60.07449237,,,,,,,,,,,,,,,,,,,,,q,1,1.5142,4,FALSE,FALSE,0,3,3,3,1,,,,,,,
,,,,,,0,2.439866871,#a3d0fb,,right_blue.png,o,,,,,,o,right_blue.png,right_orange.png,p,right,60ff46310ae1809cbbd2240a,001,2021-08-01_12h29.03.542,arrow_simon_norep,2021.1.2,Win32,60.07449237,,,,,,,,,,,,,,,,,,,,,w,0,1.6304,5,TRUE,FALSE,1,0,4,1,1,,,,,,,
,,,,,,0,2.298305455,#f3af84,,left_orange.png,q,,,,,,w,left_blue.png,left_orange.png,q,right,60ff46310ae1809cbbd2240a,001,2021-08-01_12h29.03.542,arrow_simon_norep,2021.1.2,Win32,60.07449237,,,,,,,,,,,,,,,,,,,,,q,1,1.6994,6,TRUE,FALSE,1,1,5,3,1,,,,,,,
,,,,,,0,2.094714523,#a3d0fb,,left_blue.png,w,,,,,,w,left_blue.png,left_orange.png,q,right,60ff46310ae1809cbbd2240a,001,2021-08-01_12h29.03.542,arrow_simon_norep,2021.1.2,Win32,60.07449237,,,,,,,,,,,,,,,,,,,,,w,1,1.5145,7,FALSE,FALSE,1,2,6,3,1,,,,,,,
,,,,,,0,1.605338053,#f3af84,,left_orange.png,q,,,,,,w,left_blue.png,left_orange.png,q,left,60ff46310ae1809cbbd2240a,001,2021-08-01_12h29.03.542,arrow_simon_norep,2021.1.2,Win32,60.07449237,,,,,,,,,,,,,,,,,,,,,q,1,1.3394,8,FALSE,TRUE,1,3,7,2,1,,,,,,,
,,,,,,0,2.039971253,#a3d0fb,,left_blue.png,w,,,,,,w,left_blue.png,left_orange.png,q,right,60ff46310ae1809cbbd2240a,001,2021-08-01_12h29.03.542,arrow_simon_norep,2021.1.2,Win32,60.07449237,,,,,,,,,,,,,,,,,,,,,w,1,1.5059,9,FALSE,FALSE,2,0,8,3,1,,,,,,,
,,,,,,0,1.932395184,#f3af84,,right_orange.png,p,,,,,,o,right_blue.png,right_orange.png,p,left,60ff46310ae1809cbbd2240a,001,2021-08-01_12h29.03.542,arrow_simon_norep,2021.1.2,Win32,60.07449237,,,,,,,,,,,,,,,,,,,,,p,1,1.3737,10,FALSE,TRUE,2,1,9,0,1,,,,,,,
,,,,,,0,2.450116199,#a3d0fb,,left_blue.png,w,,,,,,w,left_blue.png,left_orange.png,q,left,60ff46310ae1809cbbd2240a,001,2021-08-01_12h29.03.542,arrow_simon_norep,2021.1.2,Win32,60.07449237,,,,,,,,,,,,,,,,,,,,,w,1,1.765,11,TRUE,FALSE,2,2,10,2,1,,,,,,,
,,,,,,0,1.677434708,#f3af84,,right_orange.png,p,,,,,,o,right_blue.png,right_orange.png,p,right,60ff46310ae1809cbbd2240a,001,2021-08-01_12h29.03.542,arrow_simon_norep,2021.1.2,Win32,60.07449237,,,,,,,,,,,,,,,,,,,,,p,1,1.4861,12,FALSE,FALSE,2,3,11,1,1,,,,,,,
,,,,,,0,2.28746942,#a3d0fb,,right_blue.png,o,,,,,,o,right_blue.png,right_orange.png,p,right,60ff46310ae1809cbbd2240a,001,2021-08-01_12h29.03.542,arrow_simon_norep,2021.1.2,Win32,60.07449237,,,,,,,,,,,,,,,,,,,,,o,1,1.763,13,TRUE,FALSE,3,0,12,1,1,,,,,,,
,,,,,,0,2.459531502,#f3af84,,right_orange.png,p,,,,,,o,right_blue.png,right_orange.png,p,right,60ff46310ae1809cbbd2240a,001,2021-08-01_12h29.03.542,arrow_simon_norep,2021.1.2,Win32,60.07449237,,,,,,,,,,,,,,,,,,,,,p,1,1.7955,14,TRUE,FALSE,3,1,13,1,1,,,,,,,
,,,,,,0,1.655025797,#a3d0fb,,left_blue.png,w,,,,,,w,left_blue.png,left_orange.png,q,right,60ff46310ae1809cbbd2240a,001,2021-08-01_12h29.03.542,arrow_simon_norep,2021.1.2,Win32,60.07449237,,,,,,,,,,,,,,,,,,,,,w,1,1.4466,15,FALSE,FALSE,3,2,14,3,1,,,,,,,
,,,,,,0,1.75671121,#f3af84,,right_orange.png,p,,,,,,o,right_blue.png,right_orange.png,p,left,60ff46310ae1809cbbd2240a,001,2021-08-01_12h29.03.542,arrow_simon_norep,2021.1.2,Win32,60.07449237,,,,,,,,,,,,,,,,,,,,,p,1,1.4584,16,FALSE,FALSE,3,3,15,0,1,,,,,,,
,,,,,,0,1.576742225,#a3d0fb,,right_blue.png,o,,,,,,o,right_blue.png,right_orange.png,p,right,60ff46310ae1809cbbd2240a,001,2021-08-01_12h29.03.542,arrow_simon_norep,2021.1.2,Win32,60.07449237,,,,,,,,,,,,,,,,,,,,,o,1,1.386,17,FALSE,TRUE,4,0,16,1,1,,,,,,,
,,,,,,0,2.407556979,#f3af84,,right_orange.png,p,,,,,,o,right_blue.png,right_orange.png,p,right,60ff46310ae1809cbbd2240a,001,2021-08-01_12h29.03.542,arrow_simon_norep,2021.1.2,Win32,60.07449237,,,,,,,,,,,,,,,,,,,,,p,1,1.6752,18,TRUE,FALSE,4,1,17,1,1,,,,,,,
,,,,,,1,2.208535905,#a3d0fb,,right_blue.png,o,,,,,,o,right_blue.png,right_orange.png,p,left,60ff46310ae1809cbbd2240a,001,2021-08-01_12h29.03.542,arrow_simon_norep,2021.1.2,Win32,60.07449237,,,,,,,,,,,,,,,,,,,,,w,0,1.5194,19,FALSE,FALSE,4,2,18,0,1,,,,,,,
,,,,,,1,1.550295283,#f3af84,,right_orange.png,p,,,,,,o,right_blue.png,right_orange.png,p,left,60ff46310ae1809cbbd2240a,001,2021-08-01_12h29.03.542,arrow_simon_norep,2021.1.2,Win32,60.07449237,,,,,,,,,,,,,,,,,,,,,q,0,1.4047,20,FALSE,FALSE,4,3,19,0,1,,,,,,,
,,,,,,0,2.155972669,#a3d0fb,,left_blue.png,w,,,,,,w,left_blue.png,left_orange.png,q,left,60ff46310ae1809cbbd2240a,001,2021-08-01_12h29.03.542,arrow_simon_norep,2021.1.2,Win32,60.07449237,,,,,,,,,,,,,,,,,,,,,w,1,1.5485,21,FALSE,FALSE,5,0,20,2,1,,,,,,,
,,,,,,0,2.445841727,#f3af84,,left_orange.png,q,,,,,,w,left_blue.png,left_orange.png,q,left,60ff46310ae1809cbbd2240a,001,2021-08-01_12h29.03.542,arrow_simon_norep,2021.1.2,Win32,60.07449237,,,,,,,,,,,,,,,,,,,,,q,1,1.8796,22,TRUE,FALSE,5,1,21,2,1,,,,,,,
,,,,,,1,2.162126981,#a3d0fb,,right_blue.png,o,,,,,,o,right_blue.png,right_orange.png,p,left,60ff46310ae1809cbbd2240a,001,2021-08-01_12h29.03.542,arrow_simon_norep,2021.1.2,Win32,60.07449237,,,,,,,,,,,,,,,,,,,,,w,0,1.5419,23,FALSE,FALSE,5,2,22,0,1,,,,,,,
,,,,,,1,2.297921848,#f3af84,,left_orange.png,q,,,,,,w,left_blue.png,left_orange.png,q,right,60ff46310ae1809cbbd2240a,001,2021-08-01_12h29.03.542,arrow_simon_norep,2021.1.2,Win32,60.07449237,,,,,,,,,,,,,,,,,,,,,o,0,1.7315,24,TRUE,FALSE,5,3,23,3,1,,,,,,,
,,,,,,1,1.995602731,#a3d0fb,,left_blue.png,w,,,,,,w,left_blue.png,left_orange.png,q,right,60ff46310ae1809cbbd2240a,001,2021-08-01_12h29.03.542,arrow_simon_norep,2021.1.2,Win32,60.07449237,,,,,,,,,,,,,,,,,,,,,o,0,1.4155,25,FALSE,FALSE,6,0,24,3,1,,,,,,,
,,,,,,1,1.755350495,#f3af84,,left_orange.png,q,,,,,,w,left_blue.png,left_orange.png,q,right,60ff46310ae1809cbbd2240a,001,2021-08-01_12h29.03.542,arrow_simon_norep,2021.1.2,Win32,60.07449237,,,,,,,,,,,,,,,,,,,,,q,1,1.3186,26,FALSE,TRUE,6,1,25,3,1,,,,,,,
,,,,,,0,1.805564719,#a3d0fb,,right_blue.png,o,,,,,,o,right_blue.png,right_orange.png,p,left,60ff46310ae1809cbbd2240a,001,2021-08-01_12h29.03.542,arrow_simon_norep,2021.1.2,Win32,60.07449237,,,,,,,,,,,,,,,,,,,,,o,1,1.5182,27,FALSE,FALSE,6,2,26,0,1,,,,,,,
,,,,,,0,2.473231171,#f3af84,,left_orange.png,q,,,,,,w,left_blue.png,left_orange.png,q,left,60ff46310ae1809cbbd2240a,001,2021-08-01_12h29.03.542,arrow_simon_norep,2021.1.2,Win32,60.07449237,,,,,,,,,,,,,,,,,,,,,q,1,1.7916,28,TRUE,FALSE,6,3,27,2,1,,,,,,,
,,,,,,0,1.719473622,#a3d0fb,,right_blue.png,o,,,,,,o,right_blue.png,right_orange.png,p,right,60ff46310ae1809cbbd2240a,001,2021-08-01_12h29.03.542,arrow_simon_norep,2021.1.2,Win32,60.07449237,,,,,,,,,,,,,,,,,,,,,o,1,1.447,29,FALSE,FALSE,7,0,28,1,1,,,,,,,
,,,,,,0,1.989698463,#f3af84,,right_orange.png,p,,,,,,o,right_blue.png,right_orange.png,p,right,60ff46310ae1809cbbd2240a,001,2021-08-01_12h29.03.542,arrow_simon_norep,2021.1.2,Win32,60.07449237,,,,,,,,,,,,,,,,,,,,,p,1,1.51,30,FALSE,FALSE,7,1,29,1,1,,,,,,,
,,,,,,0,2.294780795,#a3d0fb,,left_blue.png,w,,,,,,w,left_blue.png,left_orange.png,q,left,60ff46310ae1809cbbd2240a,001,2021-08-01_12h29.03.542,arrow_simon_norep,2021.1.2,Win32,60.07449237,,,,,,,,,,,,,,,,,,,,,w,1,1.6983,31,TRUE,FALSE,7,2,30,2,1,,,,,,,
,,,,,,1,2.007276732,#f3af84,,right_orange.png,p,,,,,,o,right_blue.png,right_orange.png,p,left,60ff46310ae1809cbbd2240a,001,2021-08-01_12h29.03.542,arrow_simon_norep,2021.1.2,Win32,60.07449237,,,,,,,,,,,,,,,,,,,,,o,0,1.5655,32,FALSE,FALSE,7,3,31,0,1,,,,,,,
,,,,,,1,2.165950921,#a3d0fb,,left_blue.png,w,,,,,,w,left_blue.png,left_orange.png,q,right,60ff46310ae1809cbbd2240a,001,2021-08-01_12h29.03.542,arrow_simon_norep,2021.1.2,Win32,60.07449237,,,,,,,,,,,,,,,,,,,,,o,0,1.5461,33,FALSE,FALSE,8,0,32,3,1,,,,,,,
,,,,,,1,2.182297715,#f3af84,,right_orange.png,p,,,,,,o,right_blue.png,right_orange.png,p,left,60ff46310ae1809cbbd2240a,001,2021-08-01_12h29.03.542,arrow_simon_norep,2021.1.2,Win32,60.07449237,,,,,,,,,,,,,,,,,,,,,q,0,1.51,34,FALSE,FALSE,8,1,33,0,1,,,,,,,
,,,,,,1,1.977425267,#a3d0fb,,right_blue.png,o,,,,,,o,right_blue.png,right_orange.png,p,left,60ff46310ae1809cbbd2240a,001,2021-08-01_12h29.03.542,arrow_simon_norep,2021.1.2,Win32,60.07449237,,,,,,,,,,,,,,,,,,,,,o,1,1.677,35,TRUE,FALSE,8,2,34,0,1,,,,,,,
,,,,,,0,2.003963167,#f3af84,,left_orange.png,q,,,,,,w,left_blue.png,left_orange.png,q,left,60ff46310ae1809cbbd2240a,001,2021-08-01_12h29.03.542,arrow_simon_norep,2021.1.2,Win32,60.07449237,,,,,,,,,,,,,,,,,,,,,q,1,1.532,36,FALSE,FALSE,8,3,35,2,1,,,,,,,
,,,,,,0,1.899632881,#a3d0fb,,right_blue.png,o,,,,,,o,right_blue.png,right_orange.png,p,right,60ff46310ae1809cbbd2240a,001,2021-08-01_12h29.03.542,arrow_simon_norep,2021.1.2,Win32,60.07449237,,,,,,,,,,,,,,,,,,,,,o,1,1.3505,37,FALSE,TRUE,9,0,36,1,1,,,,,,,
,,,,,,0,1.587185005,#f3af84,,right_orange.png,p,,,,,,o,right_blue.png,right_orange.png,p,right,60ff46310ae1809cbbd2240a,001,2021-08-01_12h29.03.542,arrow_simon_norep,2021.1.2,Win32,60.07449237,,,,,,,,,,,,,,,,,,,,,p,1,1.4137,38,FALSE,FALSE,9,1,37,1,1,,,,,,,
,,,,,,1,2.343318731,#a3d0fb,,right_blue.png,o,,,,,,o,right_blue.png,right_orange.png,p,right,60ff46310ae1809cbbd2240a,001,2021-08-01_12h29.03.542,arrow_simon_norep,2021.1.2,Win32,60.07449237,,,,,,,,,,,,,,,,,,,,,w,0,1.5003,39,FALSE,FALSE,9,2,38,1,1,,,,,,,
,,,,,,0,2.43850717,#f3af84,,right_orange.png,p,,,,,,o,right_blue.png,right_orange.png,p,left,60ff46310ae1809cbbd2240a,001,2021-08-01_12h29.03.542,arrow_simon_norep,2021.1.2,Win32,60.07449237,,,,,,,,,,,,,,,,,,,,,p,1,1.5295,40,FALSE,FALSE,9,3,39,0,1,,,,,,,
,,,,,,0,2.142154867,#a3d0fb,,left_blue.png,w,,,,,,w,left_blue.png,left_orange.png,q,left,60ff46310ae1809cbbd2240a,001,2021-08-01_12h29.03.542,arrow_simon_norep,2021.1.2,Win32,60.07449237,,,,,,,,,,,,,,,,,,,,,w,1,1.4916,41,FALSE,FALSE,10,0,40,2,1,,,,,,,
,,,,,,0,2.29106437,#f3af84,,right_orange.png,p,,,,,,o,right_blue.png,right_orange.png,p,left,60ff46310ae1809cbbd2240a,001,2021-08-01_12h29.03.542,arrow_simon_norep,2021.1.2,Win32,60.07449237,,,,,,,,,,,,,,,,,,,,,p,1,1.5362,42,FALSE,FALSE,10,1,41,0,1,,,,,,,
,,,,,,1,2.116387974,#a3d0fb,,right_blue.png,o,,,,,,o,right_blue.png,right_orange.png,p,left,60ff46310ae1809cbbd2240a,001,2021-08-01_12h29.03.542,arrow_simon_norep,2021.1.2,Win32,60.07449237,,,,,,,,,,,,,,,,,,,,,w,0,1.587,43,FALSE,FALSE,10,2,42,0,1,,,,,,,
,,,,,,1,2.374702969,#f3af84,,left_orange.png,q,,,,,,w,left_blue.png,left_orange.png,q,right,60ff46310ae1809cbbd2240a,001,2021-08-01_12h29.03.542,arrow_simon_norep,2021.1.2,Win32,60.07449237,,,,,,,,,,,,,,,,,,,,,p,0,1.555,44,FALSE,FALSE,10,3,43,3,1,,,,,,,
,,,,,,0,1.688855054,#a3d0fb,,left_blue.png,w,,,,,,w,left_blue.png,left_orange.png,q,right,60ff46310ae1809cbbd2240a,001,2021-08-01_12h29.03.542,arrow_simon_norep,2021.1.2,Win32,60.07449237,,,,,,,,,,,,,,,,,,,,,w,1,1.483,45,FALSE,FALSE,11,0,44,3,1,,,,,,,
,,,,,,0,2.124738857,#f3af84,,left_orange.png,q,,,,,,w,left_blue.png,left_orange.png,q,left,60ff46310ae1809cbbd2240a,001,2021-08-01_12h29.03.542,arrow_simon_norep,2021.1.2,Win32,60.07449237,,,,,,,,,,,,,,,,,,,,,q,1,1.5123,46,FALSE,FALSE,11,1,45,2,1,,,,,,,
,,,,,,1,1.963450187,#a3d0fb,,left_blue.png,w,,,,,,w,left_blue.png,left_orange.png,q,right,60ff46310ae1809cbbd2240a,001,2021-08-01_12h29.03.542,arrow_simon_norep,2021.1.2,Win32,60.07449237,,,,,,,,,,,,,,,,,,,,,q,0,1.4368,47,FALSE,FALSE,11,2,46,3,1,,,,,,,
,,,,,,0,1.875910495,#f3af84,,right_orange.png,p,,,,,,o,right_blue.png,right_orange.png,p,left,60ff46310ae1809cbbd2240a,001,2021-08-01_12h29.03.542,arrow_simon_norep,2021.1.2,Win32,60.07449237,,,,,,,,,,,,,,,,,,,,,p,1,1.4813,48,FALSE,FALSE,11,3,47,0,1,,,,,,,
,,,,,,0,1.589295463,#a3d0fb,,left_blue.png,w,,,,,,w,left_blue.png,left_orange.png,q,left,60ff46310ae1809cbbd2240a,001,2021-08-01_12h29.03.542,arrow_simon_norep,2021.1.2,Win32,60.07449237,,,,,,,,,,,,,,,,,,,,,w,1,1.3926,49,FALSE,TRUE,12,0,48,2,1,,,,,,,
,,,,,,0,2.443087559,#f3af84,,left_orange.png,q,,,,,,w,left_blue.png,left_orange.png,q,left,60ff46310ae1809cbbd2240a,001,2021-08-01_12h29.03.542,arrow_simon_norep,2021.1.2,Win32,60.07449237,,,,,,,,,,,,,,,,,,,,,q,1,1.6362,50,TRUE,FALSE,12,1,49,2,1,,,,,,,
,,,,,,0,1.640809015,#a3d0fb,,right_blue.png,o,,,,,,o,right_blue.png,right_orange.png,p,left,60ff46310ae1809cbbd2240a,001,2021-08-01_12h29.03.542,arrow_simon_norep,2021.1.2,Win32,60.07449237,,,,,,,,,,,,,,,,,,,,,o,1,1.5018,51,FALSE,FALSE,12,2,50,0,1,,,,,,,
,,,,,,0,2.089443466,#f3af84,,right_orange.png,p,,,,,,o,right_blue.png,right_orange.png,p,right,60ff46310ae1809cbbd2240a,001,2021-08-01_12h29.03.542,arrow_simon_norep,2021.1.2,Win32,60.07449237,,,,,,,,,,,,,,,,,,,,,p,1,1.4394,52,FALSE,FALSE,12,3,51,1,1,,,,,,,
,,,,,,1,1.684476109,#a3d0fb,,right_blue.png,o,,,,,,o,right_blue.png,right_orange.png,p,right,60ff46310ae1809cbbd2240a,001,2021-08-01_12h29.03.542,arrow_simon_norep,2021.1.2,Win32,60.07449237,,,,,,,,,,,,,,,,,,,,,w,0,1.4502,53,FALSE,FALSE,13,0,52,1,1,,,,,,,
,,,,,,0,1.957253445,#f3af84,,right_orange.png,p,,,,,,o,right_blue.png,right_orange.png,p,right,60ff46310ae1809cbbd2240a,001,2021-08-01_12h29.03.542,arrow_simon_norep,2021.1.2,Win32,60.07449237,,,,,,,,,,,,,,,,,,,,,p,1,1.4625,54,FALSE,FALSE,13,1,53,1,1,,,,,,,
,,,,,,0,1.925474582,#a3d0fb,,left_blue.png,w,,,,,,w,left_blue.png,left_orange.png,q,left,60ff46310ae1809cbbd2240a,001,2021-08-01_12h29.03.542,arrow_simon_norep,2021.1.2,Win32,60.07449237,,,,,,,,,,,,,,,,,,,,,w,1,1.4817,55,FALSE,FALSE,13,2,54,2,1,,,,,,,
,,,,,,0,1.75559011,#f3af84,,left_orange.png,q,,,,,,w,left_blue.png,left_orange.png,q,left,60ff46310ae1809cbbd2240a,001,2021-08-01_12h29.03.542,arrow_simon_norep,2021.1.2,Win32,60.07449237,,,,,,,,,,,,,,,,,,,,,q,1,1.4502,56,FALSE,FALSE,13,3,55,2,1,,,,,,,
,,,,,,1,2.344184147,#a3d0fb,,left_blue.png,w,,,,,,w,left_blue.png,left_orange.png,q,left,60ff46310ae1809cbbd2240a,001,2021-08-01_12h29.03.542,arrow_simon_norep,2021.1.2,Win32,60.07449237,,,,,,,,,,,,,,,,,,,,,o,0,1.4667,57,FALSE,FALSE,14,0,56,2,1,,,,,,,
,,,,,,1,2.258556756,#f3af84,,left_orange.png,q,,,,,,w,left_blue.png,left_orange.png,q,left,60ff46310ae1809cbbd2240a,001,2021-08-01_12h29.03.542,arrow_simon_norep,2021.1.2,Win32,60.07449237,,,,,,,,,,,,,,,,,,,,,p,0,1.5298,58,FALSE,FALSE,14,1,57,2,1,,,,,,,
,,,,,,1,2.230683648,#a3d0fb,,right_blue.png,o,,,,,,o,right_blue.png,right_orange.png,p,right,60ff46310ae1809cbbd2240a,001,2021-08-01_12h29.03.542,arrow_simon_norep,2021.1.2,Win32,60.07449237,,,,,,,,,,,,,,,,,,,,,w,0,1.493,59,FALSE,FALSE,14,2,58,1,1,,,,,,,
,,,,,,0,1.923612486,#f3af84,,left_orange.png,q,,,,,,w,left_blue.png,left_orange.png,q,right,60ff46310ae1809cbbd2240a,001,2021-08-01_12h29.03.542,arrow_simon_norep,2021.1.2,Win32,60.07449237,,,,,,,,,,,,,,,,,,,,,q,1,1.4317,60,FALSE,FALSE,14,3,59,3,1,,,,,,,
,,,,,,,,,,,,,,,,,,,,,,60ff46310ae1809cbbd2240a,001,2021-08-01_12h29.03.542,arrow_simon_norep,2021.1.2,Win32,60.07449237,,,,,,,,,,,,,,,,,,,,,,,,,,,,,,,,space,29.1907,1,0,1,0,1
,,,,,,0,1.525291817,#a3d0fb,,right_blue.png,o,,,,,,o,right_blue.png,right_orange.png,p,left,60ff46310ae1809cbbd2240a,001,2021-08-01_12h29.03.542,arrow_simon_norep,2021.1.2,Win32,60.07449237,,,,,,,,,,,,,,,,,,,,,o,1,1.5794,1,FALSE,FALSE,0,0,0,0,1,,,,,,,
,,,,,,1,2.467700376,#f3af84,,left_orange.png,q,,,,,,w,left_blue.png,left_orange.png,q,right,60ff46310ae1809cbbd2240a,001,2021-08-01_12h29.03.542,arrow_simon_norep,2021.1.2,Win32,60.07449237,,,,,,,,,,,,,,,,,,,,,p,0,1.5648,2,FALSE,FALSE,0,1,1,3,1,,,,,,,
,,,,,,0,1.656093071,#a3d0fb,,left_blue.png,w,,,,,,w,left_blue.png,left_orange.png,q,left,60ff46310ae1809cbbd2240a,001,2021-08-01_12h29.03.542,arrow_simon_norep,2021.1.2,Win32,60.07449237,,,,,,,,,,,,,,,,,,,,,w,1,1.5024,3,FALSE,FALSE,0,2,2,2,1,,,,,,,
,,,,,,0,1.936224097,#f3af84,,left_orange.png,q,,,,,,w,left_blue.png,left_orange.png,q,right,60ff46310ae1809cbbd2240a,001,2021-08-01_12h29.03.542,arrow_simon_norep,2021.1.2,Win32,60.07449237,,,,,,,,,,,,,,,,,,,,,q,1,1.5498,4,FALSE,FALSE,0,3,3,3,1,,,,,,,
,,,,,,0,2.014264835,#a3d0fb,,left_blue.png,w,,,,,,w,left_blue.png,left_orange.png,q,left,60ff46310ae1809cbbd2240a,001,2021-08-01_12h29.03.542,arrow_simon_norep,2021.1.2,Win32,60.07449237,,,,,,,,,,,,,,,,,,,,,w,1,1.5809,5,FALSE,FALSE,1,0,4,2,1,,,,,,,
,,,,,,0,2.178804757,#f3af84,,right_orange.png,p,,,,,,o,right_blue.png,right_orange.png,p,left,60ff46310ae1809cbbd2240a,001,2021-08-01_12h29.03.542,arrow_simon_norep,2021.1.2,Win32,60.07449237,,,,,,,,,,,,,,,,,,,,,p,1,1.6293,6,TRUE,FALSE,1,1,5,0,1,,,,,,,
,,,,,,0,2.067558226,#a3d0fb,,right_blue.png,o,,,,,,o,right_blue.png,right_orange.png,p,right,60ff46310ae1809cbbd2240a,001,2021-08-01_12h29.03.542,arrow_simon_norep,2021.1.2,Win32,60.07449237,,,,,,,,,,,,,,,,,,,,,o,1,1.521,7,FALSE,FALSE,1,2,6,1,1,,,,,,,
,,,,,,0,1.948424152,#f3af84,,left_orange.png,q,,,,,,w,left_blue.png,left_orange.png,q,right,60ff46310ae1809cbbd2240a,001,2021-08-01_12h29.03.542,arrow_simon_norep,2021.1.2,Win32,60.07449237,,,,,,,,,,,,,,,,,,,,,q,1,1.5148,8,FALSE,FALSE,1,3,7,3,1,,,,,,,
,,,,,,1,2.104438959,#a3d0fb,,right_blue.png,o,,,,,,o,right_blue.png,right_orange.png,p,left,60ff46310ae1809cbbd2240a,001,2021-08-01_12h29.03.542,arrow_simon_norep,2021.1.2,Win32,60.07449237,,,,,,,,,,,,,,,,,,,,,w,0,1.4824,9,FALSE,FALSE,2,0,8,0,1,,,,,,,
,,,,,,0,2.182581938,#f3af84,,right_orange.png,p,,,,,,o,right_blue.png,right_orange.png,p,right,60ff46310ae1809cbbd2240a,001,2021-08-01_12h29.03.542,arrow_simon_norep,2021.1.2,Win32,60.07449237,,,,,,,,,,,,,,,,,,,,,p,1,1.5007,10,FALSE,FALSE,2,1,9,1,1,,,,,,,
,,,,,,0,1.690140318,#a3d0fb,,right_blue.png,o,,,,,,o,right_blue.png,right_orange.png,p,right,60ff46310ae1809cbbd2240a,001,2021-08-01_12h29.03.542,arrow_simon_norep,2021.1.2,Win32,60.07449237,,,,,,,,,,,,,,,,,,,,,o,1,1.3926,11,FALSE,TRUE,2,2,10,1,1,,,,,,,
,,,,,,0,1.865133567,#f3af84,,left_orange.png,q,,,,,,w,left_blue.png,left_orange.png,q,right,60ff46310ae1809cbbd2240a,001,2021-08-01_12h29.03.542,arrow_simon_norep,2021.1.2,Win32,60.07449237,,,,,,,,,,,,,,,,,,,,,q,1,1.4292,12,FALSE,FALSE,2,3,11,3,1,,,,,,,
,,,,,,0,1.757099173,#a3d0fb,,left_blue.png,w,,,,,,w,left_blue.png,left_orange.png,q,right,60ff46310ae1809cbbd2240a,001,2021-08-01_12h29.03.542,arrow_simon_norep,2021.1.2,Win32,60.07449237,,,,,,,,,,,,,,,,,,,,,w,1,1.4328,13,FALSE,FALSE,3,0,12,3,1,,,,,,,
,,,,,,0,1.662778337,#f3af84,,right_orange.png,p,,,,,,o,right_blue.png,right_orange.png,p,left,60ff46310ae1809cbbd2240a,001,2021-08-01_12h29.03.542,arrow_simon_norep,2021.1.2,Win32,60.07449237,,,,,,,,,,,,,,,,,,,,,p,1,1.4612,14,FALSE,FALSE,3,1,13,0,1,,,,,,,
,,,,,,0,2.165925407,#a3d0fb,,left_blue.png,w,,,,,,w,left_blue.png,left_orange.png,q,left,60ff46310ae1809cbbd2240a,001,2021-08-01_12h29.03.542,arrow_simon_norep,2021.1.2,Win32,60.07449237,,,,,,,,,,,,,,,,,,,,,w,1,1.4983,15,FALSE,FALSE,3,2,14,2,1,,,,,,,
,,,,,,0,1.615703104,#f3af84,,right_orange.png,p,,,,,,o,right_blue.png,right_orange.png,p,left,60ff46310ae1809cbbd2240a,001,2021-08-01_12h29.03.542,arrow_simon_norep,2021.1.2,Win32,60.07449237,,,,,,,,,,,,,,,,,,,,,p,1,1.4742,16,FALSE,FALSE,3,3,15,0,1,,,,,,,
,,,,,,1,1.956144542,#a3d0fb,,left_blue.png,w,,,,,,w,left_blue.png,left_orange.png,q,left,60ff46310ae1809cbbd2240a,001,2021-08-01_12h29.03.542,arrow_simon_norep,2021.1.2,Win32,60.07449237,,,,,,,,,,,,,,,,,,,,,o,0,1.4483,17,FALSE,FALSE,4,0,16,2,1,,,,,,,
,,,,,,0,2.091144998,#f3af84,,right_orange.png,p,,,,,,o,right_blue.png,right_orange.png,p,left,60ff46310ae1809cbbd2240a,001,2021-08-01_12h29.03.542,arrow_simon_norep,2021.1.2,Win32,60.07449237,,,,,,,,,,,,,,,,,,,,,p,1,1.475,18,FALSE,FALSE,4,1,17,0,1,,,,,,,
,,,,,,1,2.383003218,#a3d0fb,,right_blue.png,o,,,,,,o,right_blue.png,right_orange.png,p,right,60ff46310ae1809cbbd2240a,001,2021-08-01_12h29.03.542,arrow_simon_norep,2021.1.2,Win32,60.07449237,,,,,,,,,,,,,,,,,,,,,w,0,1.5165,19,FALSE,FALSE,4,2,18,1,1,,,,,,,
,,,,,,0,1.613931062,#f3af84,,left_orange.png,q,,,,,,w,left_blue.png,left_orange.png,q,left,60ff46310ae1809cbbd2240a,001,2021-08-01_12h29.03.542,arrow_simon_norep,2021.1.2,Win32,60.07449237,,,,,,,,,,,,,,,,,,,,,q,1,1.5167,20,FALSE,FALSE,4,3,19,2,1,,,,,,,
,,,,,,1,2.347498521,#a3d0fb,,left_blue.png,w,,,,,,w,left_blue.png,left_orange.png,q,left,60ff46310ae1809cbbd2240a,001,2021-08-01_12h29.03.542,arrow_simon_norep,2021.1.2,Win32,60.07449237,,,,,,,,,,,,,,,,,,,,,o,0,1.4835,21,FALSE,FALSE,5,0,20,2,1,,,,,,,
,,,,,,1,2.419833922,#f3af84,,left_orange.png,q,,,,,,w,left_blue.png,left_orange.png,q,right,60ff46310ae1809cbbd2240a,001,2021-08-01_12h29.03.542,arrow_simon_norep,2021.1.2,Win32,60.07449237,,,,,,,,,,,,,,,,,,,,,p,0,1.7061,22,TRUE,FALSE,5,1,21,3,1,,,,,,,
,,,,,,1,2.129001029,#a3d0fb,,left_blue.png,w,,,,,,w,left_blue.png,left_orange.png,q,right,60ff46310ae1809cbbd2240a,001,2021-08-01_12h29.03.542,arrow_simon_norep,2021.1.2,Win32,60.07449237,,,,,,,,,,,,,,,,,,,,,o,0,1.5422,23,FALSE,FALSE,5,2,22,3,1,,,,,,,
,,,,,,0,1.794378237,#f3af84,,left_orange.png,q,,,,,,w,left_blue.png,left_orange.png,q,left,60ff46310ae1809cbbd2240a,001,2021-08-01_12h29.03.542,arrow_simon_norep,2021.1.2,Win32,60.07449237,,,,,,,,,,,,,,,,,,,,,q,1,1.4985,24,FALSE,FALSE,5,3,23,2,1,,,,,,,
,,,,,,0,2.058682029,#a3d0fb,,left_blue.png,w,,,,,,w,left_blue.png,left_orange.png,q,left,60ff46310ae1809cbbd2240a,001,2021-08-01_12h29.03.542,arrow_simon_norep,2021.1.2,Win32,60.07449237,,,,,,,,,,,,,,,,,,,,,w,1,1.3792,25,FALSE,TRUE,6,0,24,2,1,,,,,,,
,,,,,,0,2.092614542,#f3af84,,right_orange.png,p,,,,,,o,right_blue.png,right_orange.png,p,left,60ff46310ae1809cbbd2240a,001,2021-08-01_12h29.03.542,arrow_simon_norep,2021.1.2,Win32,60.07449237,,,,,,,,,,,,,,,,,,,,,p,1,1.4879,26,FALSE,FALSE,6,1,25,0,1,,,,,,,
,,,,,,0,1.909498054,#a3d0fb,,right_blue.png,o,,,,,,o,right_blue.png,right_orange.png,p,right,60ff46310ae1809cbbd2240a,001,2021-08-01_12h29.03.542,arrow_simon_norep,2021.1.2,Win32,60.07449237,,,,,,,,,,,,,,,,,,,,,o,1,1.4958,27,FALSE,FALSE,6,2,26,1,1,,,,,,,
,,,,,,0,2.18606227,#f3af84,,left_orange.png,q,,,,,,w,left_blue.png,left_orange.png,q,left,60ff46310ae1809cbbd2240a,001,2021-08-01_12h29.03.542,arrow_simon_norep,2021.1.2,Win32,60.07449237,,,,,,,,,,,,,,,,,,,,,q,1,1.563,28,FALSE,FALSE,6,3,27,2,1,,,,,,,
,,,,,,0,1.85268946,#a3d0fb,,right_blue.png,o,,,,,,o,right_blue.png,right_orange.png,p,left,60ff46310ae1809cbbd2240a,001,2021-08-01_12h29.03.542,arrow_simon_norep,2021.1.2,Win32,60.07449237,,,,,,,,,,,,,,,,,,,,,o,1,1.5176,29,FALSE,FALSE,7,0,28,0,1,,,,,,,
,,,,,,0,2.264322873,#f3af84,,right_orange.png,p,,,,,,o,right_blue.png,right_orange.png,p,right,60ff46310ae1809cbbd2240a,001,2021-08-01_12h29.03.542,arrow_simon_norep,2021.1.2,Win32,60.07449237,,,,,,,,,,,,,,,,,,,,,p,1,1.6098,30,TRUE,FALSE,7,1,29,1,1,,,,,,,
,,,,,,0,1.954483322,#a3d0fb,,right_blue.png,o,,,,,,o,right_blue.png,right_orange.png,p,left,60ff46310ae1809cbbd2240a,001,2021-08-01_12h29.03.542,arrow_simon_norep,2021.1.2,Win32,60.07449237,,,,,,,,,,,,,,,,,,,,,o,1,1.5737,31,FALSE,FALSE,7,2,30,0,1,,,,,,,
,,,,,,0,2.046032162,#f3af84,,left_orange.png,q,,,,,,w,left_blue.png,left_orange.png,q,right,60ff46310ae1809cbbd2240a,001,2021-08-01_12h29.03.542,arrow_simon_norep,2021.1.2,Win32,60.07449237,,,,,,,,,,,,,,,,,,,,,q,1,1.4774,32,FALSE,FALSE,7,3,31,3,1,,,,,,,
,,,,,,1,2.283370731,#a3d0fb,,left_blue.png,w,,,,,,w,left_blue.png,left_orange.png,q,right,60ff46310ae1809cbbd2240a,001,2021-08-01_12h29.03.542,arrow_simon_norep,2021.1.2,Win32,60.07449237,,,,,,,,,,,,,,,,,,,,,o,0,1.5502,33,FALSE,FALSE,8,0,32,3,1,,,,,,,
,,,,,,1,1.664298708,#f3af84,,left_orange.png,q,,,,,,w,left_blue.png,left_orange.png,q,right,60ff46310ae1809cbbd2240a,001,2021-08-01_12h29.03.542,arrow_simon_norep,2021.1.2,Win32,60.07449237,,,,,,,,,,,,,,,,,,,,,q,1,1.3322,34,FALSE,TRUE,8,1,33,3,1,,,,,,,
,,,,,,1,1.569328808,#a3d0fb,,right_blue.png,o,,,,,,o,right_blue.png,right_orange.png,p,right,60ff46310ae1809cbbd2240a,001,2021-08-01_12h29.03.542,arrow_simon_norep,2021.1.2,Win32,60.07449237,,,,,,,,,,,,,,,,,,,,,p,0,1.3918,35,FALSE,TRUE,8,2,34,1,1,,,,,,,
,,,,,,0,1.833634799,#f3af84,,left_orange.png,q,,,,,,w,left_blue.png,left_orange.png,q,left,60ff46310ae1809cbbd2240a,001,2021-08-01_12h29.03.542,arrow_simon_norep,2021.1.2,Win32,60.07449237,,,,,,,,,,,,,,,,,,,,,q,1,1.4486,36,FALSE,FALSE,8,3,35,2,1,,,,,,,
,,,,,,1,2.240975138,#a3d0fb,,left_blue.png,w,,,,,,w,left_blue.png,left_orange.png,q,right,60ff46310ae1809cbbd2240a,001,2021-08-01_12h29.03.542,arrow_simon_norep,2021.1.2,Win32,60.07449237,,,,,,,,,,,,,,,,,,,,,o,0,1.5645,37,FALSE,FALSE,9,0,36,3,1,,,,,,,
,,,,,,0,1.576950969,#f3af84,,right_orange.png,p,,,,,,o,right_blue.png,right_orange.png,p,right,60ff46310ae1809cbbd2240a,001,2021-08-01_12h29.03.542,arrow_simon_norep,2021.1.2,Win32,60.07449237,,,,,,,,,,,,,,,,,,,,,p,1,1.4498,38,FALSE,FALSE,9,1,37,1,1,,,,,,,
,,,,,,0,2.16042245,#a3d0fb,,left_blue.png,w,,,,,,w,left_blue.png,left_orange.png,q,right,60ff46310ae1809cbbd2240a,001,2021-08-01_12h29.03.542,arrow_simon_norep,2021.1.2,Win32,60.07449237,,,,,,,,,,,,,,,,,,,,,w,1,1.5224,39,FALSE,FALSE,9,2,38,3,1,,,,,,,
,,,,,,1,2.313738913,#f3af84,,right_orange.png,p,,,,,,o,right_blue.png,right_orange.png,p,right,60ff46310ae1809cbbd2240a,001,2021-08-01_12h29.03.542,arrow_simon_norep,2021.1.2,Win32,60.07449237,,,,,,,,,,,,,,,,,,,,,q,0,1.5165,40,FALSE,FALSE,9,3,39,1,1,,,,,,,
,,,,,,1,1.788966156,#a3d0fb,,left_blue.png,w,,,,,,w,left_blue.png,left_orange.png,q,left,60ff46310ae1809cbbd2240a,001,2021-08-01_12h29.03.542,arrow_simon_norep,2021.1.2,Win32,60.07449237,,,,,,,,,,,,,,,,,,,,,w,1,1.3733,41,FALSE,TRUE,10,0,40,2,1,,,,,,,
,,,,,,0,2.171827836,#f3af84,,right_orange.png,p,,,,,,o,right_blue.png,right_orange.png,p,right,60ff46310ae1809cbbd2240a,001,2021-08-01_12h29.03.542,arrow_simon_norep,2021.1.2,Win32,60.07449237,,,,,,,,,,,,,,,,,,,,,p,1,1.4819,42,FALSE,FALSE,10,1,41,1,1,,,,,,,
,,,,,,0,1.856291888,#a3d0fb,,right_blue.png,o,,,,,,o,right_blue.png,right_orange.png,p,left,60ff46310ae1809cbbd2240a,001,2021-08-01_12h29.03.542,arrow_simon_norep,2021.1.2,Win32,60.07449237,,,,,,,,,,,,,,,,,,,,,o,1,1.464,43,FALSE,FALSE,10,2,42,0,1,,,,,,,
,,,,,,0,1.841413472,#f3af84,,left_orange.png,q,,,,,,w,left_blue.png,left_orange.png,q,right,60ff46310ae1809cbbd2240a,001,2021-08-01_12h29.03.542,arrow_simon_norep,2021.1.2,Win32,60.07449237,,,,,,,,,,,,,,,,,,,,,q,1,1.4643,44,FALSE,FALSE,10,3,43,3,1,,,,,,,
,,,,,,0,2.232075421,#a3d0fb,,right_blue.png,o,,,,,,o,right_blue.png,right_orange.png,p,right,60ff46310ae1809cbbd2240a,001,2021-08-01_12h29.03.542,arrow_simon_norep,2021.1.2,Win32,60.07449237,,,,,,,,,,,,,,,,,,,,,o,1,1.4499,45,FALSE,FALSE,11,0,44,1,1,,,,,,,
,,,,,,0,1.911823523,#f3af84,,right_orange.png,p,,,,,,o,right_blue.png,right_orange.png,p,right,60ff46310ae1809cbbd2240a,001,2021-08-01_12h29.03.542,arrow_simon_norep,2021.1.2,Win32,60.07449237,,,,,,,,,,,,,,,,,,,,,p,1,1.4473,46,FALSE,FALSE,11,1,45,1,1,,,,,,,
,,,,,,0,1.703937022,#a3d0fb,,right_blue.png,o,,,,,,o,right_blue.png,right_orange.png,p,left,60ff46310ae1809cbbd2240a,001,2021-08-01_12h29.03.542,arrow_simon_norep,2021.1.2,Win32,60.07449237,,,,,,,,,,,,,,,,,,,,,o,1,1.4717,47,FALSE,FALSE,11,2,46,0,1,,,,,,,
,,,,,,1,2.138509381,#f3af84,,left_orange.png,q,,,,,,w,left_blue.png,left_orange.png,q,left,60ff46310ae1809cbbd2240a,001,2021-08-01_12h29.03.542,arrow_simon_norep,2021.1.2,Win32,60.07449237,,,,,,,,,,,,,,,,,,,,,w,0,1.4983,48,FALSE,FALSE,11,3,47,2,1,,,,,,,
,,,,,,1,2.372127178,#a3d0fb,,right_blue.png,o,,,,,,o,right_blue.png,right_orange.png,p,right,60ff46310ae1809cbbd2240a,001,2021-08-01_12h29.03.542,arrow_simon_norep,2021.1.2,Win32,60.07449237,,,,,,,,,,,,,,,,,,,,,o,1,1.6653,49,TRUE,FALSE,12,0,48,1,1,,,,,,,
,,,,,,0,2.333444411,#f3af84,,right_orange.png,p,,,,,,o,right_blue.png,right_orange.png,p,right,60ff46310ae1809cbbd2240a,001,2021-08-01_12h29.03.542,arrow_simon_norep,2021.1.2,Win32,60.07449237,,,,,,,,,,,,,,,,,,,,,p,1,1.4582,50,FALSE,FALSE,12,1,49,1,1,,,,,,,
,,,,,,0,1.726050689,#a3d0fb,,right_blue.png,o,,,,,,o,right_blue.png,right_orange.png,p,right,60ff46310ae1809cbbd2240a,001,2021-08-01_12h29.03.542,arrow_simon_norep,2021.1.2,Win32,60.07449237,,,,,,,,,,,,,,,,,,,,,o,1,1.3829,51,FALSE,TRUE,12,2,50,1,1,,,,,,,
,,,,,,1,2.041474558,#f3af84,,right_orange.png,p,,,,,,o,right_blue.png,right_orange.png,p,left,60ff46310ae1809cbbd2240a,001,2021-08-01_12h29.03.542,arrow_simon_norep,2021.1.2,Win32,60.07449237,,,,,,,,,,,,,,,,,,,,,q,0,1.4029,52,FALSE,FALSE,12,3,51,0,1,,,,,,,
,,,,,,0,1.739210201,#a3d0fb,,left_blue.png,w,,,,,,w,left_blue.png,left_orange.png,q,left,60ff46310ae1809cbbd2240a,001,2021-08-01_12h29.03.542,arrow_simon_norep,2021.1.2,Win32,60.07449237,,,,,,,,,,,,,,,,,,,,,w,1,1.474,53,FALSE,FALSE,13,0,52,2,1,,,,,,,
,,,,,,0,2.240244472,#f3af84,,right_orange.png,p,,,,,,o,right_blue.png,right_orange.png,p,left,60ff46310ae1809cbbd2240a,001,2021-08-01_12h29.03.542,arrow_simon_norep,2021.1.2,Win32,60.07449237,,,,,,,,,,,,,,,,,,,,,p,1,1.4445,54,FALSE,FALSE,13,1,53,0,1,,,,,,,
,,,,,,1,2.227984267,#a3d0fb,,left_blue.png,w,,,,,,w,left_blue.png,left_orange.png,q,right,60ff46310ae1809cbbd2240a,001,2021-08-01_12h29.03.542,arrow_simon_norep,2021.1.2,Win32,60.07449237,,,,,,,,,,,,,,,,,,,,,o,0,1.516,55,FALSE,FALSE,13,2,54,3,1,,,,,,,
,,,,,,0,1.990464607,#f3af84,,left_orange.png,q,,,,,,w,left_blue.png,left_orange.png,q,right,60ff46310ae1809cbbd2240a,001,2021-08-01_12h29.03.542,arrow_simon_norep,2021.1.2,Win32,60.07449237,,,,,,,,,,,,,,,,,,,,,q,1,1.4737,56,FALSE,FALSE,13,3,55,3,1,,,,,,,
,,,,,,1,1.979133718,#a3d0fb,,right_blue.png,o,,,,,,o,right_blue.png,right_orange.png,p,left,60ff46310ae1809cbbd2240a,001,2021-08-01_12h29.03.542,arrow_simon_norep,2021.1.2,Win32,60.07449237,,,,,,,,,,,,,,,,,,,,,w,0,1.4186,57,FALSE,FALSE,14,0,56,0,1,,,,,,,
,,,,,,0,1.763824064,#f3af84,,left_orange.png,q,,,,,,w,left_blue.png,left_orange.png,q,left,60ff46310ae1809cbbd2240a,001,2021-08-01_12h29.03.542,arrow_simon_norep,2021.1.2,Win32,60.07449237,,,,,,,,,,,,,,,,,,,,,q,1,1.5083,58,FALSE,FALSE,14,1,57,2,1,,,,,,,
,,,,,,0,2.40123632,#a3d0fb,,right_blue.png,o,,,,,,o,right_blue.png,right_orange.png,p,left,60ff46310ae1809cbbd2240a,001,2021-08-01_12h29.03.542,arrow_simon_norep,2021.1.2,Win32,60.07449237,,,,,,,,,,,,,,,,,,,,,o,1,1.5814,59,FALSE,FALSE,14,2,58,0,1,,,,,,,
,,,,,,0,1.561305901,#f3af84,,left_orange.png,q,,,,,,w,left_blue.png,left_orange.png,q,left,60ff46310ae1809cbbd2240a,001,2021-08-01_12h29.03.542,arrow_simon_norep,2021.1.2,Win32,60.07449237,,,,,,,,,,,,,,,,,,,,,q,1,1.4221,60,FALSE,FALSE,14,3,59,2,1,,,,,,,
,,,,,,,,,,,,,,,,,,,,,,60ff46310ae1809cbbd2240a,001,2021-08-01_12h29.03.542,arrow_simon_norep,2021.1.2,Win32,60.07449237,,,,,,,,,,,,,,,,,,,,,,,,,,,,,,,,space,57.1136,2,0,2,0,1
,,,,,,0,1.642739236,#a3d0fb,,left_blue.png,w,,,,,,w,left_blue.png,left_orange.png,q,right,60ff46310ae1809cbbd2240a,001,2021-08-01_12h29.03.542,arrow_simon_norep,2021.1.2,Win32,60.07449237,,,,,,,,,,,,,,,,,,,,,w,1,1.2328,1,FALSE,TRUE,0,0,0,3,1,,,,,,,
,,,,,,0,1.591579591,#f3af84,,left_orange.png,q,,,,,,w,left_blue.png,left_orange.png,q,left,60ff46310ae1809cbbd2240a,001,2021-08-01_12h29.03.542,arrow_simon_norep,2021.1.2,Win32,60.07449237,,,,,,,,,,,,,,,,,,,,,q,1,1.5218,2,FALSE,FALSE,0,1,1,2,1,,,,,,,
,,,,,,0,1.541477797,#a3d0fb,,left_blue.png,w,,,,,,w,left_blue.png,left_orange.png,q,right,60ff46310ae1809cbbd2240a,001,2021-08-01_12h29.03.542,arrow_simon_norep,2021.1.2,Win32,60.07449237,,,,,,,,,,,,,,,,,,,,,w,1,1.4671,3,FALSE,FALSE,0,2,2,3,1,,,,,,,
,,,,,,0,1.773129801,#f3af84,,right_orange.png,p,,,,,,o,right_blue.png,right_orange.png,p,left,60ff46310ae1809cbbd2240a,001,2021-08-01_12h29.03.542,arrow_simon_norep,2021.1.2,Win32,60.07449237,,,,,,,,,,,,,,,,,,,,,p,1,1.4543,4,FALSE,FALSE,0,3,3,0,1,,,,,,,
,,,,,,0,1.78121642,#a3d0fb,,left_blue.png,w,,,,,,w,left_blue.png,left_orange.png,q,right,60ff46310ae1809cbbd2240a,001,2021-08-01_12h29.03.542,arrow_simon_norep,2021.1.2,Win32,60.07449237,,,,,,,,,,,,,,,,,,,,,w,1,1.2005,5,FALSE,TRUE,1,0,4,3,1,,,,,,,
,,,,,,0,2.132919443,#f3af84,,left_orange.png,q,,,,,,w,left_blue.png,left_orange.png,q,left,60ff46310ae1809cbbd2240a,001,2021-08-01_12h29.03.542,arrow_simon_norep,2021.1.2,Win32,60.07449237,,,,,,,,,,,,,,,,,,,,,q,1,1.4507,6,FALSE,FALSE,1,1,5,2,1,,,,,,,
,,,,,,0,2.119405011,#a3d0fb,,right_blue.png,o,,,,,,o,right_blue.png,right_orange.png,p,left,60ff46310ae1809cbbd2240a,001,2021-08-01_12h29.03.542,arrow_simon_norep,2021.1.2,Win32,60.07449237,,,,,,,,,,,,,,,,,,,,,o,1,1.5429,7,FALSE,FALSE,1,2,6,0,1,,,,,,,
,,,,,,0,2.365258075,#f3af84,,left_orange.png,q,,,,,,w,left_blue.png,left_orange.png,q,right,60ff46310ae1809cbbd2240a,001,2021-08-01_12h29.03.542,arrow_simon_norep,2021.1.2,Win32,60.07449237,,,,,,,,,,,,,,,,,,,,,p,0,1.6787,8,TRUE,FALSE,1,3,7,3,1,,,,,,,
,,,,,,1,2.206907942,#a3d0fb,,left_blue.png,w,,,,,,w,left_blue.png,left_orange.png,q,left,60ff46310ae1809cbbd2240a,001,2021-08-01_12h29.03.542,arrow_simon_norep,2021.1.2,Win32,60.07449237,,,,,,,,,,,,,,,,,,,,,q,0,1.5499,9,FALSE,FALSE,2,0,8,2,1,,,,,,,
,,,,,,0,1.740234767,#f3af84,,right_orange.png,p,,,,,,o,right_blue.png,right_orange.png,p,left,60ff46310ae1809cbbd2240a,001,2021-08-01_12h29.03.542,arrow_simon_norep,2021.1.2,Win32,60.07449237,,,,,,,,,,,,,,,,,,,,,p,1,1.4446,10,FALSE,FALSE,2,1,9,0,1,,,,,,,
,,,,,,0,1.859506192,#a3d0fb,,left_blue.png,w,,,,,,w,left_blue.png,left_orange.png,q,left,60ff46310ae1809cbbd2240a,001,2021-08-01_12h29.03.542,arrow_simon_norep,2021.1.2,Win32,60.07449237,,,,,,,,,,,,,,,,,,,,,w,1,1.4273,11,FALSE,FALSE,2,2,10,2,1,,,,,,,
,,,,,,1,2.273752965,#f3af84,,right_orange.png,p,,,,,,o,right_blue.png,right_orange.png,p,left,60ff46310ae1809cbbd2240a,001,2021-08-01_12h29.03.542,arrow_simon_norep,2021.1.2,Win32,60.07449237,,,,,,,,,,,,,,,,,,,,,q,0,1.5397,12,FALSE,FALSE,2,3,11,0,1,,,,,,,
,,,,,,0,1.931355962,#a3d0fb,,left_blue.png,w,,,,,,w,left_blue.png,left_orange.png,q,left,60ff46310ae1809cbbd2240a,001,2021-08-01_12h29.03.542,arrow_simon_norep,2021.1.2,Win32,60.07449237,,,,,,,,,,,,,,,,,,,,,w,1,1.4911,13,FALSE,FALSE,3,0,12,2,1,,,,,,,
,,,,,,0,1.761166187,#f3af84,,left_orange.png,q,,,,,,w,left_blue.png,left_orange.png,q,right,60ff46310ae1809cbbd2240a,001,2021-08-01_12h29.03.542,arrow_simon_norep,2021.1.2,Win32,60.07449237,,,,,,,,,,,,,,,,,,,,,q,1,1.4117,14,FALSE,FALSE,3,1,13,3,1,,,,,,,
,,,,,,0,1.522764309,#a3d0fb,,right_blue.png,o,,,,,,o,right_blue.png,right_orange.png,p,right,60ff46310ae1809cbbd2240a,001,2021-08-01_12h29.03.542,arrow_simon_norep,2021.1.2,Win32,60.07449237,,,,,,,,,,,,,,,,,,,,,o,1,1.3563,15,FALSE,TRUE,3,2,14,1,1,,,,,,,
,,,,,,0,1.741898735,#f3af84,,left_orange.png,q,,,,,,w,left_blue.png,left_orange.png,q,left,60ff46310ae1809cbbd2240a,001,2021-08-01_12h29.03.542,arrow_simon_norep,2021.1.2,Win32,60.07449237,,,,,,,,,,,,,,,,,,,,,q,1,1.246,16,FALSE,TRUE,3,3,15,2,1,,,,,,,
,,,,,,0,1.885287171,#a3d0fb,,right_blue.png,o,,,,,,o,right_blue.png,right_orange.png,p,left,60ff46310ae1809cbbd2240a,001,2021-08-01_12h29.03.542,arrow_simon_norep,2021.1.2,Win32,60.07449237,,,,,,,,,,,,,,,,,,,,,o,1,1.4661,17,FALSE,FALSE,4,0,16,0,1,,,,,,,
,,,,,,0,1.662702217,#f3af84,,left_orange.png,q,,,,,,w,left_blue.png,left_orange.png,q,left,60ff46310ae1809cbbd2240a,001,2021-08-01_12h29.03.542,arrow_simon_norep,2021.1.2,Win32,60.07449237,,,,,,,,,,,,,,,,,,,,,q,1,1.4582,18,FALSE,FALSE,4,1,17,2,1,,,,,,,
,,,,,,0,1.859441092,#a3d0fb,,right_blue.png,o,,,,,,o,right_blue.png,right_orange.png,p,left,60ff46310ae1809cbbd2240a,001,2021-08-01_12h29.03.542,arrow_simon_norep,2021.1.2,Win32,60.07449237,,,,,,,,,,,,,,,,,,,,,w,0,1.1772,19,FALSE,TRUE,4,2,18,0,1,,,,,,,
,,,,,,0,2.072467463,#f3af84,,left_orange.png,q,,,,,,w,left_blue.png,left_orange.png,q,right,60ff46310ae1809cbbd2240a,001,2021-08-01_12h29.03.542,arrow_simon_norep,2021.1.2,Win32,60.07449237,,,,,,,,,,,,,,,,,,,,,q,1,1.4833,20,FALSE,FALSE,4,3,19,3,1,,,,,,,
,,,,,,0,1.510303569,#a3d0fb,,right_blue.png,o,,,,,,o,right_blue.png,right_orange.png,p,left,60ff46310ae1809cbbd2240a,001,2021-08-01_12h29.03.542,arrow_simon_norep,2021.1.2,Win32,60.07449237,,,,,,,,,,,,,,,,,,,,,o,1,1.4889,21,FALSE,FALSE,5,0,20,0,1,,,,,,,
,,,,,,0,2.087258174,#f3af84,,right_orange.png,p,,,,,,o,right_blue.png,right_orange.png,p,right,60ff46310ae1809cbbd2240a,001,2021-08-01_12h29.03.542,arrow_simon_norep,2021.1.2,Win32,60.07449237,,,,,,,,,,,,,,,,,,,,,p,1,1.5176,22,FALSE,FALSE,5,1,21,1,1,,,,,,,
,,,,,,0,2.106166039,#a3d0fb,,right_blue.png,o,,,,,,o,right_blue.png,right_orange.png,p,right,60ff46310ae1809cbbd2240a,001,2021-08-01_12h29.03.542,arrow_simon_norep,2021.1.2,Win32,60.07449237,,,,,,,,,,,,,,,,,,,,,o,1,1.4767,23,FALSE,FALSE,5,2,22,1,1,,,,,,,
,,,,,,0,2.130095693,#f3af84,,right_orange.png,p,,,,,,o,right_blue.png,right_orange.png,p,right,60ff46310ae1809cbbd2240a,001,2021-08-01_12h29.03.542,arrow_simon_norep,2021.1.2,Win32,60.07449237,,,,,,,,,,,,,,,,,,,,,p,1,1.4498,24,FALSE,FALSE,5,3,23,1,1,,,,,,,
,,,,,,1,2.246089972,#a3d0fb,,right_blue.png,o,,,,,,o,right_blue.png,right_orange.png,p,left,60ff46310ae1809cbbd2240a,001,2021-08-01_12h29.03.542,arrow_simon_norep,2021.1.2,Win32,60.07449237,,,,,,,,,,,,,,,,,,,,,q,0,1.5503,25,FALSE,FALSE,6,0,24,0,1,,,,,,,
,,,,,,1,1.673763425,#f3af84,,left_orange.png,q,,,,,,w,left_blue.png,left_orange.png,q,right,60ff46310ae1809cbbd2240a,001,2021-08-01_12h29.03.542,arrow_simon_norep,2021.1.2,Win32,60.07449237,,,,,,,,,,,,,,,,,,,,,o,0,1.045,26,FALSE,TRUE,6,1,25,3,1,,,,,,,
,,,,,,0,2.187219416,#a3d0fb,,right_blue.png,o,,,,,,o,right_blue.png,right_orange.png,p,right,60ff46310ae1809cbbd2240a,001,2021-08-01_12h29.03.542,arrow_simon_norep,2021.1.2,Win32,60.07449237,,,,,,,,,,,,,,,,,,,,,o,1,1.525,27,FALSE,FALSE,6,2,26,1,1,,,,,,,
,,,,,,0,2.448571242,#f3af84,,right_orange.png,p,,,,,,o,right_blue.png,right_orange.png,p,right,60ff46310ae1809cbbd2240a,001,2021-08-01_12h29.03.542,arrow_simon_norep,2021.1.2,Win32,60.07449237,,,,,,,,,,,,,,,,,,,,,q,0,1.7869,28,TRUE,FALSE,6,3,27,1,1,,,,,,,
,,,,,,1,2.48600224,#a3d0fb,,left_blue.png,w,,,,,,w,left_blue.png,left_orange.png,q,left,60ff46310ae1809cbbd2240a,001,2021-08-01_12h29.03.542,arrow_simon_norep,2021.1.2,Win32,60.07449237,,,,,,,,,,,,,,,,,,,,,o,0,1.5491,29,FALSE,FALSE,7,0,28,2,1,,,,,,,
,,,,,,0,1.958382728,#f3af84,,left_orange.png,q,,,,,,w,left_blue.png,left_orange.png,q,right,60ff46310ae1809cbbd2240a,001,2021-08-01_12h29.03.542,arrow_simon_norep,2021.1.2,Win32,60.07449237,,,,,,,,,,,,,,,,,,,,,q,1,1.5436,30,FALSE,FALSE,7,1,29,3,1,,,,,,,
,,,,,,0,1.933481617,#a3d0fb,,left_blue.png,w,,,,,,w,left_blue.png,left_orange.png,q,left,60ff46310ae1809cbbd2240a,001,2021-08-01_12h29.03.542,arrow_simon_norep,2021.1.2,Win32,60.07449237,,,,,,,,,,,,,,,,,,,,,w,1,1.424,31,FALSE,FALSE,7,2,30,2,1,,,,,,,
,,,,,,1,2.247898609,#f3af84,,left_orange.png,q,,,,,,w,left_blue.png,left_orange.png,q,right,60ff46310ae1809cbbd2240a,001,2021-08-01_12h29.03.542,arrow_simon_norep,2021.1.2,Win32,60.07449237,,,,,,,,,,,,,,,,,,,,,p,0,1.5032,32,FALSE,FALSE,7,3,31,3,1,,,,,,,
,,,,,,0,2.115553059,#a3d0fb,,right_blue.png,o,,,,,,o,right_blue.png,right_orange.png,p,right,60ff46310ae1809cbbd2240a,001,2021-08-01_12h29.03.542,arrow_simon_norep,2021.1.2,Win32,60.07449237,,,,,,,,,,,,,,,,,,,,,o,1,1.532,33,FALSE,FALSE,8,0,32,1,1,,,,,,,
,,,,,,0,1.734295234,#f3af84,,right_orange.png,p,,,,,,o,right_blue.png,right_orange.png,p,right,60ff46310ae1809cbbd2240a,001,2021-08-01_12h29.03.542,arrow_simon_norep,2021.1.2,Win32,60.07449237,,,,,,,,,,,,,,,,,,,,,p,1,1.4149,34,FALSE,FALSE,8,1,33,1,1,,,,,,,
,,,,,,0,1.837489102,#a3d0fb,,right_blue.png,o,,,,,,o,right_blue.png,right_orange.png,p,right,60ff46310ae1809cbbd2240a,001,2021-08-01_12h29.03.542,arrow_simon_norep,2021.1.2,Win32,60.07449237,,,,,,,,,,,,,,,,,,,,,o,1,1.4653,35,FALSE,FALSE,8,2,34,1,1,,,,,,,
,,,,,,1,2.324436132,#f3af84,,right_orange.png,p,,,,,,o,right_blue.png,right_orange.png,p,right,60ff46310ae1809cbbd2240a,001,2021-08-01_12h29.03.542,arrow_simon_norep,2021.1.2,Win32,60.07449237,,,,,,,,,,,,,,,,,,,,,q,0,1.5028,36,FALSE,FALSE,8,3,35,1,1,,,,,,,
,,,,,,0,1.612316167,#a3d0fb,,right_blue.png,o,,,,,,o,right_blue.png,right_orange.png,p,left,60ff46310ae1809cbbd2240a,001,2021-08-01_12h29.03.542,arrow_simon_norep,2021.1.2,Win32,60.07449237,,,,,,,,,,,,,,,,,,,,,o,1,1.4432,37,FALSE,FALSE,9,0,36,0,1,,,,,,,
,,,,,,1,1.992351965,#f3af84,,right_orange.png,p,,,,,,o,right_blue.png,right_orange.png,p,left,60ff46310ae1809cbbd2240a,001,2021-08-01_12h29.03.542,arrow_simon_norep,2021.1.2,Win32,60.07449237,,,,,,,,,,,,,,,,,,,,,w,0,1.5391,38,FALSE,FALSE,9,1,37,0,1,,,,,,,
,,,,,,1,2.468845326,#a3d0fb,,left_blue.png,w,,,,,,w,left_blue.png,left_orange.png,q,right,60ff46310ae1809cbbd2240a,001,2021-08-01_12h29.03.542,arrow_simon_norep,2021.1.2,Win32,60.07449237,,,,,,,,,,,,,,,,,,,,,o,0,1.1999,39,FALSE,TRUE,9,2,38,3,1,,,,,,,
,,,,,,1,2.359989806,#f3af84,,right_orange.png,p,,,,,,o,right_blue.png,right_orange.png,p,right,60ff46310ae1809cbbd2240a,001,2021-08-01_12h29.03.542,arrow_simon_norep,2021.1.2,Win32,60.07449237,,,,,,,,,,,,,,,,,,,,,p,1,1.6006,40,TRUE,FALSE,9,3,39,1,1,,,,,,,
,,,,,,1,1.596994094,#a3d0fb,,right_blue.png,o,,,,,,o,right_blue.png,right_orange.png,p,left,60ff46310ae1809cbbd2240a,001,2021-08-01_12h29.03.542,arrow_simon_norep,2021.1.2,Win32,60.07449237,,,,,,,,,,,,,,,,,,,,,w,0,1.3809,41,FALSE,TRUE,10,0,40,0,1,,,,,,,
,,,,,,0,1.780013289,#f3af84,,left_orange.png,q,,,,,,w,left_blue.png,left_orange.png,q,right,60ff46310ae1809cbbd2240a,001,2021-08-01_12h29.03.542,arrow_simon_norep,2021.1.2,Win32,60.07449237,,,,,,,,,,,,,,,,,,,,,q,1,1.4328,42,FALSE,FALSE,10,1,41,3,1,,,,,,,
,,,,,,1,2.309194984,#a3d0fb,,left_blue.png,w,,,,,,w,left_blue.png,left_orange.png,q,left,60ff46310ae1809cbbd2240a,001,2021-08-01_12h29.03.542,arrow_simon_norep,2021.1.2,Win32,60.07449237,,,,,,,,,,,,,,,,,,,,,o,0,1.4665,43,FALSE,FALSE,10,2,42,2,1,,,,,,,
,,,,,,0,1.591651665,#f3af84,,right_orange.png,p,,,,,,o,right_blue.png,right_orange.png,p,left,60ff46310ae1809cbbd2240a,001,2021-08-01_12h29.03.542,arrow_simon_norep,2021.1.2,Win32,60.07449237,,,,,,,,,,,,,,,,,,,,,p,1,1.4331,44,FALSE,FALSE,10,3,43,0,1,,,,,,,
,,,,,,1,2.351465875,#a3d0fb,,left_blue.png,w,,,,,,w,left_blue.png,left_orange.png,q,right,60ff46310ae1809cbbd2240a,001,2021-08-01_12h29.03.542,arrow_simon_norep,2021.1.2,Win32,60.07449237,,,,,,,,,,,,,,,,,,,,,o,0,1.483,45,FALSE,FALSE,11,0,44,3,1,,,,,,,
,,,,,,1,1.914749204,#f3af84,,left_orange.png,q,,,,,,w,left_blue.png,left_orange.png,q,right,60ff46310ae1809cbbd2240a,001,2021-08-01_12h29.03.542,arrow_simon_norep,2021.1.2,Win32,60.07449237,,,,,,,,,,,,,,,,,,,,,q,1,1.3201,46,FALSE,TRUE,11,1,45,3,1,,,,,,,
,,,,,,1,1.668436888,#a3d0fb,,left_blue.png,w,,,,,,w,left_blue.png,left_orange.png,q,left,60ff46310ae1809cbbd2240a,001,2021-08-01_12h29.03.542,arrow_simon_norep,2021.1.2,Win32,60.07449237,,,,,,,,,,,,,,,,,,,,,q,0,1.3906,47,FALSE,TRUE,11,2,46,2,1,,,,,,,
,,,,,,0,2.371134127,#f3af84,,right_orange.png,p,,,,,,o,right_blue.png,right_orange.png,p,left,60ff46310ae1809cbbd2240a,001,2021-08-01_12h29.03.542,arrow_simon_norep,2021.1.2,Win32,60.07449237,,,,,,,,,,,,,,,,,,,,,p,1,1.5333,48,FALSE,FALSE,11,3,47,0,1,,,,,,,
,,,,,,0,1.618525194,#a3d0fb,,right_blue.png,o,,,,,,o,right_blue.png,right_orange.png,p,left,60ff46310ae1809cbbd2240a,001,2021-08-01_12h29.03.542,arrow_simon_norep,2021.1.2,Win32,60.07449237,,,,,,,,,,,,,,,,,,,,,o,1,1.4554,49,FALSE,FALSE,12,0,48,0,1,,,,,,,
,,,,,,0,1.774052312,#f3af84,,right_orange.png,p,,,,,,o,right_blue.png,right_orange.png,p,right,60ff46310ae1809cbbd2240a,001,2021-08-01_12h29.03.542,arrow_simon_norep,2021.1.2,Win32,60.07449237,,,,,,,,,,,,,,,,,,,,,p,1,1.4551,50,FALSE,FALSE,12,1,49,1,1,,,,,,,
,,,,,,1,2.099522224,#a3d0fb,,left_blue.png,w,,,,,,w,left_blue.png,left_orange.png,q,right,60ff46310ae1809cbbd2240a,001,2021-08-01_12h29.03.542,arrow_simon_norep,2021.1.2,Win32,60.07449237,,,,,,,,,,,,,,,,,,,,,o,0,1.4493,51,FALSE,FALSE,12,2,50,3,1,,,,,,,
