instruct_resp_simon.keys,instruct_resp_simon.corr,instruct_resp_simon.rt,trial_resp_simon.keys,trial_resp_simon.corr,trial_resp_simon.rt,kerr,target_onset,target_color,target_pos,target_file,target_resp,trials_train_simon.thisRepN,trials_train_simon.thisTrialN,trials_train_simon.thisN,trials_train_simon.thisIndex,trials_train_simon.ran,odd_target_resp,odd_target_file,even_target_file,even_target_resp,target_side,participant,session,date,expName,psychopyVersion,OS,frameRate,train_block_note_resp.keys,train_block_note_resp.rt,blocks_train.thisRepN,blocks_train.thisTrialN,blocks_train.thisN,blocks_train.thisIndex,blocks_train.ran,instruct_resp_timing.keys,instruct_resp_timing.corr,instruct_resp_timing.rt,trial_resp_timing.keys,trial_resp_timing.rt,trials_train_timing.thisRepN,trials_train_timing.thisTrialN,trials_train_timing.thisN,trials_train_timing.thisIndex,trials_train_timing.ran,instruct_resp.keys,instruct_resp.corr,instruct_resp.rt,trial_resp.keys,trial_resp.corr,trial_resp.rt,trial_num,too_slow,too_soon,trials.thisRepN,trials.thisTrialN,trials.thisN,trials.thisIndex,trials.ran,block_note_resp.keys,block_note_resp.rt,blocks.thisRepN,blocks.thisTrialN,blocks.thisN,blocks.thisIndex,blocks.ran
space,0,74.6501,o,0,12.638,1,0.502395343,#a3d0fb,,left_blue.png,w,0,0,0,3,1,w,left_blue.png,left_orange.png,q,right,6100934ff7cc3bbc93278195,001,2021-08-01_10h31.32.618,arrow_simon_norep,2021.1.2,Win32,60.03121623,,,,,,,,,,,,,,,,,,,,,,,,,,,,,,,,,,,,,,
,,,p,0,1.3145,1,0.768587481,#f3af84,,left_orange.png,q,0,1,1,3,1,w,left_blue.png,left_orange.png,q,right,6100934ff7cc3bbc93278195,001,2021-08-01_10h31.32.618,arrow_simon_norep,2021.1.2,Win32,60.03121623,,,,,,,,,,,,,,,,,,,,,,,,,,,,,,,,,,,,,,
,,,q,0,1.4972,1,0.212666253,#a3d0fb,,right_blue.png,o,0,2,2,0,1,o,right_blue.png,right_orange.png,p,left,6100934ff7cc3bbc93278195,001,2021-08-01_10h31.32.618,arrow_simon_norep,2021.1.2,Win32,60.03121623,,,,,,,,,,,,,,,,,,,,,,,,,,,,,,,,,,,,,,
,,,q,1,2.2125,0,0.391905961,#f3af84,,left_orange.png,q,0,3,3,2,1,w,left_blue.png,left_orange.png,q,left,6100934ff7cc3bbc93278195,001,2021-08-01_10h31.32.618,arrow_simon_norep,2021.1.2,Win32,60.03121623,,,,,,,,,,,,,,,,,,,,,,,,,,,,,,,,,,,,,,
,,,p,0,1.5018,1,0.098183805,#a3d0fb,,left_blue.png,w,1,0,4,3,1,w,left_blue.png,left_orange.png,q,right,6100934ff7cc3bbc93278195,001,2021-08-01_10h31.32.618,arrow_simon_norep,2021.1.2,Win32,60.03121623,,,,,,,,,,,,,,,,,,,,,,,,,,,,,,,,,,,,,,
,,,p,0,1.5087,1,0.797454252,#f3af84,,left_orange.png,q,1,1,5,3,1,w,left_blue.png,left_orange.png,q,right,6100934ff7cc3bbc93278195,001,2021-08-01_10h31.32.618,arrow_simon_norep,2021.1.2,Win32,60.03121623,,,,,,,,,,,,,,,,,,,,,,,,,,,,,,,,,,,,,,
,,,o,0,1.7366,1,0.108794866,#a3d0fb,,left_blue.png,w,1,2,6,3,1,w,left_blue.png,left_orange.png,q,right,6100934ff7cc3bbc93278195,001,2021-08-01_10h31.32.618,arrow_simon_norep,2021.1.2,Win32,60.03121623,,,,,,,,,,,,,,,,,,,,,,,,,,,,,,,,,,,,,,
,,,w,0,6.5033,1,0.989897403,#f3af84,,right_orange.png,p,1,3,7,1,1,o,right_blue.png,right_orange.png,p,right,6100934ff7cc3bbc93278195,001,2021-08-01_10h31.32.618,arrow_simon_norep,2021.1.2,Win32,60.03121623,,,,,,,,,,,,,,,,,,,,,,,,,,,,,,,,,,,,,,
,,,o,1,17.122,0,0.468930125,#a3d0fb,,right_blue.png,o,2,0,8,1,1,o,right_blue.png,right_orange.png,p,right,6100934ff7cc3bbc93278195,001,2021-08-01_10h31.32.618,arrow_simon_norep,2021.1.2,Win32,60.03121623,,,,,,,,,,,,,,,,,,,,,,,,,,,,,,,,,,,,,,
,,,p,1,7.836,0,0.874501707,#f3af84,,right_orange.png,p,2,1,9,0,1,o,right_blue.png,right_orange.png,p,left,6100934ff7cc3bbc93278195,001,2021-08-01_10h31.32.618,arrow_simon_norep,2021.1.2,Win32,60.03121623,,,,,,,,,,,,,,,,,,,,,,,,,,,,,,,,,,,,,,
,,,w,1,6.4946,0,0.439440493,#a3d0fb,,left_blue.png,w,2,2,10,3,1,w,left_blue.png,left_orange.png,q,right,6100934ff7cc3bbc93278195,001,2021-08-01_10h31.32.618,arrow_simon_norep,2021.1.2,Win32,60.03121623,,,,,,,,,,,,,,,,,,,,,,,,,,,,,,,,,,,,,,
,,,q,1,8.1956,0,0.457371553,#f3af84,,left_orange.png,q,2,3,11,2,1,w,left_blue.png,left_orange.png,q,left,6100934ff7cc3bbc93278195,001,2021-08-01_10h31.32.618,arrow_simon_norep,2021.1.2,Win32,60.03121623,,,,,,,,,,,,,,,,,,,,,,,,,,,,,,,,,,,,,,
,,,o,1,13.2625,0,0.781703319,#a3d0fb,,right_blue.png,o,3,0,12,0,1,o,right_blue.png,right_orange.png,p,left,6100934ff7cc3bbc93278195,001,2021-08-01_10h31.32.618,arrow_simon_norep,2021.1.2,Win32,60.03121623,,,,,,,,,,,,,,,,,,,,,,,,,,,,,,,,,,,,,,
,,,p,1,1.6696,0,0.166699608,#f3af84,,right_orange.png,p,3,1,13,1,1,o,right_blue.png,right_orange.png,p,right,6100934ff7cc3bbc93278195,001,2021-08-01_10h31.32.618,arrow_simon_norep,2021.1.2,Win32,60.03121623,,,,,,,,,,,,,,,,,,,,,,,,,,,,,,,,,,,,,,
,,,o,1,1.3634,0,0.612692561,#a3d0fb,,right_blue.png,o,3,2,14,1,1,o,right_blue.png,right_orange.png,p,right,6100934ff7cc3bbc93278195,001,2021-08-01_10h31.32.618,arrow_simon_norep,2021.1.2,Win32,60.03121623,,,,,,,,,,,,,,,,,,,,,,,,,,,,,,,,,,,,,,
,,,p,1,1.5615,0,0.715590704,#f3af84,,right_orange.png,p,3,3,15,0,1,o,right_blue.png,right_orange.png,p,left,6100934ff7cc3bbc93278195,001,2021-08-01_10h31.32.618,arrow_simon_norep,2021.1.2,Win32,60.03121623,,,,,,,,,,,,,,,,,,,,,,,,,,,,,,,,,,,,,,
,,,o,1,1.2097,0,0.64372752,#a3d0fb,,right_blue.png,o,4,0,16,1,1,o,right_blue.png,right_orange.png,p,right,6100934ff7cc3bbc93278195,001,2021-08-01_10h31.32.618,arrow_simon_norep,2021.1.2,Win32,60.03121623,,,,,,,,,,,,,,,,,,,,,,,,,,,,,,,,,,,,,,
,,,p,1,0.8472,0,0.333743983,#f3af84,,right_orange.png,p,4,1,17,1,1,o,right_blue.png,right_orange.png,p,right,6100934ff7cc3bbc93278195,001,2021-08-01_10h31.32.618,arrow_simon_norep,2021.1.2,Win32,60.03121623,,,,,,,,,,,,,,,,,,,,,,,,,,,,,,,,,,,,,,
,,,w,1,2.2742,0,0.832324266,#a3d0fb,,left_blue.png,w,4,2,18,3,1,w,left_blue.png,left_orange.png,q,right,6100934ff7cc3bbc93278195,001,2021-08-01_10h31.32.618,arrow_simon_norep,2021.1.2,Win32,60.03121623,,,,,,,,,,,,,,,,,,,,,,,,,,,,,,,,,,,,,,
,,,q,1,1.4472,0,0.768585806,#f3af84,,left_orange.png,q,4,3,19,2,1,w,left_blue.png,left_orange.png,q,left,6100934ff7cc3bbc93278195,001,2021-08-01_10h31.32.618,arrow_simon_norep,2021.1.2,Win32,60.03121623,,,,,,,,,,,,,,,,,,,,,,,,,,,,,,,,,,,,,,
,,,o,1,1.2605,0,0.233947186,#a3d0fb,,right_blue.png,o,5,0,20,0,1,o,right_blue.png,right_orange.png,p,left,6100934ff7cc3bbc93278195,001,2021-08-01_10h31.32.618,arrow_simon_norep,2021.1.2,Win32,60.03121623,,,,,,,,,,,,,,,,,,,,,,,,,,,,,,,,,,,,,,
,,,q,1,2.9451,0,0.290137468,#f3af84,,left_orange.png,q,5,1,21,2,1,w,left_blue.png,left_orange.png,q,left,6100934ff7cc3bbc93278195,001,2021-08-01_10h31.32.618,arrow_simon_norep,2021.1.2,Win32,60.03121623,,,,,,,,,,,,,,,,,,,,,,,,,,,,,,,,,,,,,,
,,,w,1,3.175,0,0.50059623,#a3d0fb,,left_blue.png,w,5,2,22,2,1,w,left_blue.png,left_orange.png,q,left,6100934ff7cc3bbc93278195,001,2021-08-01_10h31.32.618,arrow_simon_norep,2021.1.2,Win32,60.03121623,,,,,,,,,,,,,,,,,,,,,,,,,,,,,,,,,,,,,,
,,,q,1,1.6128,0,0.579688669,#f3af84,,left_orange.png,q,5,3,23,3,1,w,left_blue.png,left_orange.png,q,right,6100934ff7cc3bbc93278195,001,2021-08-01_10h31.32.618,arrow_simon_norep,2021.1.2,Win32,60.03121623,,,,,,,,,,,,,,,,,,,,,,,,,,,,,,,,,,,,,,
,,,w,1,1.3827,0,0.352472101,#a3d0fb,,left_blue.png,w,6,0,24,3,1,w,left_blue.png,left_orange.png,q,right,6100934ff7cc3bbc93278195,001,2021-08-01_10h31.32.618,arrow_simon_norep,2021.1.2,Win32,60.03121623,,,,,,,,,,,,,,,,,,,,,,,,,,,,,,,,,,,,,,
,,,q,1,1.0212,0,0.353078279,#f3af84,,left_orange.png,q,6,1,25,3,1,w,left_blue.png,left_orange.png,q,right,6100934ff7cc3bbc93278195,001,2021-08-01_10h31.32.618,arrow_simon_norep,2021.1.2,Win32,60.03121623,,,,,,,,,,,,,,,,,,,,,,,,,,,,,,,,,,,,,,
,,,w,1,1.3274,0,0.970023731,#a3d0fb,,left_blue.png,w,6,2,26,3,1,w,left_blue.png,left_orange.png,q,right,6100934ff7cc3bbc93278195,001,2021-08-01_10h31.32.618,arrow_simon_norep,2021.1.2,Win32,60.03121623,,,,,,,,,,,,,,,,,,,,,,,,,,,,,,,,,,,,,,
,,,p,1,4.07,0,0.805083067,#f3af84,,right_orange.png,p,6,3,27,1,1,o,right_blue.png,right_orange.png,p,right,6100934ff7cc3bbc93278195,001,2021-08-01_10h31.32.618,arrow_simon_norep,2021.1.2,Win32,60.03121623,,,,,,,,,,,,,,,,,,,,,,,,,,,,,,,,,,,,,,
,,,o,1,1.6591,0,0.583375236,#a3d0fb,,right_blue.png,o,7,0,28,0,1,o,right_blue.png,right_orange.png,p,left,6100934ff7cc3bbc93278195,001,2021-08-01_10h31.32.618,arrow_simon_norep,2021.1.2,Win32,60.03121623,,,,,,,,,,,,,,,,,,,,,,,,,,,,,,,,,,,,,,
,,,p,1,1.2052,0,0.385841448,#f3af84,,right_orange.png,p,7,1,29,1,1,o,right_blue.png,right_orange.png,p,right,6100934ff7cc3bbc93278195,001,2021-08-01_10h31.32.618,arrow_simon_norep,2021.1.2,Win32,60.03121623,,,,,,,,,,,,,,,,,,,,,,,,,,,,,,,,,,,,,,
,,,w,1,1.7793,0,0.214585281,#a3d0fb,,left_blue.png,w,7,2,30,2,1,w,left_blue.png,left_orange.png,q,left,6100934ff7cc3bbc93278195,001,2021-08-01_10h31.32.618,arrow_simon_norep,2021.1.2,Win32,60.03121623,,,,,,,,,,,,,,,,,,,,,,,,,,,,,,,,,,,,,,
,,,p,1,3.2229,0,0.446521967,#f3af84,,right_orange.png,p,7,3,31,0,1,o,right_blue.png,right_orange.png,p,left,6100934ff7cc3bbc93278195,001,2021-08-01_10h31.32.618,arrow_simon_norep,2021.1.2,Win32,60.03121623,,,,,,,,,,,,,,,,,,,,,,,,,,,,,,,,,,,,,,
,,,w,1,3.1573,0,0.83853982,#a3d0fb,,left_blue.png,w,8,0,32,2,1,w,left_blue.png,left_orange.png,q,left,6100934ff7cc3bbc93278195,001,2021-08-01_10h31.32.618,arrow_simon_norep,2021.1.2,Win32,60.03121623,,,,,,,,,,,,,,,,,,,,,,,,,,,,,,,,,,,,,,
,,,q,1,0.8321,0,0.094546774,#f3af84,,left_orange.png,q,8,1,33,2,1,w,left_blue.png,left_orange.png,q,left,6100934ff7cc3bbc93278195,001,2021-08-01_10h31.32.618,arrow_simon_norep,2021.1.2,Win32,60.03121623,,,,,,,,,,,,,,,,,,,,,,,,,,,,,,,,,,,,,,
,,,o,1,1.9131,0,0.253774397,#a3d0fb,,right_blue.png,o,8,2,34,1,1,o,right_blue.png,right_orange.png,p,right,6100934ff7cc3bbc93278195,001,2021-08-01_10h31.32.618,arrow_simon_norep,2021.1.2,Win32,60.03121623,,,,,,,,,,,,,,,,,,,,,,,,,,,,,,,,,,,,,,
,,,q,1,2.2373,0,0.967665758,#f3af84,,left_orange.png,q,8,3,35,2,1,w,left_blue.png,left_orange.png,q,left,6100934ff7cc3bbc93278195,001,2021-08-01_10h31.32.618,arrow_simon_norep,2021.1.2,Win32,60.03121623,,,,,,,,,,,,,,,,,,,,,,,,,,,,,,,,,,,,,,
,,,w,0,1.3377,1,0.538229641,#a3d0fb,,right_blue.png,o,9,0,36,0,1,o,right_blue.png,right_orange.png,p,left,6100934ff7cc3bbc93278195,001,2021-08-01_10h31.32.618,arrow_simon_norep,2021.1.2,Win32,60.03121623,,,,,,,,,,,,,,,,,,,,,,,,,,,,,,,,,,,,,,
,,,p,1,4.3287,0,0.844948071,#f3af84,,right_orange.png,p,9,1,37,0,1,o,right_blue.png,right_orange.png,p,left,6100934ff7cc3bbc93278195,001,2021-08-01_10h31.32.618,arrow_simon_norep,2021.1.2,Win32,60.03121623,,,,,,,,,,,,,,,,,,,,,,,,,,,,,,,,,,,,,,
,,,w,1,2.9497,0,0.99911523,#a3d0fb,,left_blue.png,w,9,2,38,2,1,w,left_blue.png,left_orange.png,q,left,6100934ff7cc3bbc93278195,001,2021-08-01_10h31.32.618,arrow_simon_norep,2021.1.2,Win32,60.03121623,,,,,,,,,,,,,,,,,,,,,,,,,,,,,,,,,,,,,,
,,,q,1,1.2695,0,0.456794848,#f3af84,,left_orange.png,q,9,3,39,2,1,w,left_blue.png,left_orange.png,q,left,6100934ff7cc3bbc93278195,001,2021-08-01_10h31.32.618,arrow_simon_norep,2021.1.2,Win32,60.03121623,,,,,,,,,,,,,,,,,,,,,,,,,,,,,,,,,,,,,,
,,,o,1,2.161,0,0.042801568,#a3d0fb,,right_blue.png,o,10,0,40,0,1,o,right_blue.png,right_orange.png,p,left,6100934ff7cc3bbc93278195,001,2021-08-01_10h31.32.618,arrow_simon_norep,2021.1.2,Win32,60.03121623,,,,,,,,,,,,,,,,,,,,,,,,,,,,,,,,,,,,,,
,,,q,1,5.6928,0,0.009119416,#f3af84,,left_orange.png,q,10,1,41,3,1,w,left_blue.png,left_orange.png,q,right,6100934ff7cc3bbc93278195,001,2021-08-01_10h31.32.618,arrow_simon_norep,2021.1.2,Win32,60.03121623,,,,,,,,,,,,,,,,,,,,,,,,,,,,,,,,,,,,,,
,,,o,1,2.2002,0,0.798880409,#a3d0fb,,right_blue.png,o,10,2,42,0,1,o,right_blue.png,right_orange.png,p,left,6100934ff7cc3bbc93278195,001,2021-08-01_10h31.32.618,arrow_simon_norep,2021.1.2,Win32,60.03121623,,,,,,,,,,,,,,,,,,,,,,,,,,,,,,,,,,,,,,
,,,q,1,2.3621,0,0.218439103,#f3af84,,left_orange.png,q,10,3,43,2,1,w,left_blue.png,left_orange.png,q,left,6100934ff7cc3bbc93278195,001,2021-08-01_10h31.32.618,arrow_simon_norep,2021.1.2,Win32,60.03121623,,,,,,,,,,,,,,,,,,,,,,,,,,,,,,,,,,,,,,
,,,o,1,2.3287,0,0.549085264,#a3d0fb,,right_blue.png,o,11,0,44,0,1,o,right_blue.png,right_orange.png,p,left,6100934ff7cc3bbc93278195,001,2021-08-01_10h31.32.618,arrow_simon_norep,2021.1.2,Win32,60.03121623,,,,,,,,,,,,,,,,,,,,,,,,,,,,,,,,,,,,,,
,,,q,1,1.7204,0,0.138555459,#f3af84,,left_orange.png,q,11,1,45,3,1,w,left_blue.png,left_orange.png,q,right,6100934ff7cc3bbc93278195,001,2021-08-01_10h31.32.618,arrow_simon_norep,2021.1.2,Win32,60.03121623,,,,,,,,,,,,,,,,,,,,,,,,,,,,,,,,,,,,,,
,,,o,1,1.463,0,0.516759236,#a3d0fb,,right_blue.png,o,11,2,46,1,1,o,right_blue.png,right_orange.png,p,right,6100934ff7cc3bbc93278195,001,2021-08-01_10h31.32.618,arrow_simon_norep,2021.1.2,Win32,60.03121623,,,,,,,,,,,,,,,,,,,,,,,,,,,,,,,,,,,,,,
,,,q,1,5.2771,0,0.980908005,#f3af84,,left_orange.png,q,11,3,47,3,1,w,left_blue.png,left_orange.png,q,right,6100934ff7cc3bbc93278195,001,2021-08-01_10h31.32.618,arrow_simon_norep,2021.1.2,Win32,60.03121623,,,,,,,,,,,,,,,,,,,,,,,,,,,,,,,,,,,,,,
,,,o,0,5.7127,1,0.966487137,#a3d0fb,,left_blue.png,w,12,0,48,3,1,w,left_blue.png,left_orange.png,q,right,6100934ff7cc3bbc93278195,001,2021-08-01_10h31.32.618,arrow_simon_norep,2021.1.2,Win32,60.03121623,,,,,,,,,,,,,,,,,,,,,,,,,,,,,,,,,,,,,,
,,,q,0,5.1373,1,0.896192738,#f3af84,,right_orange.png,p,12,1,49,1,1,o,right_blue.png,right_orange.png,p,right,6100934ff7cc3bbc93278195,001,2021-08-01_10h31.32.618,arrow_simon_norep,2021.1.2,Win32,60.03121623,,,,,,,,,,,,,,,,,,,,,,,,,,,,,,,,,,,,,,
,,,o,1,6.19,0,0.964367167,#a3d0fb,,right_blue.png,o,12,2,50,1,1,o,right_blue.png,right_orange.png,p,right,6100934ff7cc3bbc93278195,001,2021-08-01_10h31.32.618,arrow_simon_norep,2021.1.2,Win32,60.03121623,,,,,,,,,,,,,,,,,,,,,,,,,,,,,,,,,,,,,,
,,,q,1,3.5313,0,0.275296695,#f3af84,,left_orange.png,q,12,3,51,2,1,w,left_blue.png,left_orange.png,q,left,6100934ff7cc3bbc93278195,001,2021-08-01_10h31.32.618,arrow_simon_norep,2021.1.2,Win32,60.03121623,,,,,,,,,,,,,,,,,,,,,,,,,,,,,,,,,,,,,,
,,,o,1,2.2567,0,0.459804102,#a3d0fb,,right_blue.png,o,13,0,52,0,1,o,right_blue.png,right_orange.png,p,left,6100934ff7cc3bbc93278195,001,2021-08-01_10h31.32.618,arrow_simon_norep,2021.1.2,Win32,60.03121623,,,,,,,,,,,,,,,,,,,,,,,,,,,,,,,,,,,,,,
,,,p,1,2.8937,0,0.19183775,#f3af84,,right_orange.png,p,13,1,53,1,1,o,right_blue.png,right_orange.png,p,right,6100934ff7cc3bbc93278195,001,2021-08-01_10h31.32.618,arrow_simon_norep,2021.1.2,Win32,60.03121623,,,,,,,,,,,,,,,,,,,,,,,,,,,,,,,,,,,,,,
,,,o,1,1.5898,0,0.822766823,#a3d0fb,,right_blue.png,o,13,2,54,1,1,o,right_blue.png,right_orange.png,p,right,6100934ff7cc3bbc93278195,001,2021-08-01_10h31.32.618,arrow_simon_norep,2021.1.2,Win32,60.03121623,,,,,,,,,,,,,,,,,,,,,,,,,,,,,,,,,,,,,,
,,,q,1,2.0784,0,0.594792836,#f3af84,,left_orange.png,q,13,3,55,2,1,w,left_blue.png,left_orange.png,q,left,6100934ff7cc3bbc93278195,001,2021-08-01_10h31.32.618,arrow_simon_norep,2021.1.2,Win32,60.03121623,,,,,,,,,,,,,,,,,,,,,,,,,,,,,,,,,,,,,,
,,,o,1,2.029,0,0.68208091,#a3d0fb,,right_blue.png,o,14,0,56,0,1,o,right_blue.png,right_orange.png,p,left,6100934ff7cc3bbc93278195,001,2021-08-01_10h31.32.618,arrow_simon_norep,2021.1.2,Win32,60.03121623,,,,,,,,,,,,,,,,,,,,,,,,,,,,,,,,,,,,,,
,,,q,0,3.9978,1,0.633503339,#f3af84,,right_orange.png,p,14,1,57,1,1,o,right_blue.png,right_orange.png,p,right,6100934ff7cc3bbc93278195,001,2021-08-01_10h31.32.618,arrow_simon_norep,2021.1.2,Win32,60.03121623,,,,,,,,,,,,,,,,,,,,,,,,,,,,,,,,,,,,,,
,,,w,1,6.1656,0,0.408824037,#a3d0fb,,left_blue.png,w,14,2,58,2,1,w,left_blue.png,left_orange.png,q,left,6100934ff7cc3bbc93278195,001,2021-08-01_10h31.32.618,arrow_simon_norep,2021.1.2,Win32,60.03121623,,,,,,,,,,,,,,,,,,,,,,,,,,,,,,,,,,,,,,
,,,p,1,2.9965,0,0.268886879,#f3af84,,right_orange.png,p,14,3,59,0,1,o,right_blue.png,right_orange.png,p,left,6100934ff7cc3bbc93278195,001,2021-08-01_10h31.32.618,arrow_simon_norep,2021.1.2,Win32,60.03121623,,,,,,,,,,,,,,,,,,,,,,,,,,,,,,,,,,,,,,
,,,,,,,,,,,,,,,,,,,,,,6100934ff7cc3bbc93278195,001,2021-08-01_10h31.32.618,arrow_simon_norep,2021.1.2,Win32,60.03121623,space,273.9424,0,0,0,0,1,,,,,,,,,,,,,,,,,,,,,,,,,,,,,,,
,,,w,1,5.2288,0,0.850272119,#a3d0fb,,left_blue.png,w,0,0,0,2,1,w,left_blue.png,left_orange.png,q,left,6100934ff7cc3bbc93278195,001,2021-08-01_10h31.32.618,arrow_simon_norep,2021.1.2,Win32,60.03121623,,,,,,,,,,,,,,,,,,,,,,,,,,,,,,,,,,,,,,
,,,q,1,2.1717,0,0.835083539,#f3af84,,left_orange.png,q,0,1,1,2,1,w,left_blue.png,left_orange.png,q,left,6100934ff7cc3bbc93278195,001,2021-08-01_10h31.32.618,arrow_simon_norep,2021.1.2,Win32,60.03121623,,,,,,,,,,,,,,,,,,,,,,,,,,,,,,,,,,,,,,
,,,o,0,1.0984,1,0.47865099,#a3d0fb,,left_blue.png,w,0,2,2,3,1,w,left_blue.png,left_orange.png,q,right,6100934ff7cc3bbc93278195,001,2021-08-01_10h31.32.618,arrow_simon_norep,2021.1.2,Win32,60.03121623,,,,,,,,,,,,,,,,,,,,,,,,,,,,,,,,,,,,,,
,,,q,1,3.8634,0,0.430216294,#f3af84,,left_orange.png,q,0,3,3,3,1,w,left_blue.png,left_orange.png,q,right,6100934ff7cc3bbc93278195,001,2021-08-01_10h31.32.618,arrow_simon_norep,2021.1.2,Win32,60.03121623,,,,,,,,,,,,,,,,,,,,,,,,,,,,,,,,,,,,,,
,,,o,1,1.6983,0,0.485062359,#a3d0fb,,right_blue.png,o,1,0,4,1,1,o,right_blue.png,right_orange.png,p,right,6100934ff7cc3bbc93278195,001,2021-08-01_10h31.32.618,arrow_simon_norep,2021.1.2,Win32,60.03121623,,,,,,,,,,,,,,,,,,,,,,,,,,,,,,,,,,,,,,
,,,q,1,2.4028,0,0.131936109,#f3af84,,left_orange.png,q,1,1,5,2,1,w,left_blue.png,left_orange.png,q,left,6100934ff7cc3bbc93278195,001,2021-08-01_10h31.32.618,arrow_simon_norep,2021.1.2,Win32,60.03121623,,,,,,,,,,,,,,,,,,,,,,,,,,,,,,,,,,,,,,
,,,o,1,2.2621,0,0.541542701,#a3d0fb,,right_blue.png,o,1,2,6,0,1,o,right_blue.png,right_orange.png,p,left,6100934ff7cc3bbc93278195,001,2021-08-01_10h31.32.618,arrow_simon_norep,2021.1.2,Win32,60.03121623,,,,,,,,,,,,,,,,,,,,,,,,,,,,,,,,,,,,,,
,,,q,1,1.203,0,0.189054925,#f3af84,,left_orange.png,q,1,3,7,2,1,w,left_blue.png,left_orange.png,q,left,6100934ff7cc3bbc93278195,001,2021-08-01_10h31.32.618,arrow_simon_norep,2021.1.2,Win32,60.03121623,,,,,,,,,,,,,,,,,,,,,,,,,,,,,,,,,,,,,,
,,,o,1,3.5243,0,0.920415779,#a3d0fb,,right_blue.png,o,2,0,8,0,1,o,right_blue.png,right_orange.png,p,left,6100934ff7cc3bbc93278195,001,2021-08-01_10h31.32.618,arrow_simon_norep,2021.1.2,Win32,60.03121623,,,,,,,,,,,,,,,,,,,,,,,,,,,,,,,,,,,,,,
,,,q,1,1.8795,0,0.437461864,#f3af84,,left_orange.png,q,2,1,9,3,1,w,left_blue.png,left_orange.png,q,right,6100934ff7cc3bbc93278195,001,2021-08-01_10h31.32.618,arrow_simon_norep,2021.1.2,Win32,60.03121623,,,,,,,,,,,,,,,,,,,,,,,,,,,,,,,,,,,,,,
,,,o,1,2.1635,0,0.116892854,#a3d0fb,,right_blue.png,o,2,2,10,1,1,o,right_blue.png,right_orange.png,p,right,6100934ff7cc3bbc93278195,001,2021-08-01_10h31.32.618,arrow_simon_norep,2021.1.2,Win32,60.03121623,,,,,,,,,,,,,,,,,,,,,,,,,,,,,,,,,,,,,,
,,,q,1,0.932,0,0.395111871,#f3af84,,left_orange.png,q,2,3,11,2,1,w,left_blue.png,left_orange.png,q,left,6100934ff7cc3bbc93278195,001,2021-08-01_10h31.32.618,arrow_simon_norep,2021.1.2,Win32,60.03121623,,,,,,,,,,,,,,,,,,,,,,,,,,,,,,,,,,,,,,
,,,o,1,2.6208,0,0.362610441,#a3d0fb,,right_blue.png,o,3,0,12,1,1,o,right_blue.png,right_orange.png,p,right,6100934ff7cc3bbc93278195,001,2021-08-01_10h31.32.618,arrow_simon_norep,2021.1.2,Win32,60.03121623,,,,,,,,,,,,,,,,,,,,,,,,,,,,,,,,,,,,,,
,,,p,1,1.7634,0,0.384187434,#f3af84,,right_orange.png,p,3,1,13,1,1,o,right_blue.png,right_orange.png,p,right,6100934ff7cc3bbc93278195,001,2021-08-01_10h31.32.618,arrow_simon_norep,2021.1.2,Win32,60.03121623,,,,,,,,,,,,,,,,,,,,,,,,,,,,,,,,,,,,,,
,,,o,1,2.4219,0,0.501532812,#a3d0fb,,right_blue.png,o,3,2,14,0,1,o,right_blue.png,right_orange.png,p,left,6100934ff7cc3bbc93278195,001,2021-08-01_10h31.32.618,arrow_simon_norep,2021.1.2,Win32,60.03121623,,,,,,,,,,,,,,,,,,,,,,,,,,,,,,,,,,,,,,
,,,p,1,1.6738,0,0.367905401,#f3af84,,right_orange.png,p,3,3,15,1,1,o,right_blue.png,right_orange.png,p,right,6100934ff7cc3bbc93278195,001,2021-08-01_10h31.32.618,arrow_simon_norep,2021.1.2,Win32,60.03121623,,,,,,,,,,,,,,,,,,,,,,,,,,,,,,,,,,,,,,
,,,w,1,1.9121,0,0.776363053,#a3d0fb,,left_blue.png,w,4,0,16,3,1,w,left_blue.png,left_orange.png,q,right,6100934ff7cc3bbc93278195,001,2021-08-01_10h31.32.618,arrow_simon_norep,2021.1.2,Win32,60.03121623,,,,,,,,,,,,,,,,,,,,,,,,,,,,,,,,,,,,,,
,,,q,1,1.6808,0,0.822203633,#f3af84,,left_orange.png,q,4,1,17,2,1,w,left_blue.png,left_orange.png,q,left,6100934ff7cc3bbc93278195,001,2021-08-01_10h31.32.618,arrow_simon_norep,2021.1.2,Win32,60.03121623,,,,,,,,,,,,,,,,,,,,,,,,,,,,,,,,,,,,,,
,,,o,1,2.0289,0,0.250573614,#a3d0fb,,right_blue.png,o,4,2,18,0,1,o,right_blue.png,right_orange.png,p,left,6100934ff7cc3bbc93278195,001,2021-08-01_10h31.32.618,arrow_simon_norep,2021.1.2,Win32,60.03121623,,,,,,,,,,,,,,,,,,,,,,,,,,,,,,,,,,,,,,
,,,p,0,0.2515,1,0.437903515,#f3af84,,left_orange.png,q,4,3,19,3,1,w,left_blue.png,left_orange.png,q,right,6100934ff7cc3bbc93278195,001,2021-08-01_10h31.32.618,arrow_simon_norep,2021.1.2,Win32,60.03121623,,,,,,,,,,,,,,,,,,,,,,,,,,,,,,,,,,,,,,
,,,w,1,3.4464,0,0.170736351,#a3d0fb,,left_blue.png,w,5,0,20,3,1,w,left_blue.png,left_orange.png,q,right,6100934ff7cc3bbc93278195,001,2021-08-01_10h31.32.618,arrow_simon_norep,2021.1.2,Win32,60.03121623,,,,,,,,,,,,,,,,,,,,,,,,,,,,,,,,,,,,,,
,,,p,1,1.3546,0,0.428501999,#f3af84,,right_orange.png,p,5,1,21,1,1,o,right_blue.png,right_orange.png,p,right,6100934ff7cc3bbc93278195,001,2021-08-01_10h31.32.618,arrow_simon_norep,2021.1.2,Win32,60.03121623,,,,,,,,,,,,,,,,,,,,,,,,,,,,,,,,,,,,,,
,,,o,1,1.802,0,0.923984357,#a3d0fb,,right_blue.png,o,5,2,22,1,1,o,right_blue.png,right_orange.png,p,right,6100934ff7cc3bbc93278195,001,2021-08-01_10h31.32.618,arrow_simon_norep,2021.1.2,Win32,60.03121623,,,,,,,,,,,,,,,,,,,,,,,,,,,,,,,,,,,,,,
,,,p,1,1.2859,0,0.278704026,#f3af84,,right_orange.png,p,5,3,23,0,1,o,right_blue.png,right_orange.png,p,left,6100934ff7cc3bbc93278195,001,2021-08-01_10h31.32.618,arrow_simon_norep,2021.1.2,Win32,60.03121623,,,,,,,,,,,,,,,,,,,,,,,,,,,,,,,,,,,,,,
,,,o,1,1.6809,0,0.978178982,#a3d0fb,,right_blue.png,o,6,0,24,1,1,o,right_blue.png,right_orange.png,p,right,6100934ff7cc3bbc93278195,001,2021-08-01_10h31.32.618,arrow_simon_norep,2021.1.2,Win32,60.03121623,,,,,,,,,,,,,,,,,,,,,,,,,,,,,,,,,,,,,,
,,,p,1,1.2051,0,0.422625477,#f3af84,,right_orange.png,p,6,1,25,0,1,o,right_blue.png,right_orange.png,p,left,6100934ff7cc3bbc93278195,001,2021-08-01_10h31.32.618,arrow_simon_norep,2021.1.2,Win32,60.03121623,,,,,,,,,,,,,,,,,,,,,,,,,,,,,,,,,,,,,,
,,,o,1,1.3802,0,0.541254347,#a3d0fb,,right_blue.png,o,6,2,26,0,1,o,right_blue.png,right_orange.png,p,left,6100934ff7cc3bbc93278195,001,2021-08-01_10h31.32.618,arrow_simon_norep,2021.1.2,Win32,60.03121623,,,,,,,,,,,,,,,,,,,,,,,,,,,,,,,,,,,,,,
,,,p,1,0.8969,0,0.139837452,#f3af84,,right_orange.png,p,6,3,27,1,1,o,right_blue.png,right_orange.png,p,right,6100934ff7cc3bbc93278195,001,2021-08-01_10h31.32.618,arrow_simon_norep,2021.1.2,Win32,60.03121623,,,,,,,,,,,,,,,,,,,,,,,,,,,,,,,,,,,,,,
,,,o,1,1.3133,0,0.431566652,#a3d0fb,,right_blue.png,o,7,0,28,1,1,o,right_blue.png,right_orange.png,p,right,6100934ff7cc3bbc93278195,001,2021-08-01_10h31.32.618,arrow_simon_norep,2021.1.2,Win32,60.03121623,,,,,,,,,,,,,,,,,,,,,,,,,,,,,,,,,,,,,,
,,,q,1,1.598,0,0.579018886,#f3af84,,left_orange.png,q,7,1,29,2,1,w,left_blue.png,left_orange.png,q,left,6100934ff7cc3bbc93278195,001,2021-08-01_10h31.32.618,arrow_simon_norep,2021.1.2,Win32,60.03121623,,,,,,,,,,,,,,,,,,,,,,,,,,,,,,,,,,,,,,
,,,w,1,0.8149,0,0.192723827,#a3d0fb,,left_blue.png,w,7,2,30,2,1,w,left_blue.png,left_orange.png,q,left,6100934ff7cc3bbc93278195,001,2021-08-01_10h31.32.618,arrow_simon_norep,2021.1.2,Win32,60.03121623,,,,,,,,,,,,,,,,,,,,,,,,,,,,,,,,,,,,,,
,,,p,1,1.6309,0,0.087914776,#f3af84,,right_orange.png,p,7,3,31,0,1,o,right_blue.png,right_orange.png,p,left,6100934ff7cc3bbc93278195,001,2021-08-01_10h31.32.618,arrow_simon_norep,2021.1.2,Win32,60.03121623,,,,,,,,,,,,,,,,,,,,,,,,,,,,,,,,,,,,,,
,,,o,1,0.9809,0,0.240632005,#a3d0fb,,right_blue.png,o,8,0,32,0,1,o,right_blue.png,right_orange.png,p,left,6100934ff7cc3bbc93278195,001,2021-08-01_10h31.32.618,arrow_simon_norep,2021.1.2,Win32,60.03121623,,,,,,,,,,,,,,,,,,,,,,,,,,,,,,,,,,,,,,
,,,p,1,1.2558,0,0.321030911,#f3af84,,right_orange.png,p,8,1,33,1,1,o,right_blue.png,right_orange.png,p,right,6100934ff7cc3bbc93278195,001,2021-08-01_10h31.32.618,arrow_simon_norep,2021.1.2,Win32,60.03121623,,,,,,,,,,,,,,,,,,,,,,,,,,,,,,,,,,,,,,
,,,q,0,1.397,1,0.155751716,#a3d0fb,,left_blue.png,w,8,2,34,3,1,w,left_blue.png,left_orange.png,q,right,6100934ff7cc3bbc93278195,001,2021-08-01_10h31.32.618,arrow_simon_norep,2021.1.2,Win32,60.03121623,,,,,,,,,,,,,,,,,,,,,,,,,,,,,,,,,,,,,,
,,,p,1,2.0473,0,0.840368138,#f3af84,,right_orange.png,p,8,3,35,0,1,o,right_blue.png,right_orange.png,p,left,6100934ff7cc3bbc93278195,001,2021-08-01_10h31.32.618,arrow_simon_norep,2021.1.2,Win32,60.03121623,,,,,,,,,,,,,,,,,,,,,,,,,,,,,,,,,,,,,,
,,,o,0,1.0686,1,0.351864731,#a3d0fb,,left_blue.png,w,9,0,36,2,1,w,left_blue.png,left_orange.png,q,left,6100934ff7cc3bbc93278195,001,2021-08-01_10h31.32.618,arrow_simon_norep,2021.1.2,Win32,60.03121623,,,,,,,,,,,,,,,,,,,,,,,,,,,,,,,,,,,,,,
,,,p,1,3.8971,0,0.843373156,#f3af84,,right_orange.png,p,9,1,37,1,1,o,right_blue.png,right_orange.png,p,right,6100934ff7cc3bbc93278195,001,2021-08-01_10h31.32.618,arrow_simon_norep,2021.1.2,Win32,60.03121623,,,,,,,,,,,,,,,,,,,,,,,,,,,,,,,,,,,,,,
,,,w,1,2.2035,0,0.059217039,#a3d0fb,,left_blue.png,w,9,2,38,3,1,w,left_blue.png,left_orange.png,q,right,6100934ff7cc3bbc93278195,001,2021-08-01_10h31.32.618,arrow_simon_norep,2021.1.2,Win32,60.03121623,,,,,,,,,,,,,,,,,,,,,,,,,,,,,,,,,,,,,,
,,,q,1,1.553,0,0.70434837,#f3af84,,left_orange.png,q,9,3,39,3,1,w,left_blue.png,left_orange.png,q,right,6100934ff7cc3bbc93278195,001,2021-08-01_10h31.32.618,arrow_simon_norep,2021.1.2,Win32,60.03121623,,,,,,,,,,,,,,,,,,,,,,,,,,,,,,,,,,,,,,
,,,o,1,2.3528,0,0.941501636,#a3d0fb,,right_blue.png,o,10,0,40,1,1,o,right_blue.png,right_orange.png,p,right,6100934ff7cc3bbc93278195,001,2021-08-01_10h31.32.618,arrow_simon_norep,2021.1.2,Win32,60.03121623,,,,,,,,,,,,,,,,,,,,,,,,,,,,,,,,,,,,,,
,,,q,1,1.4355,0,0.101926277,#f3af84,,left_orange.png,q,10,1,41,2,1,w,left_blue.png,left_orange.png,q,left,6100934ff7cc3bbc93278195,001,2021-08-01_10h31.32.618,arrow_simon_norep,2021.1.2,Win32,60.03121623,,,,,,,,,,,,,,,,,,,,,,,,,,,,,,,,,,,,,,
,,,w,1,1.2459,0,0.62152013,#a3d0fb,,left_blue.png,w,10,2,42,2,1,w,left_blue.png,left_orange.png,q,left,6100934ff7cc3bbc93278195,001,2021-08-01_10h31.32.618,arrow_simon_norep,2021.1.2,Win32,60.03121623,,,,,,,,,,,,,,,,,,,,,,,,,,,,,,,,,,,,,,
,,,q,1,0.8483,0,0.263053946,#f3af84,,left_orange.png,q,10,3,43,2,1,w,left_blue.png,left_orange.png,q,left,6100934ff7cc3bbc93278195,001,2021-08-01_10h31.32.618,arrow_simon_norep,2021.1.2,Win32,60.03121623,,,,,,,,,,,,,,,,,,,,,,,,,,,,,,,,,,,,,,
,,,o,1,1.6149,0,0.121963039,#a3d0fb,,right_blue.png,o,11,0,44,0,1,o,right_blue.png,right_orange.png,p,left,6100934ff7cc3bbc93278195,001,2021-08-01_10h31.32.618,arrow_simon_norep,2021.1.2,Win32,60.03121623,,,,,,,,,,,,,,,,,,,,,,,,,,,,,,,,,,,,,,
,,,q,1,2.4109,0,0.991140592,#f3af84,,left_orange.png,q,11,1,45,3,1,w,left_blue.png,left_orange.png,q,right,6100934ff7cc3bbc93278195,001,2021-08-01_10h31.32.618,arrow_simon_norep,2021.1.2,Win32,60.03121623,,,,,,,,,,,,,,,,,,,,,,,,,,,,,,,,,,,,,,
,,,w,1,1.2201,0,0.393518354,#a3d0fb,,left_blue.png,w,11,2,46,2,1,w,left_blue.png,left_orange.png,q,left,6100934ff7cc3bbc93278195,001,2021-08-01_10h31.32.618,arrow_simon_norep,2021.1.2,Win32,60.03121623,,,,,,,,,,,,,,,,,,,,,,,,,,,,,,,,,,,,,,
,,,p,1,2.43,0,0.395416243,#f3af84,,right_orange.png,p,11,3,47,0,1,o,right_blue.png,right_orange.png,p,left,6100934ff7cc3bbc93278195,001,2021-08-01_10h31.32.618,arrow_simon_norep,2021.1.2,Win32,60.03121623,,,,,,,,,,,,,,,,,,,,,,,,,,,,,,,,,,,,,,
,,,w,1,3.979,0,0.848535766,#a3d0fb,,left_blue.png,w,12,0,48,3,1,w,left_blue.png,left_orange.png,q,right,6100934ff7cc3bbc93278195,001,2021-08-01_10h31.32.618,arrow_simon_norep,2021.1.2,Win32,60.03121623,,,,,,,,,,,,,,,,,,,,,,,,,,,,,,,,,,,,,,
,,,q,1,1.5687,0,0.37317494,#f3af84,,left_orange.png,q,12,1,49,2,1,w,left_blue.png,left_orange.png,q,left,6100934ff7cc3bbc93278195,001,2021-08-01_10h31.32.618,arrow_simon_norep,2021.1.2,Win32,60.03121623,,,,,,,,,,,,,,,,,,,,,,,,,,,,,,,,,,,,,,
,,,w,1,1.2511,0,0.369183224,#a3d0fb,,left_blue.png,w,12,2,50,2,1,w,left_blue.png,left_orange.png,q,left,6100934ff7cc3bbc93278195,001,2021-08-01_10h31.32.618,arrow_simon_norep,2021.1.2,Win32,60.03121623,,,,,,,,,,,,,,,,,,,,,,,,,,,,,,,,,,,,,,
,,,q,1,2.9535,0,0.558543473,#f3af84,,left_orange.png,q,12,3,51,3,1,w,left_blue.png,left_orange.png,q,right,6100934ff7cc3bbc93278195,001,2021-08-01_10h31.32.618,arrow_simon_norep,2021.1.2,Win32,60.03121623,,,,,,,,,,,,,,,,,,,,,,,,,,,,,,,,,,,,,,
,,,o,1,2.6349,0,0.120847181,#a3d0fb,,right_blue.png,o,13,0,52,0,1,o,right_blue.png,right_orange.png,p,left,6100934ff7cc3bbc93278195,001,2021-08-01_10h31.32.618,arrow_simon_norep,2021.1.2,Win32,60.03121623,,,,,,,,,,,,,,,,,,,,,,,,,,,,,,,,,,,,,,
,,,p,1,2.5602,0,0.038360384,#f3af84,,right_orange.png,p,13,1,53,1,1,o,right_blue.png,right_orange.png,p,right,6100934ff7cc3bbc93278195,001,2021-08-01_10h31.32.618,arrow_simon_norep,2021.1.2,Win32,60.03121623,,,,,,,,,,,,,,,,,,,,,,,,,,,,,,,,,,,,,,
,,,q,0,2.2116,1,0.403644507,#a3d0fb,,left_blue.png,w,13,2,54,3,1,w,left_blue.png,left_orange.png,q,right,6100934ff7cc3bbc93278195,001,2021-08-01_10h31.32.618,arrow_simon_norep,2021.1.2,Win32,60.03121623,,,,,,,,,,,,,,,,,,,,,,,,,,,,,,,,,,,,,,
,,,p,1,5.153,0,0.177890516,#f3af84,,right_orange.png,p,13,3,55,0,1,o,right_blue.png,right_orange.png,p,left,6100934ff7cc3bbc93278195,001,2021-08-01_10h31.32.618,arrow_simon_norep,2021.1.2,Win32,60.03121623,,,,,,,,,,,,,,,,,,,,,,,,,,,,,,,,,,,,,,
,,,o,1,1.4467,0,0.082392925,#a3d0fb,,right_blue.png,o,14,0,56,1,1,o,right_blue.png,right_orange.png,p,right,6100934ff7cc3bbc93278195,001,2021-08-01_10h31.32.618,arrow_simon_norep,2021.1.2,Win32,60.03121623,,,,,,,,,,,,,,,,,,,,,,,,,,,,,,,,,,,,,,
,,,q,1,1.3472,0,0.056942915,#f3af84,,left_orange.png,q,14,1,57,3,1,w,left_blue.png,left_orange.png,q,right,6100934ff7cc3bbc93278195,001,2021-08-01_10h31.32.618,arrow_simon_norep,2021.1.2,Win32,60.03121623,,,,,,,,,,,,,,,,,,,,,,,,,,,,,,,,,,,,,,
,,,w,1,1.9779,0,0.561236577,#a3d0fb,,left_blue.png,w,14,2,58,3,1,w,left_blue.png,left_orange.png,q,right,6100934ff7cc3bbc93278195,001,2021-08-01_10h31.32.618,arrow_simon_norep,2021.1.2,Win32,60.03121623,,,,,,,,,,,,,,,,,,,,,,,,,,,,,,,,,,,,,,
,,,p,1,2.8638,0,0.317311351,#f3af84,,right_orange.png,p,14,3,59,0,1,o,right_blue.png,right_orange.png,p,left,6100934ff7cc3bbc93278195,001,2021-08-01_10h31.32.618,arrow_simon_norep,2021.1.2,Win32,60.03121623,,,,,,,,,,,,,,,,,,,,,,,,,,,,,,,,,,,,,,
,,,,,,,,,,,,,,,,,,,,,,6100934ff7cc3bbc93278195,001,2021-08-01_10h31.32.618,arrow_simon_norep,2021.1.2,Win32,60.03121623,space,4.9611,1,0,1,0,1,,,,,,,,,,,,,,,,,,,,,,,,,,,,,,,
,,,,,,,,,,,,,,,,,,,,,,6100934ff7cc3bbc93278195,001,2021-08-01_10h31.32.618,arrow_simon_norep,2021.1.2,Win32,60.03121623,,,,,,,,space,0,63.6202,q,2.7602,0,0,0,0,1,,,,,,,,,,,,,,,,,,,,,
,,,,,,,,,,,,,,,,,,,,,,6100934ff7cc3bbc93278195,001,2021-08-01_10h31.32.618,arrow_simon_norep,2021.1.2,Win32,60.03121623,,,,,,,,,,,w,2.7099,1,0,1,0,1,,,,,,,,,,,,,,,,,,,,,
,,,,,,,,,,,,,,,,,,,,,,6100934ff7cc3bbc93278195,001,2021-08-01_10h31.32.618,arrow_simon_norep,2021.1.2,Win32,60.03121623,,,,,,,,,,,o,1.8753,2,0,2,0,1,,,,,,,,,,,,,,,,,,,,,
,,,,,,,,,,,,,,,,,,,,,,6100934ff7cc3bbc93278195,001,2021-08-01_10h31.32.618,arrow_simon_norep,2021.1.2,Win32,60.03121623,,,,,,,,,,,o,1.9236,3,0,3,0,1,,,,,,,,,,,,,,,,,,,,,
,,,,,,,,,,,,,,,,,,,,,,6100934ff7cc3bbc93278195,001,2021-08-01_10h31.32.618,arrow_simon_norep,2021.1.2,Win32,60.03121623,,,,,,,,,,,o,2.1672,4,0,4,0,1,,,,,,,,,,,,,,,,,,,,,
,,,,,,,,,,,,,,,,,,,,,,6100934ff7cc3bbc93278195,001,2021-08-01_10h31.32.618,arrow_simon_norep,2021.1.2,Win32,60.03121623,,,,,,,,,,,o,2.734,5,0,5,0,1,,,,,,,,,,,,,,,,,,,,,
,,,,,,,,,,,,,,,,,,,,,,6100934ff7cc3bbc93278195,001,2021-08-01_10h31.32.618,arrow_simon_norep,2021.1.2,Win32,60.03121623,,,,,,,,,,,o,2.4122,6,0,6,0,1,,,,,,,,,,,,,,,,,,,,,
,,,,,,,,,,,,,,,,,,,,,,6100934ff7cc3bbc93278195,001,2021-08-01_10h31.32.618,arrow_simon_norep,2021.1.2,Win32,60.03121623,,,,,,,,,,,o,2.4443,7,0,7,0,1,,,,,,,,,,,,,,,,,,,,,
,,,,,,,,,,,,,,,,,,,,,,6100934ff7cc3bbc93278195,001,2021-08-01_10h31.32.618,arrow_simon_norep,2021.1.2,Win32,60.03121623,,,,,,,,,,,o,2.5136,8,0,8,0,1,,,,,,,,,,,,,,,,,,,,,
,,,,,,,,,,,,,,,,,,,,,,6100934ff7cc3bbc93278195,001,2021-08-01_10h31.32.618,arrow_simon_norep,2021.1.2,Win32,60.03121623,,,,,,,,,,,o,2.5607,9,0,9,0,1,,,,,,,,,,,,,,,,,,,,,
,,,,,,,,,,,,,,,,,,,,,,6100934ff7cc3bbc93278195,001,2021-08-01_10h31.32.618,arrow_simon_norep,2021.1.2,Win32,60.03121623,,,,,,,,,,,o,2.444,10,0,10,0,1,,,,,,,,,,,,,,,,,,,,,
,,,,,,,,,,,,,,,,,,,,,,6100934ff7cc3bbc93278195,001,2021-08-01_10h31.32.618,arrow_simon_norep,2021.1.2,Win32,60.03121623,,,,,,,,,,,o,2.42,11,0,11,0,1,,,,,,,,,,,,,,,,,,,,,
,,,,,,,,,,,,,,,,,,,,,,6100934ff7cc3bbc93278195,001,2021-08-01_10h31.32.618,arrow_simon_norep,2021.1.2,Win32,60.03121623,,,,,,,,,,,o,2.8104,12,0,12,0,1,,,,,,,,,,,,,,,,,,,,,
,,,,,,,,,,,,,,,,,,,,,,6100934ff7cc3bbc93278195,001,2021-08-01_10h31.32.618,arrow_simon_norep,2021.1.2,Win32,60.03121623,,,,,,,,,,,o,2.2056,13,0,13,0,1,,,,,,,,,,,,,,,,,,,,,
,,,,,,,,,,,,,,,,,,,,,,6100934ff7cc3bbc93278195,001,2021-08-01_10h31.32.618,arrow_simon_norep,2021.1.2,Win32,60.03121623,,,,,,,,,,,o,2.4474,14,0,14,0,1,,,,,,,,,,,,,,,,,,,,,
,,,,,,,,,,,,,,,,,,,,,,6100934ff7cc3bbc93278195,001,2021-08-01_10h31.32.618,arrow_simon_norep,2021.1.2,Win32,60.03121623,,,,,,,,,,,o,2.4941,15,0,15,0,1,,,,,,,,,,,,,,,,,,,,,
,,,,,,,,,,,,,,,,,,,,,,6100934ff7cc3bbc93278195,001,2021-08-01_10h31.32.618,arrow_simon_norep,2021.1.2,Win32,60.03121623,,,,,,,,,,,o,2.3283,16,0,16,0,1,,,,,,,,,,,,,,,,,,,,,
,,,,,,,,,,,,,,,,,,,,,,6100934ff7cc3bbc93278195,001,2021-08-01_10h31.32.618,arrow_simon_norep,2021.1.2,Win32,60.03121623,,,,,,,,,,,o,2.3721,17,0,17,0,1,,,,,,,,,,,,,,,,,,,,,
,,,,,,,,,,,,,,,,,,,,,,6100934ff7cc3bbc93278195,001,2021-08-01_10h31.32.618,arrow_simon_norep,2021.1.2,Win32,60.03121623,,,,,,,,,,,o,2.5942,18,0,18,0,1,,,,,,,,,,,,,,,,,,,,,
,,,,,,,,,,,,,,,,,,,,,,6100934ff7cc3bbc93278195,001,2021-08-01_10h31.32.618,arrow_simon_norep,2021.1.2,Win32,60.03121623,,,,,,,,,,,o,2.5322,19,0,19,0,1,,,,,,,,,,,,,,,,,,,,,
,,,,,,,,,,,,,,,,,,,,,,6100934ff7cc3bbc93278195,001,2021-08-01_10h31.32.618,arrow_simon_norep,2021.1.2,Win32,60.03121623,,,,,,,,,,,o,2.6099,20,0,20,0,1,,,,,,,,,,,,,,,,,,,,,
,,,,,,,,,,,,,,,,,,,,,,6100934ff7cc3bbc93278195,001,2021-08-01_10h31.32.618,arrow_simon_norep,2021.1.2,Win32,60.03121623,,,,,,,,,,,o,2.4563,21,0,21,0,1,,,,,,,,,,,,,,,,,,,,,
,,,,,,,,,,,,,,,,,,,,,,6100934ff7cc3bbc93278195,001,2021-08-01_10h31.32.618,arrow_simon_norep,2021.1.2,Win32,60.03121623,,,,,,,,,,,o,2.8487,22,0,22,0,1,,,,,,,,,,,,,,,,,,,,,
,,,,,,,,,,,,,,,,,,,,,,6100934ff7cc3bbc93278195,001,2021-08-01_10h31.32.618,arrow_simon_norep,2021.1.2,Win32,60.03121623,,,,,,,,,,,p,2.7261,23,0,23,0,1,,,,,,,,,,,,,,,,,,,,,
,,,,,,,,,,,,,,,,,,,,,,6100934ff7cc3bbc93278195,001,2021-08-01_10h31.32.618,arrow_simon_norep,2021.1.2,Win32,60.03121623,,,,,,,,,,,o,2.3463,24,0,24,0,1,,,,,,,,,,,,,,,,,,,,,
,,,,,,,,,,,,,,,,,,,,,,6100934ff7cc3bbc93278195,001,2021-08-01_10h31.32.618,arrow_simon_norep,2021.1.2,Win32,60.03121623,,,,,,,,,,,o,2.6092,25,0,25,0,1,,,,,,,,,,,,,,,,,,,,,
,,,,,,,,,,,,,,,,,,,,,,6100934ff7cc3bbc93278195,001,2021-08-01_10h31.32.618,arrow_simon_norep,2021.1.2,Win32,60.03121623,,,,,,,,,,,o,2.3611,26,0,26,0,1,,,,,,,,,,,,,,,,,,,,,
,,,,,,,,,,,,,,,,,,,,,,6100934ff7cc3bbc93278195,001,2021-08-01_10h31.32.618,arrow_simon_norep,2021.1.2,Win32,60.03121623,,,,,,,,,,,o,2.421,27,0,27,0,1,,,,,,,,,,,,,,,,,,,,,
,,,,,,,,,,,,,,,,,,,,,,6100934ff7cc3bbc93278195,001,2021-08-01_10h31.32.618,arrow_simon_norep,2021.1.2,Win32,60.03121623,,,,,,,,,,,o,2.5273,28,0,28,0,1,,,,,,,,,,,,,,,,,,,,,
,,,,,,,,,,,,,,,,,,,,,,6100934ff7cc3bbc93278195,001,2021-08-01_10h31.32.618,arrow_simon_norep,2021.1.2,Win32,60.03121623,,,,,,,,,,,o,2.5934,29,0,29,0,1,,,,,,,,,,,,,,,,,,,,,
,,,,,,,,,,,,,,,,,,,,,,6100934ff7cc3bbc93278195,001,2021-08-01_10h31.32.618,arrow_simon_norep,2021.1.2,Win32,60.03121623,,,,,,,,,,,o,2.4157,30,0,30,0,1,,,,,,,,,,,,,,,,,,,,,
,,,,,,,,,,,,,,,,,,,,,,6100934ff7cc3bbc93278195,001,2021-08-01_10h31.32.618,arrow_simon_norep,2021.1.2,Win32,60.03121623,,,,,,,,,,,o,2.3193,31,0,31,0,1,,,,,,,,,,,,,,,,,,,,,
,,,,,,,,,,,,,,,,,,,,,,6100934ff7cc3bbc93278195,001,2021-08-01_10h31.32.618,arrow_simon_norep,2021.1.2,Win32,60.03121623,,,,,,,,,,,o,2.639,32,0,32,0,1,,,,,,,,,,,,,,,,,,,,,
,,,,,,,,,,,,,,,,,,,,,,6100934ff7cc3bbc93278195,001,2021-08-01_10h31.32.618,arrow_simon_norep,2021.1.2,Win32,60.03121623,,,,,,,,,,,p,2.5429,33,0,33,0,1,,,,,,,,,,,,,,,,,,,,,
,,,,,,,,,,,,,,,,,,,,,,6100934ff7cc3bbc93278195,001,2021-08-01_10h31.32.618,arrow_simon_norep,2021.1.2,Win32,60.03121623,,,,,,,,,,,o,2.5474,34,0,34,0,1,,,,,,,,,,,,,,,,,,,,,
,,,,,,,,,,,,,,,,,,,,,,6100934ff7cc3bbc93278195,001,2021-08-01_10h31.32.618,arrow_simon_norep,2021.1.2,Win32,60.03121623,,,,,,,,,,,p,2.5651,35,0,35,0,1,,,,,,,,,,,,,,,,,,,,,
,,,,,,,,,,,,,,,,,,,,,,6100934ff7cc3bbc93278195,001,2021-08-01_10h31.32.618,arrow_simon_norep,2021.1.2,Win32,60.03121623,,,,,,,,,,,o,2.5617,36,0,36,0,1,,,,,,,,,,,,,,,,,,,,,
,,,,,,,,,,,,,,,,,,,,,,6100934ff7cc3bbc93278195,001,2021-08-01_10h31.32.618,arrow_simon_norep,2021.1.2,Win32,60.03121623,,,,,,,,,,,p,2.5668,37,0,37,0,1,,,,,,,,,,,,,,,,,,,,,
,,,,,,,,,,,,,,,,,,,,,,6100934ff7cc3bbc93278195,001,2021-08-01_10h31.32.618,arrow_simon_norep,2021.1.2,Win32,60.03121623,,,,,,,,,,,o,2.584,38,0,38,0,1,,,,,,,,,,,,,,,,,,,,,
,,,,,,,,,,,,,,,,,,,,,,6100934ff7cc3bbc93278195,001,2021-08-01_10h31.32.618,arrow_simon_norep,2021.1.2,Win32,60.03121623,,,,,,,,,,,p,2.4672,39,0,39,0,1,,,,,,,,,,,,,,,,,,,,,
,,,,,,,,,,,,,,,,,,,,,,6100934ff7cc3bbc93278195,001,2021-08-01_10h31.32.618,arrow_simon_norep,2021.1.2,Win32,60.03121623,,,,,,,,,,,o,2.411,40,0,40,0,1,,,,,,,,,,,,,,,,,,,,,
,,,,,,,,,,,,,,,,,,,,,,6100934ff7cc3bbc93278195,001,2021-08-01_10h31.32.618,arrow_simon_norep,2021.1.2,Win32,60.03121623,,,,,,,,,,,p,2.5121,41,0,41,0,1,,,,,,,,,,,,,,,,,,,,,
,,,,,,,,,,,,,,,,,,,,,,6100934ff7cc3bbc93278195,001,2021-08-01_10h31.32.618,arrow_simon_norep,2021.1.2,Win32,60.03121623,,,,,,,,,,,o,2.5789,42,0,42,0,1,,,,,,,,,,,,,,,,,,,,,
,,,,,,,,,,,,,,,,,,,,,,6100934ff7cc3bbc93278195,001,2021-08-01_10h31.32.618,arrow_simon_norep,2021.1.2,Win32,60.03121623,,,,,,,,,,,p,2.5184,43,0,43,0,1,,,,,,,,,,,,,,,,,,,,,
,,,,,,,,,,,,,,,,,,,,,,6100934ff7cc3bbc93278195,001,2021-08-01_10h31.32.618,arrow_simon_norep,2021.1.2,Win32,60.03121623,,,,,,,,,,,o,2.5434,44,0,44,0,1,,,,,,,,,,,,,,,,,,,,,
,,,,,,,,,,,,,,,,,,,,,,6100934ff7cc3bbc93278195,001,2021-08-01_10h31.32.618,arrow_simon_norep,2021.1.2,Win32,60.03121623,,,,,,,,,,,p,2.8946,45,0,45,0,1,,,,,,,,,,,,,,,,,,,,,
,,,,,,,,,,,,,,,,,,,,,,6100934ff7cc3bbc93278195,001,2021-08-01_10h31.32.618,arrow_simon_norep,2021.1.2,Win32,60.03121623,,,,,,,,,,,o,2.4444,46,0,46,0,1,,,,,,,,,,,,,,,,,,,,,
,,,,,,,,,,,,,,,,,,,,,,6100934ff7cc3bbc93278195,001,2021-08-01_10h31.32.618,arrow_simon_norep,2021.1.2,Win32,60.03121623,,,,,,,,,,,p,2.3862,47,0,47,0,1,,,,,,,,,,,,,,,,,,,,,
,,,,,,,,,,,,,,,,,,,,,,6100934ff7cc3bbc93278195,001,2021-08-01_10h31.32.618,arrow_simon_norep,2021.1.2,Win32,60.03121623,,,,,,,,,,,o,2.5439,48,0,48,0,1,,,,,,,,,,,,,,,,,,,,,
,,,,,,,,,,,,,,,,,,,,,,6100934ff7cc3bbc93278195,001,2021-08-01_10h31.32.618,arrow_simon_norep,2021.1.2,Win32,60.03121623,,,,,,,,,,,p,2.5649,49,0,49,0,1,,,,,,,,,,,,,,,,,,,,,
,,,,,,,,,,,,,,,,,,,,,,6100934ff7cc3bbc93278195,001,2021-08-01_10h31.32.618,arrow_simon_norep,2021.1.2,Win32,60.03121623,,,,,,,,,,,o,2.4198,50,0,50,0,1,,,,,,,,,,,,,,,,,,,,,
,,,,,,,,,,,,,,,,,,,,,,6100934ff7cc3bbc93278195,001,2021-08-01_10h31.32.618,arrow_simon_norep,2021.1.2,Win32,60.03121623,,,,,,,,,,,p,2.4302,51,0,51,0,1,,,,,,,,,,,,,,,,,,,,,
,,,,,,,,,,,,,,,,,,,,,,6100934ff7cc3bbc93278195,001,2021-08-01_10h31.32.618,arrow_simon_norep,2021.1.2,Win32,60.03121623,,,,,,,,,,,o,2.45,52,0,52,0,1,,,,,,,,,,,,,,,,,,,,,
,,,,,,,,,,,,,,,,,,,,,,6100934ff7cc3bbc93278195,001,2021-08-01_10h31.32.618,arrow_simon_norep,2021.1.2,Win32,60.03121623,,,,,,,,,,,p,2.532,53,0,53,0,1,,,,,,,,,,,,,,,,,,,,,
,,,,,,,,,,,,,,,,,,,,,,6100934ff7cc3bbc93278195,001,2021-08-01_10h31.32.618,arrow_simon_norep,2021.1.2,Win32,60.03121623,,,,,,,,,,,o,2.5384,54,0,54,0,1,,,,,,,,,,,,,,,,,,,,,
,,,,,,,,,,,,,,,,,,,,,,6100934ff7cc3bbc93278195,001,2021-08-01_10h31.32.618,arrow_simon_norep,2021.1.2,Win32,60.03121623,,,,,,,,,,,p,2.4104,55,0,55,0,1,,,,,,,,,,,,,,,,,,,,,
,,,,,,,,,,,,,,,,,,,,,,6100934ff7cc3bbc93278195,001,2021-08-01_10h31.32.618,arrow_simon_norep,2021.1.2,Win32,60.03121623,,,,,,,,,,,o,2.4113,56,0,56,0,1,,,,,,,,,,,,,,,,,,,,,
,,,,,,,,,,,,,,,,,,,,,,6100934ff7cc3bbc93278195,001,2021-08-01_10h31.32.618,arrow_simon_norep,2021.1.2,Win32,60.03121623,,,,,,,,,,,p,2.4774,57,0,57,0,1,,,,,,,,,,,,,,,,,,,,,
,,,,,,,,,,,,,,,,,,,,,,6100934ff7cc3bbc93278195,001,2021-08-01_10h31.32.618,arrow_simon_norep,2021.1.2,Win32,60.03121623,,,,,,,,,,,o,2.5112,58,0,58,0,1,,,,,,,,,,,,,,,,,,,,,
,,,,,,,,,,,,,,,,,,,,,,6100934ff7cc3bbc93278195,001,2021-08-01_10h31.32.618,arrow_simon_norep,2021.1.2,Win32,60.03121623,,,,,,,,,,,p,2.5984,59,0,59,0,1,,,,,,,,,,,,,,,,,,,,,
,,,,,,0,2.460355473,#a3d0fb,,left_blue.png,w,,,,,,w,left_blue.png,left_orange.png,q,left,6100934ff7cc3bbc93278195,001,2021-08-01_10h31.32.618,arrow_simon_norep,2021.1.2,Win32,60.03121623,,,,,,,,,,,,,,,,,,space,0,40.4719,w,1,1.8616,1,TRUE,FALSE,0,0,0,2,1,,,,,,,
,,,,,,0,2.378367133,#f3af84,,right_orange.png,p,,,,,,o,right_blue.png,right_orange.png,p,right,6100934ff7cc3bbc93278195,001,2021-08-01_10h31.32.618,arrow_simon_norep,2021.1.2,Win32,60.03121623,,,,,,,,,,,,,,,,,,,,,o,0,1.9392,2,TRUE,FALSE,0,1,1,1,1,,,,,,,
,,,,,,0,2.011406405,#a3d0fb,,left_blue.png,w,,,,,,w,left_blue.png,left_orange.png,q,left,6100934ff7cc3bbc93278195,001,2021-08-01_10h31.32.618,arrow_simon_norep,2021.1.2,Win32,60.03121623,,,,,,,,,,,,,,,,,,,,,q,0,1.95,3,TRUE,FALSE,0,2,2,2,1,,,,,,,
,,,,,,0,1.513421816,#f3af84,,right_orange.png,p,,,,,,o,right_blue.png,right_orange.png,p,left,6100934ff7cc3bbc93278195,001,2021-08-01_10h31.32.618,arrow_simon_norep,2021.1.2,Win32,60.03121623,,,,,,,,,,,,,,,,,,,,,w,0,1.0551,4,FALSE,TRUE,0,3,3,0,1,,,,,,,
,,,,,,0,2.171871355,#a3d0fb,,left_blue.png,w,,,,,,w,left_blue.png,left_orange.png,q,right,6100934ff7cc3bbc93278195,001,2021-08-01_10h31.32.618,arrow_simon_norep,2021.1.2,Win32,60.03121623,,,,,,,,,,,,,,,,,,,,,w,1,1.6889,5,TRUE,FALSE,1,0,4,3,1,,,,,,,
,,,,,,1,1.502836516,#f3af84,,left_orange.png,q,,,,,,w,left_blue.png,left_orange.png,q,right,6100934ff7cc3bbc93278195,001,2021-08-01_10h31.32.618,arrow_simon_norep,2021.1.2,Win32,60.03121623,,,,,,,,,,,,,,,,,,,,,o,0,1.4855,6,FALSE,FALSE,1,1,5,3,1,,,,,,,
,,,,,,1,2.470692579,#a3d0fb,,left_blue.png,w,,,,,,w,left_blue.png,left_orange.png,q,right,6100934ff7cc3bbc93278195,001,2021-08-01_10h31.32.618,arrow_simon_norep,2021.1.2,Win32,60.03121623,,,,,,,,,,,,,,,,,,,,,o,0,1.9118,7,TRUE,FALSE,1,2,6,3,1,,,,,,,
,,,,,,0,1.863164115,#f3af84,,left_orange.png,q,,,,,,w,left_blue.png,left_orange.png,q,right,6100934ff7cc3bbc93278195,001,2021-08-01_10h31.32.618,arrow_simon_norep,2021.1.2,Win32,60.03121623,,,,,,,,,,,,,,,,,,,,,q,1,1.598,8,FALSE,FALSE,1,3,7,3,1,,,,,,,
,,,,,,0,1.721785126,#a3d0fb,,left_blue.png,w,,,,,,w,left_blue.png,left_orange.png,q,right,6100934ff7cc3bbc93278195,001,2021-08-01_10h31.32.618,arrow_simon_norep,2021.1.2,Win32,60.03121623,,,,,,,,,,,,,,,,,,,,,q,0,1.2642,9,FALSE,TRUE,2,0,8,3,1,,,,,,,
,,,,,,0,1.785965924,#f3af84,,right_orange.png,p,,,,,,o,right_blue.png,right_orange.png,p,right,6100934ff7cc3bbc93278195,001,2021-08-01_10h31.32.618,arrow_simon_norep,2021.1.2,Win32,60.03121623,,,,,,,,,,,,,,,,,,,,,p,1,1.364,10,FALSE,TRUE,2,1,9,1,1,,,,,,,
,,,,,,0,1.546813063,#a3d0fb,,right_blue.png,o,,,,,,o,right_blue.png,right_orange.png,p,left,6100934ff7cc3bbc93278195,001,2021-08-01_10h31.32.618,arrow_simon_norep,2021.1.2,Win32,60.03121623,,,,,,,,,,,,,,,,,,,,,w,0,1.0592,11,FALSE,TRUE,2,2,10,0,1,,,,,,,
,,,,,,0,1.987320442,#f3af84,,left_orange.png,q,,,,,,w,left_blue.png,left_orange.png,q,right,6100934ff7cc3bbc93278195,001,2021-08-01_10h31.32.618,arrow_simon_norep,2021.1.2,Win32,60.03121623,,,,,,,,,,,,,,,,,,,,,p,0,1.8793,12,TRUE,FALSE,2,3,11,3,1,,,,,,,
,,,,,,0,1.592929014,#a3d0fb,,left_blue.png,w,,,,,,w,left_blue.png,left_orange.png,q,left,6100934ff7cc3bbc93278195,001,2021-08-01_10h31.32.618,arrow_simon_norep,2021.1.2,Win32,60.03121623,,,,,,,,,,,,,,,,,,,,,q,0,1.2046,13,FALSE,TRUE,3,0,12,2,1,,,,,,,
,,,,,,0,2.030478741,#f3af84,,right_orange.png,p,,,,,,o,right_blue.png,right_orange.png,p,right,6100934ff7cc3bbc93278195,001,2021-08-01_10h31.32.618,arrow_simon_norep,2021.1.2,Win32,60.03121623,,,,,,,,,,,,,,,,,,,,,o,0,2.0113,14,TRUE,FALSE,3,1,13,1,1,,,,,,,
,,,,,,0,1.521719611,#a3d0fb,,right_blue.png,o,,,,,,o,right_blue.png,right_orange.png,p,left,6100934ff7cc3bbc93278195,001,2021-08-01_10h31.32.618,arrow_simon_norep,2021.1.2,Win32,60.03121623,,,,,,,,,,,,,,,,,,,,,w,0,1.1968,15,FALSE,TRUE,3,2,14,0,1,,,,,,,
,,,,,,0,2.466190035,#f3af84,,right_orange.png,p,,,,,,o,right_blue.png,right_orange.png,p,left,6100934ff7cc3bbc93278195,001,2021-08-01_10h31.32.618,arrow_simon_norep,2021.1.2,Win32,60.03121623,,,,,,,,,,,,,,,,,,,,,p,1,2.5761,16,TRUE,FALSE,3,3,15,0,1,,,,,,,
,,,,,,0,2.214355445,#a3d0fb,,left_blue.png,w,,,,,,w,left_blue.png,left_orange.png,q,right,6100934ff7cc3bbc93278195,001,2021-08-01_10h31.32.618,arrow_simon_norep,2021.1.2,Win32,60.03121623,,,,,,,,,,,,,,,,,,,,,o,0,3.6413,17,TRUE,FALSE,4,0,16,3,1,,,,,,,
,,,,,,0,1.556109921,#f3af84,,left_orange.png,q,,,,,,w,left_blue.png,left_orange.png,q,right,6100934ff7cc3bbc93278195,001,2021-08-01_10h31.32.618,arrow_simon_norep,2021.1.2,Win32,60.03121623,,,,,,,,,,,,,,,,,,,,,p,0,1.3972,18,FALSE,TRUE,4,1,17,3,1,,,,,,,
,,,,,,0,2.455692742,#a3d0fb,,right_blue.png,o,,,,,,o,right_blue.png,right_orange.png,p,left,6100934ff7cc3bbc93278195,001,2021-08-01_10h31.32.618,arrow_simon_norep,2021.1.2,Win32,60.03121623,,,,,,,,,,,,,,,,,,,,,o,1,2.7779,19,TRUE,FALSE,4,2,18,0,1,,,,,,,
,,,,,,0,1.867221744,#f3af84,,right_orange.png,p,,,,,,o,right_blue.png,right_orange.png,p,right,6100934ff7cc3bbc93278195,001,2021-08-01_10h31.32.618,arrow_simon_norep,2021.1.2,Win32,60.03121623,,,,,,,,,,,,,,,,,,,,,q,0,0.4995,20,FALSE,TRUE,4,3,19,1,1,,,,,,,
,,,,,,0,2.003126379,#a3d0fb,,right_blue.png,o,,,,,,o,right_blue.png,right_orange.png,p,right,6100934ff7cc3bbc93278195,001,2021-08-01_10h31.32.618,arrow_simon_norep,2021.1.2,Win32,60.03121623,,,,,,,,,,,,,,,,,,,,,o,1,1.6579,21,TRUE,FALSE,5,0,20,1,1,,,,,,,
,,,,,,0,2.142886502,#f3af84,,left_orange.png,q,,,,,,w,left_blue.png,left_orange.png,q,right,6100934ff7cc3bbc93278195,001,2021-08-01_10h31.32.618,arrow_simon_norep,2021.1.2,Win32,60.03121623,,,,,,,,,,,,,,,,,,,,,p,0,1.7682,22,TRUE,FALSE,5,1,21,3,1,,,,,,,
,,,,,,0,2.026345531,#a3d0fb,,right_blue.png,o,,,,,,o,right_blue.png,right_orange.png,p,right,6100934ff7cc3bbc93278195,001,2021-08-01_10h31.32.618,arrow_simon_norep,2021.1.2,Win32,60.03121623,,,,,,,,,,,,,,,,,,,,,o,1,1.4799,23,FALSE,FALSE,5,2,22,1,1,,,,,,,
,,,,,,0,2.431167587,#f3af84,,right_orange.png,p,,,,,,o,right_blue.png,right_orange.png,p,left,6100934ff7cc3bbc93278195,001,2021-08-01_10h31.32.618,arrow_simon_norep,2021.1.2,Win32,60.03121623,,,,,,,,,,,,,,,,,,,,,q,0,1.8143,24,TRUE,FALSE,5,3,23,0,1,,,,,,,
,,,,,,1,2.072215463,#a3d0fb,,left_blue.png,w,,,,,,w,left_blue.png,left_orange.png,q,left,6100934ff7cc3bbc93278195,001,2021-08-01_10h31.32.618,arrow_simon_norep,2021.1.2,Win32,60.03121623,,,,,,,,,,,,,,,,,,,,,o,0,1.481,25,FALSE,FALSE,6,0,24,2,1,,,,,,,
,,,,,,1,2.473791115,#f3af84,,left_orange.png,q,,,,,,w,left_blue.png,left_orange.png,q,left,6100934ff7cc3bbc93278195,001,2021-08-01_10h31.32.618,arrow_simon_norep,2021.1.2,Win32,60.03121623,,,,,,,,,,,,,,,,,,,,,q,1,1.9006,26,TRUE,FALSE,6,1,25,2,1,,,,,,,
,,,,,,1,1.671485787,#a3d0fb,,right_blue.png,o,,,,,,o,right_blue.png,right_orange.png,p,left,6100934ff7cc3bbc93278195,001,2021-08-01_10h31.32.618,arrow_simon_norep,2021.1.2,Win32,60.03121623,,,,,,,,,,,,,,,,,,,,,o,1,1.1356,27,FALSE,TRUE,6,2,26,0,1,,,,,,,
,,,,,,1,1.615506419,#f3af84,,right_orange.png,p,,,,,,o,right_blue.png,right_orange.png,p,right,6100934ff7cc3bbc93278195,001,2021-08-01_10h31.32.618,arrow_simon_norep,2021.1.2,Win32,60.03121623,,,,,,,,,,,,,,,,,,,,,o,0,1.1141,28,FALSE,TRUE,6,3,27,1,1,,,,,,,
,,,,,,1,2.27594966,#a3d0fb,,left_blue.png,w,,,,,,w,left_blue.png,left_orange.png,q,left,6100934ff7cc3bbc93278195,001,2021-08-01_10h31.32.618,arrow_simon_norep,2021.1.2,Win32,60.03121623,,,,,,,,,,,,,,,,,,,,,q,0,1.9287,29,TRUE,FALSE,7,0,28,2,1,,,,,,,
,,,,,,1,2.263894875,#f3af84,,right_orange.png,p,,,,,,o,right_blue.png,right_orange.png,p,left,6100934ff7cc3bbc93278195,001,2021-08-01_10h31.32.618,arrow_simon_norep,2021.1.2,Win32,60.03121623,,,,,,,,,,,,,,,,,,,,,p,1,1.9978,30,TRUE,FALSE,7,1,29,0,1,,,,,,,
,,,,,,1,1.816058463,#a3d0fb,,right_blue.png,o,,,,,,o,right_blue.png,right_orange.png,p,left,6100934ff7cc3bbc93278195,001,2021-08-01_10h31.32.618,arrow_simon_norep,2021.1.2,Win32,60.03121623,,,,,,,,,,,,,,,,,,,,,o,1,1.2421,31,FALSE,TRUE,7,2,30,0,1,,,,,,,
,,,,,,1,2.004949454,#f3af84,,left_orange.png,q,,,,,,w,left_blue.png,left_orange.png,q,right,6100934ff7cc3bbc93278195,001,2021-08-01_10h31.32.618,arrow_simon_norep,2021.1.2,Win32,60.03121623,,,,,,,,,,,,,,,,,,,,,q,1,1.9528,32,TRUE,FALSE,7,3,31,3,1,,,,,,,
,,,,,,1,2.230413652,#a3d0fb,,left_blue.png,w,,,,,,w,left_blue.png,left_orange.png,q,right,6100934ff7cc3bbc93278195,001,2021-08-01_10h31.32.618,arrow_simon_norep,2021.1.2,Win32,60.03121623,,,,,,,,,,,,,,,,,,,,,o,0,1.8764,33,TRUE,FALSE,8,0,32,3,1,,,,,,,
,,,,,,0,1.85918247,#f3af84,,right_orange.png,p,,,,,,o,right_blue.png,right_orange.png,p,right,6100934ff7cc3bbc93278195,001,2021-08-01_10h31.32.618,arrow_simon_norep,2021.1.2,Win32,60.03121623,,,,,,,,,,,,,,,,,,,,,p,1,1.424,34,FALSE,FALSE,8,1,33,1,1,,,,,,,
,,,,,,0,1.915024296,#a3d0fb,,left_blue.png,w,,,,,,w,left_blue.png,left_orange.png,q,right,6100934ff7cc3bbc93278195,001,2021-08-01_10h31.32.618,arrow_simon_norep,2021.1.2,Win32,60.03121623,,,,,,,,,,,,,,,,,,,,,o,0,1.3805,35,FALSE,TRUE,8,2,34,3,1,,,,,,,
,,,,,,0,1.545216319,#f3af84,,right_orange.png,p,,,,,,o,right_blue.png,right_orange.png,p,left,6100934ff7cc3bbc93278195,001,2021-08-01_10h31.32.618,arrow_simon_norep,2021.1.2,Win32,60.03121623,,,,,,,,,,,,,,,,,,,,,p,1,1.1019,36,FALSE,TRUE,8,3,35,0,1,,,,,,,
,,,,,,0,2.441832349,#a3d0fb,,right_blue.png,o,,,,,,o,right_blue.png,right_orange.png,p,left,6100934ff7cc3bbc93278195,001,2021-08-01_10h31.32.618,arrow_simon_norep,2021.1.2,Win32,60.03121623,,,,,,,,,,,,,,,,,,,,,o,1,1.9324,37,TRUE,FALSE,9,0,36,0,1,,,,,,,
,,,,,,0,2.29450756,#f3af84,,right_orange.png,p,,,,,,o,right_blue.png,right_orange.png,p,right,6100934ff7cc3bbc93278195,001,2021-08-01_10h31.32.618,arrow_simon_norep,2021.1.2,Win32,60.03121623,,,,,,,,,,,,,,,,,,,,,p,1,1.7958,38,TRUE,FALSE,9,1,37,1,1,,,,,,,
,,,,,,0,1.569345332,#a3d0fb,,right_blue.png,o,,,,,,o,right_blue.png,right_orange.png,p,left,6100934ff7cc3bbc93278195,001,2021-08-01_10h31.32.618,arrow_simon_norep,2021.1.2,Win32,60.03121623,,,,,,,,,,,,,,,,,,,,,o,1,1.0487,39,FALSE,TRUE,9,2,38,0,1,,,,,,,
,,,,,,0,2.044258323,#f3af84,,left_orange.png,q,,,,,,w,left_blue.png,left_orange.png,q,left,6100934ff7cc3bbc93278195,001,2021-08-01_10h31.32.618,arrow_simon_norep,2021.1.2,Win32,60.03121623,,,,,,,,,,,,,,,,,,,,,q,1,1.6851,40,TRUE,FALSE,9,3,39,2,1,,,,,,,
,,,,,,0,2.285304889,#a3d0fb,,right_blue.png,o,,,,,,o,right_blue.png,right_orange.png,p,right,6100934ff7cc3bbc93278195,001,2021-08-01_10h31.32.618,arrow_simon_norep,2021.1.2,Win32,60.03121623,,,,,,,,,,,,,,,,,,,,,o,1,1.8627,41,TRUE,FALSE,10,0,40,1,1,,,,,,,
,,,,,,0,2.024239927,#f3af84,,right_orange.png,p,,,,,,o,right_blue.png,right_orange.png,p,right,6100934ff7cc3bbc93278195,001,2021-08-01_10h31.32.618,arrow_simon_norep,2021.1.2,Win32,60.03121623,,,,,,,,,,,,,,,,,,,,,p,1,1.4934,42,FALSE,FALSE,10,1,41,1,1,,,,,,,
,,,,,,0,2.288595486,#a3d0fb,,right_blue.png,o,,,,,,o,right_blue.png,right_orange.png,p,right,6100934ff7cc3bbc93278195,001,2021-08-01_10h31.32.618,arrow_simon_norep,2021.1.2,Win32,60.03121623,,,,,,,,,,,,,,,,,,,,,o,1,1.6455,43,TRUE,FALSE,10,2,42,1,1,,,,,,,
,,,,,,0,2.493971495,#f3af84,,right_orange.png,p,,,,,,o,right_blue.png,right_orange.png,p,left,6100934ff7cc3bbc93278195,001,2021-08-01_10h31.32.618,arrow_simon_norep,2021.1.2,Win32,60.03121623,,,,,,,,,,,,,,,,,,,,,p,1,2.0541,44,TRUE,FALSE,10,3,43,0,1,,,,,,,
,,,,,,0,1.572875741,#a3d0fb,,left_blue.png,w,,,,,,w,left_blue.png,left_orange.png,q,left,6100934ff7cc3bbc93278195,001,2021-08-01_10h31.32.618,arrow_simon_norep,2021.1.2,Win32,60.03121623,,,,,,,,,,,,,,,,,,,,,w,1,1.0543,45,FALSE,TRUE,11,0,44,2,1,,,,,,,
,,,,,,0,2.090478665,#f3af84,,right_orange.png,p,,,,,,o,right_blue.png,right_orange.png,p,right,6100934ff7cc3bbc93278195,001,2021-08-01_10h31.32.618,arrow_simon_norep,2021.1.2,Win32,60.03121623,,,,,,,,,,,,,,,,,,,,,p,1,1.4344,46,FALSE,FALSE,11,1,45,1,1,,,,,,,
,,,,,,0,2.234779086,#a3d0fb,,left_blue.png,w,,,,,,w,left_blue.png,left_orange.png,q,left,6100934ff7cc3bbc93278195,001,2021-08-01_10h31.32.618,arrow_simon_norep,2021.1.2,Win32,60.03121623,,,,,,,,,,,,,,,,,,,,,w,1,1.6834,47,TRUE,FALSE,11,2,46,2,1,,,,,,,
,,,,,,0,2.37374007,#f3af84,,right_orange.png,p,,,,,,o,right_blue.png,right_orange.png,p,left,6100934ff7cc3bbc93278195,001,2021-08-01_10h31.32.618,arrow_simon_norep,2021.1.2,Win32,60.03121623,,,,,,,,,,,,,,,,,,,,,p,1,1.7878,48,TRUE,FALSE,11,3,47,0,1,,,,,,,
,,,,,,0,2.200241697,#a3d0fb,,right_blue.png,o,,,,,,o,right_blue.png,right_orange.png,p,right,6100934ff7cc3bbc93278195,001,2021-08-01_10h31.32.618,arrow_simon_norep,2021.1.2,Win32,60.03121623,,,,,,,,,,,,,,,,,,,,,p,0,1.6463,49,TRUE,FALSE,12,0,48,1,1,,,,,,,
,,,,,,0,2.441841401,#f3af84,,left_orange.png,q,,,,,,w,left_blue.png,left_orange.png,q,right,6100934ff7cc3bbc93278195,001,2021-08-01_10h31.32.618,arrow_simon_norep,2021.1.2,Win32,60.03121623,,,,,,,,,,,,,,,,,,,,,o,0,1.9953,50,TRUE,FALSE,12,1,49,3,1,,,,,,,
,,,,,,0,1.989236721,#a3d0fb,,left_blue.png,w,,,,,,w,left_blue.png,left_orange.png,q,left,6100934ff7cc3bbc93278195,001,2021-08-01_10h31.32.618,arrow_simon_norep,2021.1.2,Win32,60.03121623,,,,,,,,,,,,,,,,,,,,,w,1,1.3985,51,FALSE,TRUE,12,2,50,2,1,,,,,,,
,,,,,,0,2.30346832,#f3af84,,right_orange.png,p,,,,,,o,right_blue.png,right_orange.png,p,right,6100934ff7cc3bbc93278195,001,2021-08-01_10h31.32.618,arrow_simon_norep,2021.1.2,Win32,60.03121623,,,,,,,,,,,,,,,,,,,,,p,1,1.7189,52,TRUE,FALSE,12,3,51,1,1,,,,,,,
,,,,,,0,2.015359965,#a3d0fb,,left_blue.png,w,,,,,,w,left_blue.png,left_orange.png,q,left,6100934ff7cc3bbc93278195,001,2021-08-01_10h31.32.618,arrow_simon_norep,2021.1.2,Win32,60.03121623,,,,,,,,,,,,,,,,,,,,,w,1,1.3324,53,FALSE,TRUE,13,0,52,2,1,,,,,,,
,,,,,,0,1.819127059,#f3af84,,left_orange.png,q,,,,,,w,left_blue.png,left_orange.png,q,left,6100934ff7cc3bbc93278195,001,2021-08-01_10h31.32.618,arrow_simon_norep,2021.1.2,Win32,60.03121623,,,,,,,,,,,,,,,,,,,,,q,1,1.2244,54,FALSE,TRUE,13,1,53,2,1,,,,,,,
,,,,,,1,1.973409734,#a3d0fb,,left_blue.png,w,,,,,,w,left_blue.png,left_orange.png,q,right,6100934ff7cc3bbc93278195,001,2021-08-01_10h31.32.618,arrow_simon_norep,2021.1.2,Win32,60.03121623,,,,,,,,,,,,,,,,,,,,,o,0,1.5396,55,FALSE,FALSE,13,2,54,3,1,,,,,,,
,,,,,,1,2.476379345,#f3af84,,left_orange.png,q,,,,,,w,left_blue.png,left_orange.png,q,left,6100934ff7cc3bbc93278195,001,2021-08-01_10h31.32.618,arrow_simon_norep,2021.1.2,Win32,60.03121623,,,,,,,,,,,,,,,,,,,,,q,1,1.8829,56,TRUE,FALSE,13,3,55,2,1,,,,,,,
,,,,,,1,1.80074158,#a3d0fb,,right_blue.png,o,,,,,,o,right_blue.png,right_orange.png,p,left,6100934ff7cc3bbc93278195,001,2021-08-01_10h31.32.618,arrow_simon_norep,2021.1.2,Win32,60.03121623,,,,,,,,,,,,,,,,,,,,,o,1,1.331,57,FALSE,TRUE,14,0,56,0,1,,,,,,,
,,,,,,0,2.099087292,#f3af84,,left_orange.png,q,,,,,,w,left_blue.png,left_orange.png,q,left,6100934ff7cc3bbc93278195,001,2021-08-01_10h31.32.618,arrow_simon_norep,2021.1.2,Win32,60.03121623,,,,,,,,,,,,,,,,,,,,,q,1,1.4711,58,FALSE,FALSE,14,1,57,2,1,,,,,,,
,,,,,,0,1.600106911,#a3d0fb,,left_blue.png,w,,,,,,w,left_blue.png,left_orange.png,q,right,6100934ff7cc3bbc93278195,001,2021-08-01_10h31.32.618,arrow_simon_norep,2021.1.2,Win32,60.03121623,,,,,,,,,,,,,,,,,,,,,o,0,1.181,59,FALSE,TRUE,14,2,58,3,1,,,,,,,
,,,,,,0,1.583036389,#f3af84,,left_orange.png,q,,,,,,w,left_blue.png,left_orange.png,q,left,6100934ff7cc3bbc93278195,001,2021-08-01_10h31.32.618,arrow_simon_norep,2021.1.2,Win32,60.03121623,,,,,,,,,,,,,,,,,,,,,q,1,1.5794,60,FALSE,FALSE,14,3,59,2,1,,,,,,,
,,,,,,,,,,,,,,,,,,,,,,6100934ff7cc3bbc93278195,001,2021-08-01_10h31.32.618,arrow_simon_norep,2021.1.2,Win32,60.03121623,,,,,,,,,,,,,,,,,,,,,,,,,,,,,,,,space,3461.6482,0,0,0,0,1
,,,,,,1,1.617582423,#a3d0fb,,left_blue.png,w,,,,,,w,left_blue.png,left_orange.png,q,right,6100934ff7cc3bbc93278195,001,2021-08-01_10h31.32.618,arrow_simon_norep,2021.1.2,Win32,60.03121623,,,,,,,,,,,,,,,,,,,,,o,0,1.5226,1,FALSE,FALSE,0,0,0,3,1,,,,,,,
,,,,,,1,1.746402783,#f3af84,,right_orange.png,p,,,,,,o,right_blue.png,right_orange.png,p,right,6100934ff7cc3bbc93278195,001,2021-08-01_10h31.32.618,arrow_simon_norep,2021.1.2,Win32,60.03121623,,,,,,,,,,,,,,,,,,,,,w,0,3.1254,2,TRUE,FALSE,0,1,1,1,1,,,,,,,
,,,,,,1,1.831517847,#a3d0fb,,left_blue.png,w,,,,,,w,left_blue.png,left_orange.png,q,left,6100934ff7cc3bbc93278195,001,2021-08-01_10h31.32.618,arrow_simon_norep,2021.1.2,Win32,60.03121623,,,,,,,,,,,,,,,,,,,,,q,0,1.3217,3,FALSE,TRUE,0,2,2,2,1,,,,,,,
,,,,,,1,2.310586466,#f3af84,,left_orange.png,q,,,,,,w,left_blue.png,left_orange.png,q,right,6100934ff7cc3bbc93278195,001,2021-08-01_10h31.32.618,arrow_simon_norep,2021.1.2,Win32,60.03121623,,,,,,,,,,,,,,,,,,,,,o,0,1.9439,4,TRUE,FALSE,0,3,3,3,1,,,,,,,
,,,,,,1,2.446634427,#a3d0fb,,left_blue.png,w,,,,,,w,left_blue.png,left_orange.png,q,left,6100934ff7cc3bbc93278195,001,2021-08-01_10h31.32.618,arrow_simon_norep,2021.1.2,Win32,60.03121623,,,,,,,,,,,,,,,,,,,,,q,0,1.9228,5,TRUE,FALSE,1,0,4,2,1,,,,,,,
,,,,,,1,1.590852745,#f3af84,,left_orange.png,q,,,,,,w,left_blue.png,left_orange.png,q,right,6100934ff7cc3bbc93278195,001,2021-08-01_10h31.32.618,arrow_simon_norep,2021.1.2,Win32,60.03121623,,,,,,,,,,,,,,,,,,,,,o,0,1.098,6,FALSE,TRUE,1,1,5,3,1,,,,,,,
,,,,,,1,1.545987705,#a3d0fb,,right_blue.png,o,,,,,,o,right_blue.png,right_orange.png,p,left,6100934ff7cc3bbc93278195,001,2021-08-01_10h31.32.618,arrow_simon_norep,2021.1.2,Win32,60.03121623,,,,,,,,,,,,,,,,,,,,,p,0,1.3301,7,FALSE,TRUE,1,2,6,0,1,,,,,,,
,,,,,,1,2.23831185,#f3af84,,right_orange.png,p,,,,,,o,right_blue.png,right_orange.png,p,right,6100934ff7cc3bbc93278195,001,2021-08-01_10h31.32.618,arrow_simon_norep,2021.1.2,Win32,60.03121623,,,,,,,,,,,,,,,,,,,,,p,1,1.9382,8,TRUE,FALSE,1,3,7,1,1,,,,,,,
,,,,,,1,1.7456095,#a3d0fb,,left_blue.png,w,,,,,,w,left_blue.png,left_orange.png,q,left,6100934ff7cc3bbc93278195,001,2021-08-01_10h31.32.618,arrow_simon_norep,2021.1.2,Win32,60.03121623,,,,,,,,,,,,,,,,,,,,,q,0,1.2016,9,FALSE,TRUE,2,0,8,2,1,,,,,,,
,,,,,,1,2.230926929,#f3af84,,left_orange.png,q,,,,,,w,left_blue.png,left_orange.png,q,left,6100934ff7cc3bbc93278195,001,2021-08-01_10h31.32.618,arrow_simon_norep,2021.1.2,Win32,60.03121623,,,,,,,,,,,,,,,,,,,,,w,0,1.637,10,TRUE,FALSE,2,1,9,2,1,,,,,,,
,,,,,,1,1.8932436,#a3d0fb,,left_blue.png,w,,,,,,w,left_blue.png,left_orange.png,q,right,6100934ff7cc3bbc93278195,001,2021-08-01_10h31.32.618,arrow_simon_norep,2021.1.2,Win32,60.03121623,,,,,,,,,,,,,,,,,,,,,o,0,1.3374,11,FALSE,TRUE,2,2,10,3,1,,,,,,,
,,,,,,1,2.375520558,#f3af84,,left_orange.png,q,,,,,,w,left_blue.png,left_orange.png,q,left,6100934ff7cc3bbc93278195,001,2021-08-01_10h31.32.618,arrow_simon_norep,2021.1.2,Win32,60.03121623,,,,,,,,,,,,,,,,,,,,,q,1,1.8342,12,TRUE,FALSE,2,3,11,2,1,,,,,,,
,,,,,,1,2.168111639,#a3d0fb,,right_blue.png,o,,,,,,o,right_blue.png,right_orange.png,p,right,6100934ff7cc3bbc93278195,001,2021-08-01_10h31.32.618,arrow_simon_norep,2021.1.2,Win32,60.03121623,,,,,,,,,,,,,,,,,,,,,o,1,1.613,13,TRUE,FALSE,3,0,12,1,1,,,,,,,
,,,,,,1,2.256688103,#f3af84,,right_orange.png,p,,,,,,o,right_blue.png,right_orange.png,p,left,6100934ff7cc3bbc93278195,001,2021-08-01_10h31.32.618,arrow_simon_norep,2021.1.2,Win32,60.03121623,,,,,,,,,,,,,,,,,,,,,p,1,1.7678,14,TRUE,FALSE,3,1,13,0,1,,,,,,,
,,,,,,1,1.991113893,#a3d0fb,,right_blue.png,o,,,,,,o,right_blue.png,right_orange.png,p,left,6100934ff7cc3bbc93278195,001,2021-08-01_10h31.32.618,arrow_simon_norep,2021.1.2,Win32,60.03121623,,,,,,,,,,,,,,,,,,,,,o,1,1.6804,15,TRUE,FALSE,3,2,14,0,1,,,,,,,
,,,,,,1,1.562812449,#f3af84,,right_orange.png,p,,,,,,o,right_blue.png,right_orange.png,p,right,6100934ff7cc3bbc93278195,001,2021-08-01_10h31.32.618,arrow_simon_norep,2021.1.2,Win32,60.03121623,,,,,,,,,,,,,,,,,,,,,o,0,1.0426,16,FALSE,TRUE,3,3,15,1,1,,,,,,,
,,,,,,1,1.747252568,#a3d0fb,,left_blue.png,w,,,,,,w,left_blue.png,left_orange.png,q,right,6100934ff7cc3bbc93278195,001,2021-08-01_10h31.32.618,arrow_simon_norep,2021.1.2,Win32,60.03121623,,,,,,,,,,,,,,,,,,,,,o,0,1.3038,17,FALSE,TRUE,4,0,16,3,1,,,,,,,
,,,,,,1,1.945347493,#f3af84,,left_orange.png,q,,,,,,w,left_blue.png,left_orange.png,q,right,6100934ff7cc3bbc93278195,001,2021-08-01_10h31.32.618,arrow_simon_norep,2021.1.2,Win32,60.03121623,,,,,,,,,,,,,,,,,,,,,p,0,1.4556,18,FALSE,FALSE,4,1,17,3,1,,,,,,,
,,,,,,1,2.487601292,#a3d0fb,,left_blue.png,w,,,,,,w,left_blue.png,left_orange.png,q,right,6100934ff7cc3bbc93278195,001,2021-08-01_10h31.32.618,arrow_simon_norep,2021.1.2,Win32,60.03121623,,,,,,,,,,,,,,,,,,,,,w,1,2.0317,19,TRUE,FALSE,4,2,18,3,1,,,,,,,
,,,,,,1,2.273288538,#f3af84,,right_orange.png,p,,,,,,o,right_blue.png,right_orange.png,p,right,6100934ff7cc3bbc93278195,001,2021-08-01_10h31.32.618,arrow_simon_norep,2021.1.2,Win32,60.03121623,,,,,,,,,,,,,,,,,,,,,p,1,1.7126,20,TRUE,FALSE,4,3,19,1,1,,,,,,,
,,,,,,1,2.46611335,#a3d0fb,,right_blue.png,o,,,,,,o,right_blue.png,right_orange.png,p,left,6100934ff7cc3bbc93278195,001,2021-08-01_10h31.32.618,arrow_simon_norep,2021.1.2,Win32,60.03121623,,,,,,,,,,,,,,,,,,,,,o,1,1.9454,21,TRUE,FALSE,5,0,20,0,1,,,,,,,
,,,,,,1,2.132124666,#f3af84,,right_orange.png,p,,,,,,o,right_blue.png,right_orange.png,p,left,6100934ff7cc3bbc93278195,001,2021-08-01_10h31.32.618,arrow_simon_norep,2021.1.2,Win32,60.03121623,,,,,,,,,,,,,,,,,,,,,p,1,1.613,22,TRUE,FALSE,5,1,21,0,1,,,,,,,
,,,,,,0,1.95862417,#a3d0fb,,right_blue.png,o,,,,,,o,right_blue.png,right_orange.png,p,left,6100934ff7cc3bbc93278195,001,2021-08-01_10h31.32.618,arrow_simon_norep,2021.1.2,Win32,60.03121623,,,,,,,,,,,,,,,,,,,,,o,1,1.429,23,FALSE,FALSE,5,2,22,0,1,,,,,,,
,,,,,,0,1.587012716,#f3af84,,right_orange.png,p,,,,,,o,right_blue.png,right_orange.png,p,left,6100934ff7cc3bbc93278195,001,2021-08-01_10h31.32.618,arrow_simon_norep,2021.1.2,Win32,60.03121623,,,,,,,,,,,,,,,,,,,,,p,1,1.0019,24,FALSE,TRUE,5,3,23,0,1,,,,,,,
,,,,,,0,1.90104773,#a3d0fb,,left_blue.png,w,,,,,,w,left_blue.png,left_orange.png,q,right,6100934ff7cc3bbc93278195,001,2021-08-01_10h31.32.618,arrow_simon_norep,2021.1.2,Win32,60.03121623,,,,,,,,,,,,,,,,,,,,,o,0,1.3804,25,FALSE,TRUE,6,0,24,3,1,,,,,,,
,,,,,,0,1.843335885,#f3af84,,left_orange.png,q,,,,,,w,left_blue.png,left_orange.png,q,left,6100934ff7cc3bbc93278195,001,2021-08-01_10h31.32.618,arrow_simon_norep,2021.1.2,Win32,60.03121623,,,,,,,,,,,,,,,,,,,,,w,0,1.1497,26,FALSE,TRUE,6,1,25,2,1,,,,,,,
,,,,,,0,2.116004776,#a3d0fb,,right_blue.png,o,,,,,,o,right_blue.png,right_orange.png,p,right,6100934ff7cc3bbc93278195,001,2021-08-01_10h31.32.618,arrow_simon_norep,2021.1.2,Win32,60.03121623,,,,,,,,,,,,,,,,,,,,,o,1,1.4865,27,FALSE,FALSE,6,2,26,1,1,,,,,,,
,,,,,,0,1.501084158,#f3af84,,left_orange.png,q,,,,,,w,left_blue.png,left_orange.png,q,left,6100934ff7cc3bbc93278195,001,2021-08-01_10h31.32.618,arrow_simon_norep,2021.1.2,Win32,60.03121623,,,,,,,,,,,,,,,,,,,,,w,0,1.0484,28,FALSE,TRUE,6,3,27,2,1,,,,,,,
,,,,,,0,1.994464693,#a3d0fb,,right_blue.png,o,,,,,,o,right_blue.png,right_orange.png,p,right,6100934ff7cc3bbc93278195,001,2021-08-01_10h31.32.618,arrow_simon_norep,2021.1.2,Win32,60.03121623,,,,,,,,,,,,,,,,,,,,,o,1,1.4057,29,FALSE,FALSE,7,0,28,1,1,,,,,,,
,,,,,,1,2.157993373,#f3af84,,left_orange.png,q,,,,,,w,left_blue.png,left_orange.png,q,right,6100934ff7cc3bbc93278195,001,2021-08-01_10h31.32.618,arrow_simon_norep,2021.1.2,Win32,60.03121623,,,,,,,,,,,,,,,,,,,,,p,0,1.5964,30,FALSE,FALSE,7,1,29,3,1,,,,,,,
,,,,,,0,2.124541526,#a3d0fb,,right_blue.png,o,,,,,,o,right_blue.png,right_orange.png,p,left,6100934ff7cc3bbc93278195,001,2021-08-01_10h31.32.618,arrow_simon_norep,2021.1.2,Win32,60.03121623,,,,,,,,,,,,,,,,,,,,,o,1,1.5594,31,FALSE,FALSE,7,2,30,0,1,,,,,,,
,,,,,,0,1.736231994,#f3af84,,left_orange.png,q,,,,,,w,left_blue.png,left_orange.png,q,right,6100934ff7cc3bbc93278195,001,2021-08-01_10h31.32.618,arrow_simon_norep,2021.1.2,Win32,60.03121623,,,,,,,,,,,,,,,,,,,,,p,0,1.1147,32,FALSE,TRUE,7,3,31,3,1,,,,,,,
,,,,,,0,1.886466591,#a3d0fb,,left_blue.png,w,,,,,,w,left_blue.png,left_orange.png,q,right,6100934ff7cc3bbc93278195,001,2021-08-01_10h31.32.618,arrow_simon_norep,2021.1.2,Win32,60.03121623,,,,,,,,,,,,,,,,,,,,,w,1,1.4075,33,FALSE,FALSE,8,0,32,3,1,,,,,,,
,,,,,,0,1.629986083,#f3af84,,left_orange.png,q,,,,,,w,left_blue.png,left_orange.png,q,right,6100934ff7cc3bbc93278195,001,2021-08-01_10h31.32.618,arrow_simon_norep,2021.1.2,Win32,60.03121623,,,,,,,,,,,,,,,,,,,,,q,1,1.2405,34,FALSE,TRUE,8,1,33,3,1,,,,,,,
,,,,,,0,1.962627565,#a3d0fb,,right_blue.png,o,,,,,,o,right_blue.png,right_orange.png,p,left,6100934ff7cc3bbc93278195,001,2021-08-01_10h31.32.618,arrow_simon_norep,2021.1.2,Win32,60.03121623,,,,,,,,,,,,,,,,,,,,,o,1,1.44,35,FALSE,FALSE,8,2,34,0,1,,,,,,,
,,,,,,0,1.59884637,#f3af84,,left_orange.png,q,,,,,,w,left_blue.png,left_orange.png,q,right,6100934ff7cc3bbc93278195,001,2021-08-01_10h31.32.618,arrow_simon_norep,2021.1.2,Win32,60.03121623,,,,,,,,,,,,,,,,,,,,,q,1,1.1427,36,FALSE,TRUE,8,3,35,3,1,,,,,,,
,,,,,,0,1.696870602,#a3d0fb,,right_blue.png,o,,,,,,o,right_blue.png,right_orange.png,p,left,6100934ff7cc3bbc93278195,001,2021-08-01_10h31.32.618,arrow_simon_norep,2021.1.2,Win32,60.03121623,,,,,,,,,,,,,,,,,,,,,o,1,1.2182,37,FALSE,TRUE,9,0,36,0,1,,,,,,,
,,,,,,0,2.03726639,#f3af84,,right_orange.png,p,,,,,,o,right_blue.png,right_orange.png,p,right,6100934ff7cc3bbc93278195,001,2021-08-01_10h31.32.618,arrow_simon_norep,2021.1.2,Win32,60.03121623,,,,,,,,,,,,,,,,,,,,,p,1,1.5136,38,FALSE,FALSE,9,1,37,1,1,,,,,,,
,,,,,,0,1.923701652,#a3d0fb,,right_blue.png,o,,,,,,o,right_blue.png,right_orange.png,p,right,6100934ff7cc3bbc93278195,001,2021-08-01_10h31.32.618,arrow_simon_norep,2021.1.2,Win32,60.03121623,,,,,,,,,,,,,,,,,,,,,p,0,1.6042,39,TRUE,FALSE,9,2,38,1,1,,,,,,,
,,,,,,0,2.123242421,#f3af84,,left_orange.png,q,,,,,,w,left_blue.png,left_orange.png,q,left,6100934ff7cc3bbc93278195,001,2021-08-01_10h31.32.618,arrow_simon_norep,2021.1.2,Win32,60.03121623,,,,,,,,,,,,,,,,,,,,,q,1,1.7011,40,TRUE,FALSE,9,3,39,2,1,,,,,,,
,,,,,,0,1.624965051,#a3d0fb,,left_blue.png,w,,,,,,w,left_blue.png,left_orange.png,q,left,6100934ff7cc3bbc93278195,001,2021-08-01_10h31.32.618,arrow_simon_norep,2021.1.2,Win32,60.03121623,,,,,,,,,,,,,,,,,,,,,w,1,1.1307,41,FALSE,TRUE,10,0,40,2,1,,,,,,,
,,,,,,0,2.46126847,#f3af84,,left_orange.png,q,,,,,,w,left_blue.png,left_orange.png,q,right,6100934ff7cc3bbc93278195,001,2021-08-01_10h31.32.618,arrow_simon_norep,2021.1.2,Win32,60.03121623,,,,,,,,,,,,,,,,,,,,,o,0,2.1065,42,TRUE,FALSE,10,1,41,3,1,,,,,,,
,,,,,,0,1.697023471,#a3d0fb,,left_blue.png,w,,,,,,w,left_blue.png,left_orange.png,q,left,6100934ff7cc3bbc93278195,001,2021-08-01_10h31.32.618,arrow_simon_norep,2021.1.2,Win32,60.03121623,,,,,,,,,,,,,,,,,,,,,q,0,1.0858,43,FALSE,TRUE,10,2,42,2,1,,,,,,,
,,,,,,0,1.985589538,#f3af84,,right_orange.png,p,,,,,,o,right_blue.png,right_orange.png,p,right,6100934ff7cc3bbc93278195,001,2021-08-01_10h31.32.618,arrow_simon_norep,2021.1.2,Win32,60.03121623,,,,,,,,,,,,,,,,,,,,,p,1,1.381,44,FALSE,TRUE,10,3,43,1,1,,,,,,,
,,,,,,0,1.96724652,#a3d0fb,,right_blue.png,o,,,,,,o,right_blue.png,right_orange.png,p,left,6100934ff7cc3bbc93278195,001,2021-08-01_10h31.32.618,arrow_simon_norep,2021.1.2,Win32,60.03121623,,,,,,,,,,,,,,,,,,,,,o,1,1.4626,45,FALSE,FALSE,11,0,44,0,1,,,,,,,
,,,,,,0,1.88275748,#f3af84,,left_orange.png,q,,,,,,w,left_blue.png,left_orange.png,q,right,6100934ff7cc3bbc93278195,001,2021-08-01_10h31.32.618,arrow_simon_norep,2021.1.2,Win32,60.03121623,,,,,,,,,,,,,,,,,,,,,q,1,1.664,46,TRUE,FALSE,11,1,45,3,1,,,,,,,
,,,,,,0,1.820514991,#a3d0fb,,right_blue.png,o,,,,,,o,right_blue.png,right_orange.png,p,left,6100934ff7cc3bbc93278195,001,2021-08-01_10h31.32.618,arrow_simon_norep,2021.1.2,Win32,60.03121623,,,,,,,,,,,,,,,,,,,,,p,0,1.3019,47,FALSE,TRUE,11,2,46,0,1,,,,,,,
,,,,,,0,1.559724443,#f3af84,,right_orange.png,p,,,,,,o,right_blue.png,right_orange.png,p,right,6100934ff7cc3bbc93278195,001,2021-08-01_10h31.32.618,arrow_simon_norep,2021.1.2,Win32,60.03121623,,,,,,,,,,,,,,,,,,,,,p,1,1.049,48,FALSE,TRUE,11,3,47,1,1,,,,,,,
,,,,,,0,1.762879681,#a3d0fb,,right_blue.png,o,,,,,,o,right_blue.png,right_orange.png,p,right,6100934ff7cc3bbc93278195,001,2021-08-01_10h31.32.618,arrow_simon_norep,2021.1.2,Win32,60.03121623,,,,,,,,,,,,,,,,,,,,,w,0,1.805,49,TRUE,FALSE,12,0,48,1,1,,,,,,,
,,,,,,0,1.607173873,#f3af84,,right_orange.png,p,,,,,,o,right_blue.png,right_orange.png,p,left,6100934ff7cc3bbc93278195,001,2021-08-01_10h31.32.618,arrow_simon_norep,2021.1.2,Win32,60.03121623,,,,,,,,,,,,,,,,,,,,,o,0,1.1204,50,FALSE,TRUE,12,1,49,0,1,,,,,,,
,,,,,,1,2.082736334,#a3d0fb,,right_blue.png,o,,,,,,o,right_blue.png,right_orange.png,p,left,6100934ff7cc3bbc93278195,001,2021-08-01_10h31.32.618,arrow_simon_norep,2021.1.2,Win32,60.03121623,,,,,,,,,,,,,,,,,,,,,w,0,1.549,51,FALSE,FALSE,12,2,50,0,1,,,,,,,
,,,,,,0,1.863031554,#f3af84,,left_orange.png,q,,,,,,w,left_blue.png,left_orange.png,q,left,6100934ff7cc3bbc93278195,001,2021-08-01_10h31.32.618,arrow_simon_norep,2021.1.2,Win32,60.03121623,,,,,,,,,,,,,,,,,,,,,q,1,1.5555,52,FALSE,FALSE,12,3,51,2,1,,,,,,,
,,,,,,0,1.510278869,#a3d0fb,,right_blue.png,o,,,,,,o,right_blue.png,right_orange.png,p,right,6100934ff7cc3bbc93278195,001,2021-08-01_10h31.32.618,arrow_simon_norep,2021.1.2,Win32,60.03121623,,,,,,,,,,,,,,,,,,,,,o,1,1.146,53,FALSE,TRUE,13,0,52,1,1,,,,,,,
,,,,,,0,2.088629284,#f3af84,,left_orange.png,q,,,,,,w,left_blue.png,left_orange.png,q,left,6100934ff7cc3bbc93278195,001,2021-08-01_10h31.32.618,arrow_simon_norep,2021.1.2,Win32,60.03121623,,,,,,,,,,,,,,,,,,,,,q,1,1.4635,54,FALSE,FALSE,13,1,53,2,1,,,,,,,
,,,,,,0,1.906803446,#a3d0fb,,right_blue.png,o,,,,,,o,right_blue.png,right_orange.png,p,right,6100934ff7cc3bbc93278195,001,2021-08-01_10h31.32.618,arrow_simon_norep,2021.1.2,Win32,60.03121623,,,,,,,,,,,,,,,,,,,,,o,1,1.4481,55,FALSE,FALSE,13,2,54,1,1,,,,,,,
,,,,,,0,2.46275941,#f3af84,,left_orange.png,q,,,,,,w,left_blue.png,left_orange.png,q,left,6100934ff7cc3bbc93278195,001,2021-08-01_10h31.32.618,arrow_simon_norep,2021.1.2,Win32,60.03121623,,,,,,,,,,,,,,,,,,,,,q,1,1.8711,56,TRUE,FALSE,13,3,55,2,1,,,,,,,
,,,,,,0,1.863536508,#a3d0fb,,left_blue.png,w,,,,,,w,left_blue.png,left_orange.png,q,left,6100934ff7cc3bbc93278195,001,2021-08-01_10h31.32.618,arrow_simon_norep,2021.1.2,Win32,60.03121623,,,,,,,,,,,,,,,,,,,,,w,1,1.2679,57,FALSE,TRUE,14,0,56,2,1,,,,,,,
,,,,,,0,2.024576794,#f3af84,,right_orange.png,p,,,,,,o,right_blue.png,right_orange.png,p,left,6100934ff7cc3bbc93278195,001,2021-08-01_10h31.32.618,arrow_simon_norep,2021.1.2,Win32,60.03121623,,,,,,,,,,,,,,,,,,,,,p,1,1.54,58,FALSE,FALSE,14,1,57,0,1,,,,,,,
,,,,,,0,2.121294479,#a3d0fb,,right_blue.png,o,,,,,,o,right_blue.png,right_orange.png,p,right,6100934ff7cc3bbc93278195,001,2021-08-01_10h31.32.618,arrow_simon_norep,2021.1.2,Win32,60.03121623,,,,,,,,,,,,,,,,,,,,,o,1,1.4899,59,FALSE,FALSE,14,2,58,1,1,,,,,,,
,,,,,,0,2.162811794,#f3af84,,left_orange.png,q,,,,,,w,left_blue.png,left_orange.png,q,left,6100934ff7cc3bbc93278195,001,2021-08-01_10h31.32.618,arrow_simon_norep,2021.1.2,Win32,60.03121623,,,,,,,,,,,,,,,,,,,,,q,1,1.5531,60,FALSE,FALSE,14,3,59,2,1,,,,,,,
,,,,,,,,,,,,,,,,,,,,,,6100934ff7cc3bbc93278195,001,2021-08-01_10h31.32.618,arrow_simon_norep,2021.1.2,Win32,60.03121623,,,,,,,,,,,,,,,,,,,,,,,,,,,,,,,,space,4.5306,1,0,1,0,1
,,,,,,0,1.858201576,#a3d0fb,,left_blue.png,w,,,,,,w,left_blue.png,left_orange.png,q,left,6100934ff7cc3bbc93278195,001,2021-08-01_10h31.32.618,arrow_simon_norep,2021.1.2,Win32,60.03121623,,,,,,,,,,,,,,,,,,,,,q,0,1.2485,1,FALSE,TRUE,0,0,0,2,1,,,,,,,
,,,,,,0,2.395689077,#f3af84,,right_orange.png,p,,,,,,o,right_blue.png,right_orange.png,p,left,6100934ff7cc3bbc93278195,001,2021-08-01_10h31.32.618,arrow_simon_norep,2021.1.2,Win32,60.03121623,,,,,,,,,,,,,,,,,,,,,p,1,1.9831,2,TRUE,FALSE,0,1,1,0,1,,,,,,,
,,,,,,0,1.972206274,#a3d0fb,,right_blue.png,o,,,,,,o,right_blue.png,right_orange.png,p,left,6100934ff7cc3bbc93278195,001,2021-08-01_10h31.32.618,arrow_simon_norep,2021.1.2,Win32,60.03121623,,,,,,,,,,,,,,,,,,,,,o,1,1.4215,3,FALSE,FALSE,0,2,2,0,1,,,,,,,
,,,,,,0,1.849359463,#f3af84,,right_orange.png,p,,,,,,o,right_blue.png,right_orange.png,p,right,6100934ff7cc3bbc93278195,001,2021-08-01_10h31.32.618,arrow_simon_norep,2021.1.2,Win32,60.03121623,,,,,,,,,,,,,,,,,,,,,p,1,1.2311,4,FALSE,TRUE,0,3,3,1,1,,,,,,,
,,,,,,0,1.829327727,#a3d0fb,,left_blue.png,w,,,,,,w,left_blue.png,left_orange.png,q,left,6100934ff7cc3bbc93278195,001,2021-08-01_10h31.32.618,arrow_simon_norep,2021.1.2,Win32,60.03121623,,,,,,,,,,,,,,,,,,,,,w,1,1.1888,5,FALSE,TRUE,1,0,4,2,1,,,,,,,
,,,,,,0,2.172561376,#f3af84,,right_orange.png,p,,,,,,o,right_blue.png,right_orange.png,p,left,6100934ff7cc3bbc93278195,001,2021-08-01_10h31.32.618,arrow_simon_norep,2021.1.2,Win32,60.03121623,,,,,,,,,,,,,,,,,,,,,p,1,1.4632,6,FALSE,FALSE,1,1,5,0,1,,,,,,,
,,,,,,0,1.87117579,#a3d0fb,,right_blue.png,o,,,,,,o,right_blue.png,right_orange.png,p,right,6100934ff7cc3bbc93278195,001,2021-08-01_10h31.32.618,arrow_simon_norep,2021.1.2,Win32,60.03121623,,,,,,,,,,,,,,,,,,,,,o,1,1.5457,7,FALSE,FALSE,1,2,6,1,1,,,,,,,
,,,,,,0,1.682632837,#f3af84,,left_orange.png,q,,,,,,w,left_blue.png,left_orange.png,q,left,6100934ff7cc3bbc93278195,001,2021-08-01_10h31.32.618,arrow_simon_norep,2021.1.2,Win32,60.03121623,,,,,,,,,,,,,,,,,,,,,q,1,1.3353,8,FALSE,TRUE,1,3,7,2,1,,,,,,,
,,,,,,1,2.074497893,#a3d0fb,,left_blue.png,w,,,,,,w,left_blue.png,left_orange.png,q,left,6100934ff7cc3bbc93278195,001,2021-08-01_10h31.32.618,arrow_simon_norep,2021.1.2,Win32,60.03121623,,,,,,,,,,,,,,,,,,,,,q,0,1.513,9,FALSE,FALSE,2,0,8,2,1,,,,,,,
,,,,,,1,1.767476168,#f3af84,,right_orange.png,p,,,,,,o,right_blue.png,right_orange.png,p,left,6100934ff7cc3bbc93278195,001,2021-08-01_10h31.32.618,arrow_simon_norep,2021.1.2,Win32,60.03121623,,,,,,,,,,,,,,,,,,,,,p,1,1.3329,10,FALSE,TRUE,2,1,9,0,1,,,,,,,
,,,,,,1,2.1436415,#a3d0fb,,left_blue.png,w,,,,,,w,left_blue.png,left_orange.png,q,left,6100934ff7cc3bbc93278195,001,2021-08-01_10h31.32.618,arrow_simon_norep,2021.1.2,Win32,60.03121623,,,,,,,,,,,,,,,,,,,,,w,1,1.8105,11,TRUE,FALSE,2,2,10,2,1,,,,,,,
,,,,,,1,1.582977526,#f3af84,,left_orange.png,q,,,,,,w,left_blue.png,left_orange.png,q,left,6100934ff7cc3bbc93278195,001,2021-08-01_10h31.32.618,arrow_simon_norep,2021.1.2,Win32,60.03121623,,,,,,,,,,,,,,,,,,,,,q,1,1.0639,12,FALSE,TRUE,2,3,11,2,1,,,,,,,
,,,,,,1,2.012490492,#a3d0fb,,right_blue.png,o,,,,,,o,right_blue.png,right_orange.png,p,right,6100934ff7cc3bbc93278195,001,2021-08-01_10h31.32.618,arrow_simon_norep,2021.1.2,Win32,60.03121623,,,,,,,,,,,,,,,,,,,,,o,1,1.7473,13,TRUE,FALSE,3,0,12,1,1,,,,,,,
,,,,,,1,1.87568091,#f3af84,,right_orange.png,p,,,,,,o,right_blue.png,right_orange.png,p,left,6100934ff7cc3bbc93278195,001,2021-08-01_10h31.32.618,arrow_simon_norep,2021.1.2,Win32,60.03121623,,,,,,,,,,,,,,,,,,,,,p,1,1.3811,14,FALSE,TRUE,3,1,13,0,1,,,,,,,
,,,,,,1,1.515567931,#a3d0fb,,right_blue.png,o,,,,,,o,right_blue.png,right_orange.png,p,right,6100934ff7cc3bbc93278195,001,2021-08-01_10h31.32.618,arrow_simon_norep,2021.1.2,Win32,60.03121623,,,,,,,,,,,,,,,,,,,,,p,0,1.1848,15,FALSE,TRUE,3,2,14,1,1,,,,,,,
,,,,,,1,1.873038402,#f3af84,,left_orange.png,q,,,,,,w,left_blue.png,left_orange.png,q,left,6100934ff7cc3bbc93278195,001,2021-08-01_10h31.32.618,arrow_simon_norep,2021.1.2,Win32,60.03121623,,,,,,,,,,,,,,,,,,,,,q,1,1.231,16,FALSE,TRUE,3,3,15,2,1,,,,,,,
,,,,,,0,1.638303715,#a3d0fb,,right_blue.png,o,,,,,,o,right_blue.png,right_orange.png,p,right,6100934ff7cc3bbc93278195,001,2021-08-01_10h31.32.618,arrow_simon_norep,2021.1.2,Win32,60.03121623,,,,,,,,,,,,,,,,,,,,,o,1,1.5178,17,FALSE,FALSE,4,0,16,1,1,,,,,,,
,,,,,,0,1.843196907,#f3af84,,left_orange.png,q,,,,,,w,left_blue.png,left_orange.png,q,right,6100934ff7cc3bbc93278195,001,2021-08-01_10h31.32.618,arrow_simon_norep,2021.1.2,Win32,60.03121623,,,,,,,,,,,,,,,,,,,,,q,1,1.4303,18,FALSE,FALSE,4,1,17,3,1,,,,,,,
,,,,,,0,2.327635073,#a3d0fb,,left_blue.png,w,,,,,,w,left_blue.png,left_orange.png,q,left,6100934ff7cc3bbc93278195,001,2021-08-01_10h31.32.618,arrow_simon_norep,2021.1.2,Win32,60.03121623,,,,,,,,,,,,,,,,,,,,,q,0,1.788,19,TRUE,FALSE,4,2,18,2,1,,,,,,,
,,,,,,0,1.560896043,#f3af84,,right_orange.png,p,,,,,,o,right_blue.png,right_orange.png,p,left,6100934ff7cc3bbc93278195,001,2021-08-01_10h31.32.618,arrow_simon_norep,2021.1.2,Win32,60.03121623,,,,,,,,,,,,,,,,,,,,,p,1,1.2241,20,FALSE,TRUE,4,3,19,0,1,,,,,,,
,,,,,,0,2.348340711,#a3d0fb,,left_blue.png,w,,,,,,w,left_blue.png,left_orange.png,q,left,6100934ff7cc3bbc93278195,001,2021-08-01_10h31.32.618,arrow_simon_norep,2021.1.2,Win32,60.03121623,,,,,,,,,,,,,,,,,,,,,w,1,1.8947,21,TRUE,FALSE,5,0,20,2,1,,,,,,,
,,,,,,0,1.521435594,#f3af84,,left_orange.png,q,,,,,,w,left_blue.png,left_orange.png,q,right,6100934ff7cc3bbc93278195,001,2021-08-01_10h31.32.618,arrow_simon_norep,2021.1.2,Win32,60.03121623,,,,,,,,,,,,,,,,,,,,,o,0,1.8506,22,TRUE,FALSE,5,1,21,3,1,,,,,,,
,,,,,,0,2.351071066,#a3d0fb,,left_blue.png,w,,,,,,w,left_blue.png,left_orange.png,q,right,6100934ff7cc3bbc93278195,001,2021-08-01_10h31.32.618,arrow_simon_norep,2021.1.2,Win32,60.03121623,,,,,,,,,,,,,,,,,,,,,o,0,2.0402,23,TRUE,FALSE,5,2,22,3,1,,,,,,,
,,,,,,0,2.115482019,#f3af84,,right_orange.png,p,,,,,,o,right_blue.png,right_orange.png,p,right,6100934ff7cc3bbc93278195,001,2021-08-01_10h31.32.618,arrow_simon_norep,2021.1.2,Win32,60.03121623,,,,,,,,,,,,,,,,,,,,,p,1,1.5631,24,FALSE,FALSE,5,3,23,1,1,,,,,,,
,,,,,,0,1.667053373,#a3d0fb,,right_blue.png,o,,,,,,o,right_blue.png,right_orange.png,p,left,6100934ff7cc3bbc93278195,001,2021-08-01_10h31.32.618,arrow_simon_norep,2021.1.2,Win32,60.03121623,,,,,,,,,,,,,,,,,,,,,o,1,1.4667,25,FALSE,FALSE,6,0,24,0,1,,,,,,,
,,,,,,0,1.642336561,#f3af84,,right_orange.png,p,,,,,,o,right_blue.png,right_orange.png,p,right,6100934ff7cc3bbc93278195,001,2021-08-01_10h31.32.618,arrow_simon_norep,2021.1.2,Win32,60.03121623,,,,,,,,,,,,,,,,,,,,,p,1,1.8185,26,TRUE,FALSE,6,1,25,1,1,,,,,,,
,,,,,,0,1.927949906,#a3d0fb,,right_blue.png,o,,,,,,o,right_blue.png,right_orange.png,p,left,6100934ff7cc3bbc93278195,001,2021-08-01_10h31.32.618,arrow_simon_norep,2021.1.2,Win32,60.03121623,,,,,,,,,,,,,,,,,,,,,o,1,1.5415,27,FALSE,FALSE,6,2,26,0,1,,,,,,,
,,,,,,0,1.777026904,#f3af84,,left_orange.png,q,,,,,,w,left_blue.png,left_orange.png,q,right,6100934ff7cc3bbc93278195,001,2021-08-01_10h31.32.618,arrow_simon_norep,2021.1.2,Win32,60.03121623,,,,,,,,,,,,,,,,,,,,,p,0,1.3374,28,FALSE,TRUE,6,3,27,3,1,,,,,,,
,,,,,,0,1.516662334,#a3d0fb,,right_blue.png,o,,,,,,o,right_blue.png,right_orange.png,p,right,6100934ff7cc3bbc93278195,001,2021-08-01_10h31.32.618,arrow_simon_norep,2021.1.2,Win32,60.03121623,,,,,,,,,,,,,,,,,,,,,o,1,1.4139,29,FALSE,FALSE,7,0,28,1,1,,,,,,,
,,,,,,0,1.727201684,#f3af84,,left_orange.png,q,,,,,,w,left_blue.png,left_orange.png,q,right,6100934ff7cc3bbc93278195,001,2021-08-01_10h31.32.618,arrow_simon_norep,2021.1.2,Win32,60.03121623,,,,,,,,,,,,,,,,,,,,,q,1,1.2137,30,FALSE,TRUE,7,1,29,3,1,,,,,,,
,,,,,,0,1.542942812,#a3d0fb,,left_blue.png,w,,,,,,w,left_blue.png,left_orange.png,q,right,6100934ff7cc3bbc93278195,001,2021-08-01_10h31.32.618,arrow_simon_norep,2021.1.2,Win32,60.03121623,,,,,,,,,,,,,,,,,,,,,w,1,1.5737,31,FALSE,FALSE,7,2,30,3,1,,,,,,,
,,,,,,0,2.372556442,#f3af84,,left_orange.png,q,,,,,,w,left_blue.png,left_orange.png,q,left,6100934ff7cc3bbc93278195,001,2021-08-01_10h31.32.618,arrow_simon_norep,2021.1.2,Win32,60.03121623,,,,,,,,,,,,,,,,,,,,,q,1,2.0087,32,TRUE,FALSE,7,3,31,2,1,,,,,,,
,,,,,,0,1.809174584,#a3d0fb,,left_blue.png,w,,,,,,w,left_blue.png,left_orange.png,q,right,6100934ff7cc3bbc93278195,001,2021-08-01_10h31.32.618,arrow_simon_norep,2021.1.2,Win32,60.03121623,,,,,,,,,,,,,,,,,,,,,o,0,1.1805,33,FALSE,TRUE,8,0,32,3,1,,,,,,,
,,,,,,0,1.501323693,#f3af84,,left_orange.png,q,,,,,,w,left_blue.png,left_orange.png,q,left,6100934ff7cc3bbc93278195,001,2021-08-01_10h31.32.618,arrow_simon_norep,2021.1.2,Win32,60.03121623,,,,,,,,,,,,,,,,,,,,,q,1,1.0721,34,FALSE,TRUE,8,1,33,2,1,,,,,,,
,,,,,,0,1.661695658,#a3d0fb,,left_blue.png,w,,,,,,w,left_blue.png,left_orange.png,q,right,6100934ff7cc3bbc93278195,001,2021-08-01_10h31.32.618,arrow_simon_norep,2021.1.2,Win32,60.03121623,,,,,,,,,,,,,,,,,,,,,o,0,1.1805,35,FALSE,TRUE,8,2,34,3,1,,,,,,,
,,,,,,0,2.198875333,#f3af84,,right_orange.png,p,,,,,,o,right_blue.png,right_orange.png,p,right,6100934ff7cc3bbc93278195,001,2021-08-01_10h31.32.618,arrow_simon_norep,2021.1.2,Win32,60.03121623,,,,,,,,,,,,,,,,,,,,,p,1,1.6002,36,TRUE,FALSE,8,3,35,1,1,,,,,,,
,,,,,,0,2.276859634,#a3d0fb,,right_blue.png,o,,,,,,o,right_blue.png,right_orange.png,p,left,6100934ff7cc3bbc93278195,001,2021-08-01_10h31.32.618,arrow_simon_norep,2021.1.2,Win32,60.03121623,,,,,,,,,,,,,,,,,,,,,o,1,1.8189,37,TRUE,FALSE,9,0,36,0,1,,,,,,,
,,,,,,0,2.367843644,#f3af84,,right_orange.png,p,,,,,,o,right_blue.png,right_orange.png,p,right,6100934ff7cc3bbc93278195,001,2021-08-01_10h31.32.618,arrow_simon_norep,2021.1.2,Win32,60.03121623,,,,,,,,,,,,,,,,,,,,,p,1,1.8281,38,TRUE,FALSE,9,1,37,1,1,,,,,,,
,,,,,,0,1.508905517,#a3d0fb,,left_blue.png,w,,,,,,w,left_blue.png,left_orange.png,q,right,6100934ff7cc3bbc93278195,001,2021-08-01_10h31.32.618,arrow_simon_norep,2021.1.2,Win32,60.03121623,,,,,,,,,,,,,,,,,,,,,q,0,1.1479,39,FALSE,TRUE,9,2,38,3,1,,,,,,,
,,,,,,0,1.893644013,#f3af84,,right_orange.png,p,,,,,,o,right_blue.png,right_orange.png,p,left,6100934ff7cc3bbc93278195,001,2021-08-01_10h31.32.618,arrow_simon_norep,2021.1.2,Win32,60.03121623,,,,,,,,,,,,,,,,,,,,,p,1,1.6469,40,TRUE,FALSE,9,3,39,0,1,,,,,,,
,,,,,,0,2.481837775,#a3d0fb,,left_blue.png,w,,,,,,w,left_blue.png,left_orange.png,q,left,6100934ff7cc3bbc93278195,001,2021-08-01_10h31.32.618,arrow_simon_norep,2021.1.2,Win32,60.03121623,,,,,,,,,,,,,,,,,,,,,w,1,1.8619,41,TRUE,FALSE,10,0,40,2,1,,,,,,,
,,,,,,0,1.690786866,#f3af84,,right_orange.png,p,,,,,,o,right_blue.png,right_orange.png,p,right,6100934ff7cc3bbc93278195,001,2021-08-01_10h31.32.618,arrow_simon_norep,2021.1.2,Win32,60.03121623,,,,,,,,,,,,,,,,,,,,,p,1,1.1369,42,FALSE,TRUE,10,1,41,1,1,,,,,,,
,,,,,,0,2.394576875,#a3d0fb,,right_blue.png,o,,,,,,o,right_blue.png,right_orange.png,p,left,6100934ff7cc3bbc93278195,001,2021-08-01_10h31.32.618,arrow_simon_norep,2021.1.2,Win32,60.03121623,,,,,,,,,,,,,,,,,,,,,o,1,1.8291,43,TRUE,FALSE,10,2,42,0,1,,,,,,,
,,,,,,0,1.898013674,#f3af84,,right_orange.png,p,,,,,,o,right_blue.png,right_orange.png,p,left,6100934ff7cc3bbc93278195,001,2021-08-01_10h31.32.618,arrow_simon_norep,2021.1.2,Win32,60.03121623,,,,,,,,,,,,,,,,,,,,,p,1,1.6889,44,TRUE,FALSE,10,3,43,0,1,,,,,,,
,,,,,,0,1.909633626,#a3d0fb,,right_blue.png,o,,,,,,o,right_blue.png,right_orange.png,p,left,6100934ff7cc3bbc93278195,001,2021-08-01_10h31.32.618,arrow_simon_norep,2021.1.2,Win32,60.03121623,,,,,,,,,,,,,,,,,,,,,o,1,1.5347,45,FALSE,FALSE,11,0,44,0,1,,,,,,,
,,,,,,0,2.473565183,#f3af84,,right_orange.png,p,,,,,,o,right_blue.png,right_orange.png,p,left,6100934ff7cc3bbc93278195,001,2021-08-01_10h31.32.618,arrow_simon_norep,2021.1.2,Win32,60.03121623,,,,,,,,,,,,,,,,,,,,,p,1,1.8604,46,TRUE,FALSE,11,1,45,0,1,,,,,,,
,,,,,,0,1.676338347,#a3d0fb,,left_blue.png,w,,,,,,w,left_blue.png,left_orange.png,q,right,6100934ff7cc3bbc93278195,001,2021-08-01_10h31.32.618,arrow_simon_norep,2021.1.2,Win32,60.03121623,,,,,,,,,,,,,,,,,,,,,q,0,1.231,47,FALSE,TRUE,11,2,46,3,1,,,,,,,
,,,,,,0,1.502818922,#f3af84,,right_orange.png,p,,,,,,o,right_blue.png,right_orange.png,p,right,6100934ff7cc3bbc93278195,001,2021-08-01_10h31.32.618,arrow_simon_norep,2021.1.2,Win32,60.03121623,,,,,,,,,,,,,,,,,,,,,p,1,1.1054,48,FALSE,TRUE,11,3,47,1,1,,,,,,,
,,,,,,0,2.416959307,#a3d0fb,,left_blue.png,w,,,,,,w,left_blue.png,left_orange.png,q,left,6100934ff7cc3bbc93278195,001,2021-08-01_10h31.32.618,arrow_simon_norep,2021.1.2,Win32,60.03121623,,,,,,,,,,,,,,,,,,,,,q,0,1.8728,49,TRUE,FALSE,12,0,48,2,1,,,,,,,
,,,,,,1,2.235135963,#f3af84,,right_orange.png,p,,,,,,o,right_blue.png,right_orange.png,p,right,6100934ff7cc3bbc93278195,001,2021-08-01_10h31.32.618,arrow_simon_norep,2021.1.2,Win32,60.03121623,,,,,,,,,,,,,,,,,,,,,o,0,1.5792,50,FALSE,FALSE,12,1,49,1,1,,,,,,,
,,,,,,1,2.400397755,#a3d0fb,,left_blue.png,w,,,,,,w,left_blue.png,left_orange.png,q,right,6100934ff7cc3bbc93278195,001,2021-08-01_10h31.32.618,arrow_simon_norep,2021.1.2,Win32,60.03121623,,,,,,,,,,,,,,,,,,,,,o,0,2.1787,51,TRUE,FALSE,12,2,50,3,1,,,,,,,
,,,,,,1,2.382816771,#f3af84,,left_orange.png,q,,,,,,w,left_blue.png,left_orange.png,q,left,6100934ff7cc3bbc93278195,001,2021-08-01_10h31.32.618,arrow_simon_norep,2021.1.2,Win32,60.03121623,,,,,,,,,,,,,,,,,,,,,q,1,1.8013,52,TRUE,FALSE,12,3,51,2,1,,,,,,,
,,,,,,1,1.583226398,#a3d0fb,,left_blue.png,w,,,,,,w,left_blue.png,left_orange.png,q,right,6100934ff7cc3bbc93278195,001,2021-08-01_10h31.32.618,arrow_simon_norep,2021.1.2,Win32,60.03121623,,,,,,,,,,,,,,,,,,,,,o,0,1.0836,53,FALSE,TRUE,13,0,52,3,1,,,,,,,
,,,,,,1,2.06763853,#f3af84,,left_orange.png,q,,,,,,w,left_blue.png,left_orange.png,q,right,6100934ff7cc3bbc93278195,001,2021-08-01_10h31.32.618,arrow_simon_norep,2021.1.2,Win32,60.03121623,,,,,,,,,,,,,,,,,,,,,q,1,1.7451,54,TRUE,FALSE,13,1,53,3,1,,,,,,,
,,,,,,1,2.036339465,#a3d0fb,,right_blue.png,o,,,,,,o,right_blue.png,right_orange.png,p,left,6100934ff7cc3bbc93278195,001,2021-08-01_10h31.32.618,arrow_simon_norep,2021.1.2,Win32,60.03121623,,,,,,,,,,,,,,,,,,,,,o,1,1.6676,55,TRUE,FALSE,13,2,54,0,1,,,,,,,
,,,,,,1,2.329704613,#f3af84,,left_orange.png,q,,,,,,w,left_blue.png,left_orange.png,q,left,6100934ff7cc3bbc93278195,001,2021-08-01_10h31.32.618,arrow_simon_norep,2021.1.2,Win32,60.03121623,,,,,,,,,,,,,,,,,,,,,q,1,1.7456,56,TRUE,FALSE,13,3,55,2,1,,,,,,,
,,,,,,1,1.570531119,#a3d0fb,,right_blue.png,o,,,,,,o,right_blue.png,right_orange.png,p,right,6100934ff7cc3bbc93278195,001,2021-08-01_10h31.32.618,arrow_simon_norep,2021.1.2,Win32,60.03121623,,,,,,,,,,,,,,,,,,,,,o,1,0.959,57,FALSE,TRUE,14,0,56,1,1,,,,,,,
,,,,,,1,2.250728228,#f3af84,,left_orange.png,q,,,,,,w,left_blue.png,left_orange.png,q,right,6100934ff7cc3bbc93278195,001,2021-08-01_10h31.32.618,arrow_simon_norep,2021.1.2,Win32,60.03121623,,,,,,,,,,,,,,,,,,,,,q,1,1.8166,58,TRUE,FALSE,14,1,57,3,1,,,,,,,
,,,,,,1,2.463426778,#a3d0fb,,right_blue.png,o,,,,,,o,right_blue.png,right_orange.png,p,right,6100934ff7cc3bbc93278195,001,2021-08-01_10h31.32.618,arrow_simon_norep,2021.1.2,Win32,60.03121623,,,,,,,,,,,,,,,,,,,,,o,1,1.7801,59,TRUE,FALSE,14,2,58,1,1,,,,,,,
,,,,,,1,2.012194034,#f3af84,,left_orange.png,q,,,,,,w,left_blue.png,left_orange.png,q,right,6100934ff7cc3bbc93278195,001,2021-08-01_10h31.32.618,arrow_simon_norep,2021.1.2,Win32,60.03121623,,,,,,,,,,,,,,,,,,,,,o,0,1.5552,60,FALSE,FALSE,14,3,59,3,1,,,,,,,
,,,,,,,,,,,,,,,,,,,,,,6100934ff7cc3bbc93278195,001,2021-08-01_10h31.32.618,arrow_simon_norep,2021.1.2,Win32,60.03121623,,,,,,,,,,,,,,,,,,,,,,,,,,,,,,,,space,2.8137,2,0,2,0,1
,,,,,,0,2.212694338,#a3d0fb,,right_blue.png,o,,,,,,o,right_blue.png,right_orange.png,p,left,6100934ff7cc3bbc93278195,001,2021-08-01_10h31.32.618,arrow_simon_norep,2021.1.2,Win32,60.03121623,,,,,,,,,,,,,,,,,,,,,o,1,1.4883,1,FALSE,FALSE,0,0,0,0,1,,,,,,,
,,,,,,0,1.937793371,#f3af84,,left_orange.png,q,,,,,,w,left_blue.png,left_orange.png,q,left,6100934ff7cc3bbc93278195,001,2021-08-01_10h31.32.618,arrow_simon_norep,2021.1.2,Win32,60.03121623,,,,,,,,,,,,,,,,,,,,,q,1,1.3467,2,FALSE,TRUE,0,1,1,2,1,,,,,,,
,,,,,,1,1.758718443,#a3d0fb,,left_blue.png,w,,,,,,w,left_blue.png,left_orange.png,q,right,6100934ff7cc3bbc93278195,001,2021-08-01_10h31.32.618,arrow_simon_norep,2021.1.2,Win32,60.03121623,,,,,,,,,,,,,,,,,,,,,o,0,1.4888,3,FALSE,FALSE,0,2,2,3,1,,,,,,,
,,,,,,1,2.34687658,#f3af84,,left_orange.png,q,,,,,,w,left_blue.png,left_orange.png,q,right,6100934ff7cc3bbc93278195,001,2021-08-01_10h31.32.618,arrow_simon_norep,2021.1.2,Win32,60.03121623,,,,,,,,,,,,,,,,,,,,,q,1,1.9442,4,TRUE,FALSE,0,3,3,3,1,,,,,,,
,,,,,,1,1.583226148,#a3d0fb,,left_blue.png,w,,,,,,w,left_blue.png,left_orange.png,q,right,6100934ff7cc3bbc93278195,001,2021-08-01_10h31.32.618,arrow_simon_norep,2021.1.2,Win32,60.03121623,,,,,,,,,,,,,,,,,,,,,w,1,1.2142,5,FALSE,TRUE,1,0,4,3,1,,,,,,,
,,,,,,1,2.086593134,#f3af84,,right_orange.png,p,,,,,,o,right_blue.png,right_orange.png,p,left,6100934ff7cc3bbc93278195,001,2021-08-01_10h31.32.618,arrow_simon_norep,2021.1.2,Win32,60.03121623,,,,,,,,,,,,,,,,,,,,,p,1,1.6809,6,TRUE,FALSE,1,1,5,0,1,,,,,,,
,,,,,,1,2.131581023,#a3d0fb,,left_blue.png,w,,,,,,w,left_blue.png,left_orange.png,q,right,6100934ff7cc3bbc93278195,001,2021-08-01_10h31.32.618,arrow_simon_norep,2021.1.2,Win32,60.03121623,,,,,,,,,,,,,,,,,,,,,w,1,1.61,7,TRUE,FALSE,1,2,6,3,1,,,,,,,
,,,,,,1,2.282068123,#f3af84,,right_orange.png,p,,,,,,o,right_blue.png,right_orange.png,p,right,6100934ff7cc3bbc93278195,001,2021-08-01_10h31.32.618,arrow_simon_norep,2021.1.2,Win32,60.03121623,,,,,,,,,,,,,,,,,,,,,q,0,1.6536,8,TRUE,FALSE,1,3,7,1,1,,,,,,,
,,,,,,1,2.251565931,#a3d0fb,,left_blue.png,w,,,,,,w,left_blue.png,left_orange.png,q,right,6100934ff7cc3bbc93278195,001,2021-08-01_10h31.32.618,arrow_simon_norep,2021.1.2,Win32,60.03121623,,,,,,,,,,,,,,,,,,,,,w,1,1.6016,9,TRUE,FALSE,2,0,8,3,1,,,,,,,
,,,,,,1,1.863966671,#f3af84,,right_orange.png,p,,,,,,o,right_blue.png,right_orange.png,p,right,6100934ff7cc3bbc93278195,001,2021-08-01_10h31.32.618,arrow_simon_norep,2021.1.2,Win32,60.03121623,,,,,,,,,,,,,,,,,,,,,p,1,1.307,10,FALSE,TRUE,2,1,9,1,1,,,,,,,
,,,,,,1,1.748609266,#a3d0fb,,right_blue.png,o,,,,,,o,right_blue.png,right_orange.png,p,left,6100934ff7cc3bbc93278195,001,2021-08-01_10h31.32.618,arrow_simon_norep,2021.1.2,Win32,60.03121623,,,,,,,,,,,,,,,,,,,,,w,0,1.1066,11,FALSE,TRUE,2,2,10,0,1,,,,,,,
,,,,,,1,1.945040624,#f3af84,,left_orange.png,q,,,,,,w,left_blue.png,left_orange.png,q,right,6100934ff7cc3bbc93278195,001,2021-08-01_10h31.32.618,arrow_simon_norep,2021.1.2,Win32,60.03121623,,,,,,,,,,,,,,,,,,,,,o,0,1.8784,12,TRUE,FALSE,2,3,11,3,1,,,,,,,
,,,,,,1,2.111341069,#a3d0fb,,left_blue.png,w,,,,,,w,left_blue.png,left_orange.png,q,right,6100934ff7cc3bbc93278195,001,2021-08-01_10h31.32.618,arrow_simon_norep,2021.1.2,Win32,60.03121623,,,,,,,,,,,,,,,,,,,,,o,0,1.5299,13,FALSE,FALSE,3,0,12,3,1,,,,,,,
,,,,,,0,1.81416247,#f3af84,,right_orange.png,p,,,,,,o,right_blue.png,right_orange.png,p,right,6100934ff7cc3bbc93278195,001,2021-08-01_10h31.32.618,arrow_simon_norep,2021.1.2,Win32,60.03121623,,,,,,,,,,,,,,,,,,,,,p,1,1.5796,14,FALSE,FALSE,3,1,13,1,1,,,,,,,
,,,,,,0,1.774338176,#a3d0fb,,right_blue.png,o,,,,,,o,right_blue.png,right_orange.png,p,right,6100934ff7cc3bbc93278195,001,2021-08-01_10h31.32.618,arrow_simon_norep,2021.1.2,Win32,60.03121623,,,,,,,,,,,,,,,,,,,,,o,1,1.4466,15,FALSE,FALSE,3,2,14,1,1,,,,,,,
,,,,,,0,2.168721452,#f3af84,,left_orange.png,q,,,,,,w,left_blue.png,left_orange.png,q,left,6100934ff7cc3bbc93278195,001,2021-08-01_10h31.32.618,arrow_simon_norep,2021.1.2,Win32,60.03121623,,,,,,,,,,,,,,,,,,,,,q,1,1.5791,16,FALSE,FALSE,3,3,15,2,1,,,,,,,
,,,,,,0,2.39408307,#a3d0fb,,right_blue.png,o,,,,,,o,right_blue.png,right_orange.png,p,left,6100934ff7cc3bbc93278195,001,2021-08-01_10h31.32.618,arrow_simon_norep,2021.1.2,Win32,60.03121623,,,,,,,,,,,,,,,,,,,,,o,1,1.841,17,TRUE,FALSE,4,0,16,0,1,,,,,,,
,,,,,,0,1.722203228,#f3af84,,right_orange.png,p,,,,,,o,right_blue.png,right_orange.png,p,right,6100934ff7cc3bbc93278195,001,2021-08-01_10h31.32.618,arrow_simon_norep,2021.1.2,Win32,60.03121623,,,,,,,,,,,,,,,,,,,,,p,1,1.0919,18,FALSE,TRUE,4,1,17,1,1,,,,,,,
,,,,,,0,1.771027223,#a3d0fb,,left_blue.png,w,,,,,,w,left_blue.png,left_orange.png,q,right,6100934ff7cc3bbc93278195,001,2021-08-01_10h31.32.618,arrow_simon_norep,2021.1.2,Win32,60.03121623,,,,,,,,,,,,,,,,,,,,,o,0,1.2652,19,FALSE,TRUE,4,2,18,3,1,,,,,,,
,,,,,,0,2.11000025,#f3af84,,left_orange.png,q,,,,,,w,left_blue.png,left_orange.png,q,left,6100934ff7cc3bbc93278195,001,2021-08-01_10h31.32.618,arrow_simon_norep,2021.1.2,Win32,60.03121623,,,,,,,,,,,,,,,,,,,,,q,1,1.513,20,FALSE,FALSE,4,3,19,2,1,,,,,,,
,,,,,,0,1.708068759,#a3d0fb,,right_blue.png,o,,,,,,o,right_blue.png,right_orange.png,p,right,6100934ff7cc3bbc93278195,001,2021-08-01_10h31.32.618,arrow_simon_norep,2021.1.2,Win32,60.03121623,,,,,,,,,,,,,,,,,,,,,o,1,1.1645,21,FALSE,TRUE,5,0,20,1,1,,,,,,,
,,,,,,0,1.972911631,#f3af84,,right_orange.png,p,,,,,,o,right_blue.png,right_orange.png,p,right,6100934ff7cc3bbc93278195,001,2021-08-01_10h31.32.618,arrow_simon_norep,2021.1.2,Win32,60.03121623,,,,,,,,,,,,,,,,,,,,,p,1,1.5799,22,FALSE,FALSE,5,1,21,1,1,,,,,,,
,,,,,,0,1.86006084,#a3d0fb,,left_blue.png,w,,,,,,w,left_blue.png,left_orange.png,q,left,6100934ff7cc3bbc93278195,001,2021-08-01_10h31.32.618,arrow_simon_norep,2021.1.2,Win32,60.03121623,,,,,,,,,,,,,,,,,,,,,w,1,1.264,23,FALSE,TRUE,5,2,22,2,1,,,,,,,
,,,,,,0,1.636805025,#f3af84,,right_orange.png,p,,,,,,o,right_blue.png,right_orange.png,p,right,6100934ff7cc3bbc93278195,001,2021-08-01_10h31.32.618,arrow_simon_norep,2021.1.2,Win32,60.03121623,,,,,,,,,,,,,,,,,,,,,p,1,1.8577,24,TRUE,FALSE,5,3,23,1,1,,,,,,,
,,,,,,1,2.057752362,#a3d0fb,,left_blue.png,w,,,,,,w,left_blue.png,left_orange.png,q,left,6100934ff7cc3bbc93278195,001,2021-08-01_10h31.32.618,arrow_simon_norep,2021.1.2,Win32,60.03121623,,,,,,,,,,,,,,,,,,,,,o,0,1.4228,25,FALSE,FALSE,6,0,24,2,1,,,,,,,
,,,,,,1,1.601906624,#f3af84,,right_orange.png,p,,,,,,o,right_blue.png,right_orange.png,p,right,6100934ff7cc3bbc93278195,001,2021-08-01_10h31.32.618,arrow_simon_norep,2021.1.2,Win32,60.03121623,,,,,,,,,,,,,,,,,,,,,p,1,1.3424,26,FALSE,TRUE,6,1,25,1,1,,,,,,,
,,,,,,1,2.290397605,#a3d0fb,,left_blue.png,w,,,,,,w,left_blue.png,left_orange.png,q,left,6100934ff7cc3bbc93278195,001,2021-08-01_10h31.32.618,arrow_simon_norep,2021.1.2,Win32,60.03121623,,,,,,,,,,,,,,,,,,,,,w,1,1.8296,27,TRUE,FALSE,6,2,26,2,1,,,,,,,
,,,,,,1,2.380426357,#f3af84,,right_orange.png,p,,,,,,o,right_blue.png,right_orange.png,p,left,6100934ff7cc3bbc93278195,001,2021-08-01_10h31.32.618,arrow_simon_norep,2021.1.2,Win32,60.03121623,,,,,,,,,,,,,,,,,,,,,p,1,1.8792,28,TRUE,FALSE,6,3,27,0,1,,,,,,,
,,,,,,1,2.173275005,#a3d0fb,,right_blue.png,o,,,,,,o,right_blue.png,right_orange.png,p,left,6100934ff7cc3bbc93278195,001,2021-08-01_10h31.32.618,arrow_simon_norep,2021.1.2,Win32,60.03121623,,,,,,,,,,,,,,,,,,,,,o,1,1.6465,29,TRUE,FALSE,7,0,28,0,1,,,,,,,
,,,,,,1,2.147004082,#f3af84,,left_orange.png,q,,,,,,w,left_blue.png,left_orange.png,q,right,6100934ff7cc3bbc93278195,001,2021-08-01_10h31.32.618,arrow_simon_norep,2021.1.2,Win32,60.03121623,,,,,,,,,,,,,,,,,,,,,w,0,1.5629,30,FALSE,FALSE,7,1,29,3,1,,,,,,,
,,,,,,1,1.58350207,#a3d0fb,,right_blue.png,o,,,,,,o,right_blue.png,right_orange.png,p,left,6100934ff7cc3bbc93278195,001,2021-08-01_10h31.32.618,arrow_simon_norep,2021.1.2,Win32,60.03121623,,,,,,,,,,,,,,,,,,,,,q,0,0.9982,31,FALSE,TRUE,7,2,30,0,1,,,,,,,
,,,,,,1,2.249865766,#f3af84,,right_orange.png,p,,,,,,o,right_blue.png,right_orange.png,p,left,6100934ff7cc3bbc93278195,001,2021-08-01_10h31.32.618,arrow_simon_norep,2021.1.2,Win32,60.03121623,,,,,,,,,,,,,,,,,,,,,p,1,1.8334,32,TRUE,FALSE,7,3,31,0,1,,,,,,,
,,,,,,1,1.629727857,#a3d0fb,,left_blue.png,w,,,,,,w,left_blue.png,left_orange.png,q,left,6100934ff7cc3bbc93278195,001,2021-08-01_10h31.32.618,arrow_simon_norep,2021.1.2,Win32,60.03121623,,,,,,,,,,,,,,,,,,,,,w,1,1.2826,33,FALSE,TRUE,8,0,32,2,1,,,,,,,
,,,,,,1,2.320411783,#f3af84,,left_orange.png,q,,,,,,w,left_blue.png,left_orange.png,q,right,6100934ff7cc3bbc93278195,001,2021-08-01_10h31.32.618,arrow_simon_norep,2021.1.2,Win32,60.03121623,,,,,,,,,,,,,,,,,,,,,p,0,0.4576,34,FALSE,TRUE,8,1,33,3,1,,,,,,,
,,,,,,1,2.155941566,#a3d0fb,,left_blue.png,w,,,,,,w,left_blue.png,left_orange.png,q,right,6100934ff7cc3bbc93278195,001,2021-08-01_10h31.32.618,arrow_simon_norep,2021.1.2,Win32,60.03121623,,,,,,,,,,,,,,,,,,,,,o,0,0.8976,35,FALSE,TRUE,8,2,34,3,1,,,,,,,
,,,,,,1,2.39987542,#f3af84,,right_orange.png,p,,,,,,o,right_blue.png,right_orange.png,p,left,6100934ff7cc3bbc93278195,001,2021-08-01_10h31.32.618,arrow_simon_norep,2021.1.2,Win32,60.03121623,,,,,,,,,,,,,,,,,,,,,o,0,1.6499,36,TRUE,FALSE,8,3,35,0,1,,,,,,,
,,,,,,1,2.332421784,#a3d0fb,,left_blue.png,w,,,,,,w,left_blue.png,left_orange.png,q,left,6100934ff7cc3bbc93278195,001,2021-08-01_10h31.32.618,arrow_simon_norep,2021.1.2,Win32,60.03121623,,,,,,,,,,,,,,,,,,,,,w,1,1.7454,37,TRUE,FALSE,9,0,36,2,1,,,,,,,
,,,,,,1,1.563033676,#f3af84,,left_orange.png,q,,,,,,w,left_blue.png,left_orange.png,q,left,6100934ff7cc3bbc93278195,001,2021-08-01_10h31.32.618,arrow_simon_norep,2021.1.2,Win32,60.03121623,,,,,,,,,,,,,,,,,,,,,q,1,1.3432,38,FALSE,TRUE,9,1,37,2,1,,,,,,,
,,,,,,1,1.680253681,#a3d0fb,,right_blue.png,o,,,,,,o,right_blue.png,right_orange.png,p,right,6100934ff7cc3bbc93278195,001,2021-08-01_10h31.32.618,arrow_simon_norep,2021.1.2,Win32,60.03121623,,,,,,,,,,,,,,,,,,,,,o,1,1.6955,39,TRUE,FALSE,9,2,38,1,1,,,,,,,
,,,,,,1,2.176547782,#f3af84,,right_orange.png,p,,,,,,o,right_blue.png,right_orange.png,p,left,6100934ff7cc3bbc93278195,001,2021-08-01_10h31.32.618,arrow_simon_norep,2021.1.2,Win32,60.03121623,,,,,,,,,,,,,,,,,,,,,p,1,1.7455,40,TRUE,FALSE,9,3,39,0,1,,,,,,,
,,,,,,1,2.474202504,#a3d0fb,,right_blue.png,o,,,,,,o,right_blue.png,right_orange.png,p,left,6100934ff7cc3bbc93278195,001,2021-08-01_10h31.32.618,arrow_simon_norep,2021.1.2,Win32,60.03121623,,,,,,,,,,,,,,,,,,,,,o,1,1.9054,41,TRUE,FALSE,10,0,40,0,1,,,,,,,
,,,,,,1,1.696670992,#f3af84,,right_orange.png,p,,,,,,o,right_blue.png,right_orange.png,p,right,6100934ff7cc3bbc93278195,001,2021-08-01_10h31.32.618,arrow_simon_norep,2021.1.2,Win32,60.03121623,,,,,,,,,,,,,,,,,,,,,p,1,1.1611,42,FALSE,TRUE,10,1,41,1,1,,,,,,,
,,,,,,1,2.269933867,#a3d0fb,,left_blue.png,w,,,,,,w,left_blue.png,left_orange.png,q,left,6100934ff7cc3bbc93278195,001,2021-08-01_10h31.32.618,arrow_simon_norep,2021.1.2,Win32,60.03121623,,,,,,,,,,,,,,,,,,,,,q,0,1.7851,43,TRUE,FALSE,10,2,42,2,1,,,,,,,
,,,,,,1,1.914143977,#f3af84,,left_orange.png,q,,,,,,w,left_blue.png,left_orange.png,q,right,6100934ff7cc3bbc93278195,001,2021-08-01_10h31.32.618,arrow_simon_norep,2021.1.2,Win32,60.03121623,,,,,,,,,,,,,,,,,,,,,p,0,1.4151,44,FALSE,FALSE,10,3,43,3,1,,,,,,,
,,,,,,1,2.032155862,#a3d0fb,,left_blue.png,w,,,,,,w,left_blue.png,left_orange.png,q,right,6100934ff7cc3bbc93278195,001,2021-08-01_10h31.32.618,arrow_simon_norep,2021.1.2,Win32,60.03121623,,,,,,,,,,,,,,,,,,,,,o,0,1.5693,45,FALSE,FALSE,11,0,44,3,1,,,,,,,
,,,,,,1,2.309115245,#f3af84,,right_orange.png,p,,,,,,o,right_blue.png,right_orange.png,p,left,6100934ff7cc3bbc93278195,001,2021-08-01_10h31.32.618,arrow_simon_norep,2021.1.2,Win32,60.03121623,,,,,,,,,,,,,,,,,,,,,q,0,1.6109,46,TRUE,FALSE,11,1,45,0,1,,,,,,,
,,,,,,1,1.805760337,#a3d0fb,,left_blue.png,w,,,,,,w,left_blue.png,left_orange.png,q,left,6100934ff7cc3bbc93278195,001,2021-08-01_10h31.32.618,arrow_simon_norep,2021.1.2,Win32,60.03121623,,,,,,,,,,,,,,,,,,,,,w,1,1.2355,47,FALSE,TRUE,11,2,46,2,1,,,,,,,
,,,,,,1,2.484254795,#f3af84,,left_orange.png,q,,,,,,w,left_blue.png,left_orange.png,q,left,6100934ff7cc3bbc93278195,001,2021-08-01_10h31.32.618,arrow_simon_norep,2021.1.2,Win32,60.03121623,,,,,,,,,,,,,,,,,,,,,w,0,1.947,48,TRUE,FALSE,11,3,47,2,1,,,,,,,
,,,,,,0,2.05429698,#a3d0fb,,left_blue.png,w,,,,,,w,left_blue.png,left_orange.png,q,left,6100934ff7cc3bbc93278195,001,2021-08-01_10h31.32.618,arrow_simon_norep,2021.1.2,Win32,60.03121623,,,,,,,,,,,,,,,,,,,,,w,1,1.4647,49,FALSE,FALSE,12,0,48,2,1,,,,,,,
,,,,,,0,1.998414951,#f3af84,,right_orange.png,p,,,,,,o,right_blue.png,right_orange.png,p,right,6100934ff7cc3bbc93278195,001,2021-08-01_10h31.32.618,arrow_simon_norep,2021.1.2,Win32,60.03121623,,,,,,,,,,,,,,,,,,,,,p,1,1.3745,50,FALSE,TRUE,12,1,49,1,1,,,,,,,
,,,,,,0,2.230539544,#a3d0fb,,right_blue.png,o,,,,,,o,right_blue.png,right_orange.png,p,right,6100934ff7cc3bbc93278195,001,2021-08-01_10h31.32.618,arrow_simon_norep,2021.1.2,Win32,60.03121623,,,,,,,,,,,,,,,,,,,,,o,1,1.5881,51,FALSE,FALSE,12,2,50,1,1,,,,,,,
