instruct_resp_simon.keys,instruct_resp_simon.corr,instruct_resp_simon.rt,trial_resp_simon.keys,trial_resp_simon.corr,trial_resp_simon.rt,kerr,target_onset,target_color,target_pos,target_file,target_resp,trials_train_simon.thisRepN,trials_train_simon.thisTrialN,trials_train_simon.thisN,trials_train_simon.thisIndex,trials_train_simon.ran,odd_target_resp,odd_target_file,even_target_file,even_target_resp,target_side,participant,session,date,expName,psychopyVersion,OS,frameRate,train_block_note_resp.keys,train_block_note_resp.rt,blocks_train.thisRepN,blocks_train.thisTrialN,blocks_train.thisN,blocks_train.thisIndex,blocks_train.ran,instruct_resp_timing.keys,instruct_resp_timing.corr,instruct_resp_timing.rt,trial_resp_timing.keys,trial_resp_timing.rt,trials_train_timing.thisRepN,trials_train_timing.thisTrialN,trials_train_timing.thisN,trials_train_timing.thisIndex,trials_train_timing.ran,instruct_resp.keys,instruct_resp.corr,instruct_resp.rt,trial_resp.keys,trial_resp.corr,trial_resp.rt,trial_num,too_slow,too_soon,trials.thisRepN,trials.thisTrialN,trials.thisN,trials.thisIndex,trials.ran,block_note_resp.keys,block_note_resp.rt,blocks.thisRepN,blocks.thisTrialN,blocks.thisN,blocks.thisIndex,blocks.ran
space,0,94.568,q,0,13.7721,1,0.429921537,#a3d0fb,,left_blue.png,w,0,0,0,3,1,w,left_blue.png,left_orange.png,q,right,610050d80bac4fad975bb0bc,001,2021-08-01_13h27.46.922,arrow_simon_norep,2021.1.2,MacIntel,59.99880002,,,,,,,,,,,,,,,,,,,,,,,,,,,,,,,,,,,,,,
,,,w,0,17.5755,1,0.183954548,#f3af84,,left_orange.png,q,0,1,1,3,1,w,left_blue.png,left_orange.png,q,right,610050d80bac4fad975bb0bc,001,2021-08-01_13h27.46.922,arrow_simon_norep,2021.1.2,MacIntel,59.99880002,,,,,,,,,,,,,,,,,,,,,,,,,,,,,,,,,,,,,,
,,,w,1,14.0795,0,0.491316077,#a3d0fb,,left_blue.png,w,0,2,2,3,1,w,left_blue.png,left_orange.png,q,right,610050d80bac4fad975bb0bc,001,2021-08-01_13h27.46.922,arrow_simon_norep,2021.1.2,MacIntel,59.99880002,,,,,,,,,,,,,,,,,,,,,,,,,,,,,,,,,,,,,,
,,,p,1,8.7769,0,0.964563299,#f3af84,,right_orange.png,p,0,3,3,0,1,o,right_blue.png,right_orange.png,p,left,610050d80bac4fad975bb0bc,001,2021-08-01_13h27.46.922,arrow_simon_norep,2021.1.2,MacIntel,59.99880002,,,,,,,,,,,,,,,,,,,,,,,,,,,,,,,,,,,,,,
,,,o,1,4.121,0,0.657430612,#a3d0fb,,right_blue.png,o,1,0,4,1,1,o,right_blue.png,right_orange.png,p,right,610050d80bac4fad975bb0bc,001,2021-08-01_13h27.46.922,arrow_simon_norep,2021.1.2,MacIntel,59.99880002,,,,,,,,,,,,,,,,,,,,,,,,,,,,,,,,,,,,,,
,,,p,1,6.8636,0,0.00580412,#f3af84,,right_orange.png,p,1,1,5,0,1,o,right_blue.png,right_orange.png,p,left,610050d80bac4fad975bb0bc,001,2021-08-01_13h27.46.922,arrow_simon_norep,2021.1.2,MacIntel,59.99880002,,,,,,,,,,,,,,,,,,,,,,,,,,,,,,,,,,,,,,
,,,o,1,4.9972,0,0.95108071,#a3d0fb,,right_blue.png,o,1,2,6,1,1,o,right_blue.png,right_orange.png,p,right,610050d80bac4fad975bb0bc,001,2021-08-01_13h27.46.922,arrow_simon_norep,2021.1.2,MacIntel,59.99880002,,,,,,,,,,,,,,,,,,,,,,,,,,,,,,,,,,,,,,
,,,q,1,4.5143,0,0.008688193,#f3af84,,left_orange.png,q,1,3,7,2,1,w,left_blue.png,left_orange.png,q,left,610050d80bac4fad975bb0bc,001,2021-08-01_13h27.46.922,arrow_simon_norep,2021.1.2,MacIntel,59.99880002,,,,,,,,,,,,,,,,,,,,,,,,,,,,,,,,,,,,,,
,,,o,1,10.5511,0,0.366550939,#a3d0fb,,right_blue.png,o,2,0,8,0,1,o,right_blue.png,right_orange.png,p,left,610050d80bac4fad975bb0bc,001,2021-08-01_13h27.46.922,arrow_simon_norep,2021.1.2,MacIntel,59.99880002,,,,,,,,,,,,,,,,,,,,,,,,,,,,,,,,,,,,,,
,,,q,1,13.6853,0,0.439103163,#f3af84,,left_orange.png,q,2,1,9,2,1,w,left_blue.png,left_orange.png,q,left,610050d80bac4fad975bb0bc,001,2021-08-01_13h27.46.922,arrow_simon_norep,2021.1.2,MacIntel,59.99880002,,,,,,,,,,,,,,,,,,,,,,,,,,,,,,,,,,,,,,
,,,w,1,9.7453,0,0.601612607,#a3d0fb,,left_blue.png,w,2,2,10,3,1,w,left_blue.png,left_orange.png,q,right,610050d80bac4fad975bb0bc,001,2021-08-01_13h27.46.922,arrow_simon_norep,2021.1.2,MacIntel,59.99880002,,,,,,,,,,,,,,,,,,,,,,,,,,,,,,,,,,,,,,
,,,p,1,4.6546,0,0.061945516,#f3af84,,right_orange.png,p,2,3,11,1,1,o,right_blue.png,right_orange.png,p,right,610050d80bac4fad975bb0bc,001,2021-08-01_13h27.46.922,arrow_simon_norep,2021.1.2,MacIntel,59.99880002,,,,,,,,,,,,,,,,,,,,,,,,,,,,,,,,,,,,,,
,,,w,1,3.6945,0,0.184209251,#a3d0fb,,left_blue.png,w,3,0,12,2,1,w,left_blue.png,left_orange.png,q,left,610050d80bac4fad975bb0bc,001,2021-08-01_13h27.46.922,arrow_simon_norep,2021.1.2,MacIntel,59.99880002,,,,,,,,,,,,,,,,,,,,,,,,,,,,,,,,,,,,,,
,,,p,1,5.8674,0,0.432697379,#f3af84,,right_orange.png,p,3,1,13,1,1,o,right_blue.png,right_orange.png,p,right,610050d80bac4fad975bb0bc,001,2021-08-01_13h27.46.922,arrow_simon_norep,2021.1.2,MacIntel,59.99880002,,,,,,,,,,,,,,,,,,,,,,,,,,,,,,,,,,,,,,
,,,o,1,5.315,0,0.090373684,#a3d0fb,,right_blue.png,o,3,2,14,0,1,o,right_blue.png,right_orange.png,p,left,610050d80bac4fad975bb0bc,001,2021-08-01_13h27.46.922,arrow_simon_norep,2021.1.2,MacIntel,59.99880002,,,,,,,,,,,,,,,,,,,,,,,,,,,,,,,,,,,,,,
,,,q,1,6.2617,0,0.248816197,#f3af84,,left_orange.png,q,3,3,15,3,1,w,left_blue.png,left_orange.png,q,right,610050d80bac4fad975bb0bc,001,2021-08-01_13h27.46.922,arrow_simon_norep,2021.1.2,MacIntel,59.99880002,,,,,,,,,,,,,,,,,,,,,,,,,,,,,,,,,,,,,,
,,,o,1,7.5994,0,0.708667423,#a3d0fb,,right_blue.png,o,4,0,16,0,1,o,right_blue.png,right_orange.png,p,left,610050d80bac4fad975bb0bc,001,2021-08-01_13h27.46.922,arrow_simon_norep,2021.1.2,MacIntel,59.99880002,,,,,,,,,,,,,,,,,,,,,,,,,,,,,,,,,,,,,,
,,,q,1,10.6998,0,0.640153705,#f3af84,,left_orange.png,q,4,1,17,2,1,w,left_blue.png,left_orange.png,q,left,610050d80bac4fad975bb0bc,001,2021-08-01_13h27.46.922,arrow_simon_norep,2021.1.2,MacIntel,59.99880002,,,,,,,,,,,,,,,,,,,,,,,,,,,,,,,,,,,,,,
,,,q,0,4.5444,1,0.685224664,#a3d0fb,,left_blue.png,w,4,2,18,3,1,w,left_blue.png,left_orange.png,q,right,610050d80bac4fad975bb0bc,001,2021-08-01_13h27.46.922,arrow_simon_norep,2021.1.2,MacIntel,59.99880002,,,,,,,,,,,,,,,,,,,,,,,,,,,,,,,,,,,,,,
,,,q,1,1.8817,0,0.086232011,#f3af84,,left_orange.png,q,4,3,19,2,1,w,left_blue.png,left_orange.png,q,left,610050d80bac4fad975bb0bc,001,2021-08-01_13h27.46.922,arrow_simon_norep,2021.1.2,MacIntel,59.99880002,,,,,,,,,,,,,,,,,,,,,,,,,,,,,,,,,,,,,,
,,,o,1,8.4639,0,0.568480579,#a3d0fb,,right_blue.png,o,5,0,20,0,1,o,right_blue.png,right_orange.png,p,left,610050d80bac4fad975bb0bc,001,2021-08-01_13h27.46.922,arrow_simon_norep,2021.1.2,MacIntel,59.99880002,,,,,,,,,,,,,,,,,,,,,,,,,,,,,,,,,,,,,,
,,,p,1,5.7752,0,0.416124104,#f3af84,,right_orange.png,p,5,1,21,1,1,o,right_blue.png,right_orange.png,p,right,610050d80bac4fad975bb0bc,001,2021-08-01_13h27.46.922,arrow_simon_norep,2021.1.2,MacIntel,59.99880002,,,,,,,,,,,,,,,,,,,,,,,,,,,,,,,,,,,,,,
,,,w,1,4.5995,0,0.011666967,#a3d0fb,,left_blue.png,w,5,2,22,3,1,w,left_blue.png,left_orange.png,q,right,610050d80bac4fad975bb0bc,001,2021-08-01_13h27.46.922,arrow_simon_norep,2021.1.2,MacIntel,59.99880002,,,,,,,,,,,,,,,,,,,,,,,,,,,,,,,,,,,,,,
,,,p,1,11.1648,0,0.059448419,#f3af84,,right_orange.png,p,5,3,23,1,1,o,right_blue.png,right_orange.png,p,right,610050d80bac4fad975bb0bc,001,2021-08-01_13h27.46.922,arrow_simon_norep,2021.1.2,MacIntel,59.99880002,,,,,,,,,,,,,,,,,,,,,,,,,,,,,,,,,,,,,,
,,,o,1,11.0842,0,0.449402736,#a3d0fb,,right_blue.png,o,6,0,24,0,1,o,right_blue.png,right_orange.png,p,left,610050d80bac4fad975bb0bc,001,2021-08-01_13h27.46.922,arrow_simon_norep,2021.1.2,MacIntel,59.99880002,,,,,,,,,,,,,,,,,,,,,,,,,,,,,,,,,,,,,,
,,,p,1,5.6676,0,0.445945439,#f3af84,,right_orange.png,p,6,1,25,0,1,o,right_blue.png,right_orange.png,p,left,610050d80bac4fad975bb0bc,001,2021-08-01_13h27.46.922,arrow_simon_norep,2021.1.2,MacIntel,59.99880002,,,,,,,,,,,,,,,,,,,,,,,,,,,,,,,,,,,,,,
,,,w,1,6.5824,0,0.721611744,#a3d0fb,,left_blue.png,w,6,2,26,3,1,w,left_blue.png,left_orange.png,q,right,610050d80bac4fad975bb0bc,001,2021-08-01_13h27.46.922,arrow_simon_norep,2021.1.2,MacIntel,59.99880002,,,,,,,,,,,,,,,,,,,,,,,,,,,,,,,,,,,,,,
,,,q,1,7.034,0,0.795947619,#f3af84,,left_orange.png,q,6,3,27,3,1,w,left_blue.png,left_orange.png,q,right,610050d80bac4fad975bb0bc,001,2021-08-01_13h27.46.922,arrow_simon_norep,2021.1.2,MacIntel,59.99880002,,,,,,,,,,,,,,,,,,,,,,,,,,,,,,,,,,,,,,
,,,q,0,4.8293,1,0.631232012,#a3d0fb,,left_blue.png,w,7,0,28,2,1,w,left_blue.png,left_orange.png,q,left,610050d80bac4fad975bb0bc,001,2021-08-01_13h27.46.922,arrow_simon_norep,2021.1.2,MacIntel,59.99880002,,,,,,,,,,,,,,,,,,,,,,,,,,,,,,,,,,,,,,
,,,p,1,12.8155,0,0.757030798,#f3af84,,right_orange.png,p,7,1,29,0,1,o,right_blue.png,right_orange.png,p,left,610050d80bac4fad975bb0bc,001,2021-08-01_13h27.46.922,arrow_simon_norep,2021.1.2,MacIntel,59.99880002,,,,,,,,,,,,,,,,,,,,,,,,,,,,,,,,,,,,,,
,,,o,1,7.164,0,0.941423427,#a3d0fb,,right_blue.png,o,7,2,30,1,1,o,right_blue.png,right_orange.png,p,right,610050d80bac4fad975bb0bc,001,2021-08-01_13h27.46.922,arrow_simon_norep,2021.1.2,MacIntel,59.99880002,,,,,,,,,,,,,,,,,,,,,,,,,,,,,,,,,,,,,,
,,,p,1,15.7821,0,0.413870504,#f3af84,,right_orange.png,p,7,3,31,0,1,o,right_blue.png,right_orange.png,p,left,610050d80bac4fad975bb0bc,001,2021-08-01_13h27.46.922,arrow_simon_norep,2021.1.2,MacIntel,59.99880002,,,,,,,,,,,,,,,,,,,,,,,,,,,,,,,,,,,,,,
,,,w,1,6.3657,0,0.945410858,#a3d0fb,,left_blue.png,w,8,0,32,3,1,w,left_blue.png,left_orange.png,q,right,610050d80bac4fad975bb0bc,001,2021-08-01_13h27.46.922,arrow_simon_norep,2021.1.2,MacIntel,59.99880002,,,,,,,,,,,,,,,,,,,,,,,,,,,,,,,,,,,,,,
,,,p,1,7.1421,0,0.825669169,#f3af84,,right_orange.png,p,8,1,33,0,1,o,right_blue.png,right_orange.png,p,left,610050d80bac4fad975bb0bc,001,2021-08-01_13h27.46.922,arrow_simon_norep,2021.1.2,MacIntel,59.99880002,,,,,,,,,,,,,,,,,,,,,,,,,,,,,,,,,,,,,,
,,,p,0,7.8204,1,0.512749026,#a3d0fb,,right_blue.png,o,8,2,34,0,1,o,right_blue.png,right_orange.png,p,left,610050d80bac4fad975bb0bc,001,2021-08-01_13h27.46.922,arrow_simon_norep,2021.1.2,MacIntel,59.99880002,,,,,,,,,,,,,,,,,,,,,,,,,,,,,,,,,,,,,,
,,,w,0,1.739,1,0.975402159,#f3af84,,left_orange.png,q,8,3,35,2,1,w,left_blue.png,left_orange.png,q,left,610050d80bac4fad975bb0bc,001,2021-08-01_13h27.46.922,arrow_simon_norep,2021.1.2,MacIntel,59.99880002,,,,,,,,,,,,,,,,,,,,,,,,,,,,,,,,,,,,,,
,,,o,0,0.3841,1,0.219740568,#a3d0fb,,left_blue.png,w,9,0,36,3,1,w,left_blue.png,left_orange.png,q,right,610050d80bac4fad975bb0bc,001,2021-08-01_13h27.46.922,arrow_simon_norep,2021.1.2,MacIntel,59.99880002,,,,,,,,,,,,,,,,,,,,,,,,,,,,,,,,,,,,,,
,,,p,0,0.1801,1,0.993949729,#f3af84,,left_orange.png,q,9,1,37,2,1,w,left_blue.png,left_orange.png,q,left,610050d80bac4fad975bb0bc,001,2021-08-01_13h27.46.922,arrow_simon_norep,2021.1.2,MacIntel,59.99880002,,,,,,,,,,,,,,,,,,,,,,,,,,,,,,,,,,,,,,
,,,w,1,0.2646,0,0.704400799,#a3d0fb,,left_blue.png,w,9,2,38,3,1,w,left_blue.png,left_orange.png,q,right,610050d80bac4fad975bb0bc,001,2021-08-01_13h27.46.922,arrow_simon_norep,2021.1.2,MacIntel,59.99880002,,,,,,,,,,,,,,,,,,,,,,,,,,,,,,,,,,,,,,
,,,o,0,1.4126,1,0.984670566,#f3af84,,right_orange.png,p,9,3,39,1,1,o,right_blue.png,right_orange.png,p,right,610050d80bac4fad975bb0bc,001,2021-08-01_13h27.46.922,arrow_simon_norep,2021.1.2,MacIntel,59.99880002,,,,,,,,,,,,,,,,,,,,,,,,,,,,,,,,,,,,,,
,,,p,0,0.3969,1,0.840693842,#a3d0fb,,right_blue.png,o,10,0,40,1,1,o,right_blue.png,right_orange.png,p,right,610050d80bac4fad975bb0bc,001,2021-08-01_13h27.46.922,arrow_simon_norep,2021.1.2,MacIntel,59.99880002,,,,,,,,,,,,,,,,,,,,,,,,,,,,,,,,,,,,,,
,,,q,0,0.2367,1,0.736092428,#f3af84,,right_orange.png,p,10,1,41,0,1,o,right_blue.png,right_orange.png,p,left,610050d80bac4fad975bb0bc,001,2021-08-01_13h27.46.922,arrow_simon_norep,2021.1.2,MacIntel,59.99880002,,,,,,,,,,,,,,,,,,,,,,,,,,,,,,,,,,,,,,
,,,w,0,0.7041,1,0.765972766,#a3d0fb,,right_blue.png,o,10,2,42,1,1,o,right_blue.png,right_orange.png,p,right,610050d80bac4fad975bb0bc,001,2021-08-01_13h27.46.922,arrow_simon_norep,2021.1.2,MacIntel,59.99880002,,,,,,,,,,,,,,,,,,,,,,,,,,,,,,,,,,,,,,
,,,p,0,0.0458,1,0.287183482,#f3af84,,left_orange.png,q,10,3,43,2,1,w,left_blue.png,left_orange.png,q,left,610050d80bac4fad975bb0bc,001,2021-08-01_13h27.46.922,arrow_simon_norep,2021.1.2,MacIntel,59.99880002,,,,,,,,,,,,,,,,,,,,,,,,,,,,,,,,,,,,,,
,,,o,0,0.2845,1,0.822286265,#a3d0fb,,left_blue.png,w,11,0,44,3,1,w,left_blue.png,left_orange.png,q,right,610050d80bac4fad975bb0bc,001,2021-08-01_13h27.46.922,arrow_simon_norep,2021.1.2,MacIntel,59.99880002,,,,,,,,,,,,,,,,,,,,,,,,,,,,,,,,,,,,,,
,,,q,1,0.0681,0,0.699896227,#f3af84,,left_orange.png,q,11,1,45,3,1,w,left_blue.png,left_orange.png,q,right,610050d80bac4fad975bb0bc,001,2021-08-01_13h27.46.922,arrow_simon_norep,2021.1.2,MacIntel,59.99880002,,,,,,,,,,,,,,,,,,,,,,,,,,,,,,,,,,,,,,
,,,o,1,0.3564,0,0.12621284,#a3d0fb,,right_blue.png,o,11,2,46,0,1,o,right_blue.png,right_orange.png,p,left,610050d80bac4fad975bb0bc,001,2021-08-01_13h27.46.922,arrow_simon_norep,2021.1.2,MacIntel,59.99880002,,,,,,,,,,,,,,,,,,,,,,,,,,,,,,,,,,,,,,
,,,w,0,0.1056,1,0.614283354,#f3af84,,left_orange.png,q,11,3,47,2,1,w,left_blue.png,left_orange.png,q,left,610050d80bac4fad975bb0bc,001,2021-08-01_13h27.46.922,arrow_simon_norep,2021.1.2,MacIntel,59.99880002,,,,,,,,,,,,,,,,,,,,,,,,,,,,,,,,,,,,,,
,,,q,0,0.1288,1,0.059462317,#a3d0fb,,left_blue.png,w,12,0,48,2,1,w,left_blue.png,left_orange.png,q,left,610050d80bac4fad975bb0bc,001,2021-08-01_13h27.46.922,arrow_simon_norep,2021.1.2,MacIntel,59.99880002,,,,,,,,,,,,,,,,,,,,,,,,,,,,,,,,,,,,,,
,,,o,0,0.0321,1,0.784292968,#f3af84,,left_orange.png,q,12,1,49,2,1,w,left_blue.png,left_orange.png,q,left,610050d80bac4fad975bb0bc,001,2021-08-01_13h27.46.922,arrow_simon_norep,2021.1.2,MacIntel,59.99880002,,,,,,,,,,,,,,,,,,,,,,,,,,,,,,,,,,,,,,
,,,p,0,0.0496,1,0.85110147,#a3d0fb,,right_blue.png,o,12,2,50,0,1,o,right_blue.png,right_orange.png,p,left,610050d80bac4fad975bb0bc,001,2021-08-01_13h27.46.922,arrow_simon_norep,2021.1.2,MacIntel,59.99880002,,,,,,,,,,,,,,,,,,,,,,,,,,,,,,,,,,,,,,
,,,w,0,0.0853,1,0.348193779,#f3af84,,right_orange.png,p,12,3,51,1,1,o,right_blue.png,right_orange.png,p,right,610050d80bac4fad975bb0bc,001,2021-08-01_13h27.46.922,arrow_simon_norep,2021.1.2,MacIntel,59.99880002,,,,,,,,,,,,,,,,,,,,,,,,,,,,,,,,,,,,,,
,,,p,0,0.4354,1,0.15845881,#a3d0fb,,left_blue.png,w,13,0,52,2,1,w,left_blue.png,left_orange.png,q,left,610050d80bac4fad975bb0bc,001,2021-08-01_13h27.46.922,arrow_simon_norep,2021.1.2,MacIntel,59.99880002,,,,,,,,,,,,,,,,,,,,,,,,,,,,,,,,,,,,,,
,,,o,0,0.051,1,0.463813572,#f3af84,,left_orange.png,q,13,1,53,2,1,w,left_blue.png,left_orange.png,q,left,610050d80bac4fad975bb0bc,001,2021-08-01_13h27.46.922,arrow_simon_norep,2021.1.2,MacIntel,59.99880002,,,,,,,,,,,,,,,,,,,,,,,,,,,,,,,,,,,,,,
,,,q,0,0.0394,1,0.942947177,#a3d0fb,,right_blue.png,o,13,2,54,1,1,o,right_blue.png,right_orange.png,p,right,610050d80bac4fad975bb0bc,001,2021-08-01_13h27.46.922,arrow_simon_norep,2021.1.2,MacIntel,59.99880002,,,,,,,,,,,,,,,,,,,,,,,,,,,,,,,,,,,,,,
,,,w,0,0.0489,1,0.754268457,#f3af84,,left_orange.png,q,13,3,55,3,1,w,left_blue.png,left_orange.png,q,right,610050d80bac4fad975bb0bc,001,2021-08-01_13h27.46.922,arrow_simon_norep,2021.1.2,MacIntel,59.99880002,,,,,,,,,,,,,,,,,,,,,,,,,,,,,,,,,,,,,,
,,,q,0,0.157,1,0.129298252,#a3d0fb,,left_blue.png,w,14,0,56,2,1,w,left_blue.png,left_orange.png,q,left,610050d80bac4fad975bb0bc,001,2021-08-01_13h27.46.922,arrow_simon_norep,2021.1.2,MacIntel,59.99880002,,,,,,,,,,,,,,,,,,,,,,,,,,,,,,,,,,,,,,
,,,o,0,0.0106,1,0.685755013,#f3af84,,right_orange.png,p,14,1,57,1,1,o,right_blue.png,right_orange.png,p,right,610050d80bac4fad975bb0bc,001,2021-08-01_13h27.46.922,arrow_simon_norep,2021.1.2,MacIntel,59.99880002,,,,,,,,,,,,,,,,,,,,,,,,,,,,,,,,,,,,,,
,,,q,0,0.0988,1,0.694131299,#a3d0fb,,right_blue.png,o,14,2,58,1,1,o,right_blue.png,right_orange.png,p,right,610050d80bac4fad975bb0bc,001,2021-08-01_13h27.46.922,arrow_simon_norep,2021.1.2,MacIntel,59.99880002,,,,,,,,,,,,,,,,,,,,,,,,,,,,,,,,,,,,,,
,,,w,0,0.0154,1,0.947048654,#f3af84,,right_orange.png,p,14,3,59,1,1,o,right_blue.png,right_orange.png,p,right,610050d80bac4fad975bb0bc,001,2021-08-01_13h27.46.922,arrow_simon_norep,2021.1.2,MacIntel,59.99880002,,,,,,,,,,,,,,,,,,,,,,,,,,,,,,,,,,,,,,
,,,,,,,,,,,,,,,,,,,,,,610050d80bac4fad975bb0bc,001,2021-08-01_13h27.46.922,arrow_simon_norep,2021.1.2,MacIntel,59.99880002,space,179.4984,0,0,0,0,1,,,,,,,,,,,,,,,,,,,,,,,,,,,,,,,
,,,w,1,15.7234,0,0.689259358,#a3d0fb,,left_blue.png,w,0,0,0,3,1,w,left_blue.png,left_orange.png,q,right,610050d80bac4fad975bb0bc,001,2021-08-01_13h27.46.922,arrow_simon_norep,2021.1.2,MacIntel,59.99880002,,,,,,,,,,,,,,,,,,,,,,,,,,,,,,,,,,,,,,
,,,p,1,7.3133,0,0.738689693,#f3af84,,right_orange.png,p,0,1,1,0,1,o,right_blue.png,right_orange.png,p,left,610050d80bac4fad975bb0bc,001,2021-08-01_13h27.46.922,arrow_simon_norep,2021.1.2,MacIntel,59.99880002,,,,,,,,,,,,,,,,,,,,,,,,,,,,,,,,,,,,,,
,,,w,1,1.3168,0,0.153302629,#a3d0fb,,left_blue.png,w,0,2,2,3,1,w,left_blue.png,left_orange.png,q,right,610050d80bac4fad975bb0bc,001,2021-08-01_13h27.46.922,arrow_simon_norep,2021.1.2,MacIntel,59.99880002,,,,,,,,,,,,,,,,,,,,,,,,,,,,,,,,,,,,,,
,,,q,1,3.0395,0,0.413670637,#f3af84,,left_orange.png,q,0,3,3,2,1,w,left_blue.png,left_orange.png,q,left,610050d80bac4fad975bb0bc,001,2021-08-01_13h27.46.922,arrow_simon_norep,2021.1.2,MacIntel,59.99880002,,,,,,,,,,,,,,,,,,,,,,,,,,,,,,,,,,,,,,
,,,o,1,1.1711,0,0.40717925,#a3d0fb,,right_blue.png,o,1,0,4,1,1,o,right_blue.png,right_orange.png,p,right,610050d80bac4fad975bb0bc,001,2021-08-01_13h27.46.922,arrow_simon_norep,2021.1.2,MacIntel,59.99880002,,,,,,,,,,,,,,,,,,,,,,,,,,,,,,,,,,,,,,
,,,p,1,5.4924,0,0.138008507,#f3af84,,right_orange.png,p,1,1,5,0,1,o,right_blue.png,right_orange.png,p,left,610050d80bac4fad975bb0bc,001,2021-08-01_13h27.46.922,arrow_simon_norep,2021.1.2,MacIntel,59.99880002,,,,,,,,,,,,,,,,,,,,,,,,,,,,,,,,,,,,,,
,,,w,1,5.0466,0,0.266385234,#a3d0fb,,left_blue.png,w,1,2,6,3,1,w,left_blue.png,left_orange.png,q,right,610050d80bac4fad975bb0bc,001,2021-08-01_13h27.46.922,arrow_simon_norep,2021.1.2,MacIntel,59.99880002,,,,,,,,,,,,,,,,,,,,,,,,,,,,,,,,,,,,,,
,,,q,1,2.1457,0,0.422334641,#f3af84,,left_orange.png,q,1,3,7,2,1,w,left_blue.png,left_orange.png,q,left,610050d80bac4fad975bb0bc,001,2021-08-01_13h27.46.922,arrow_simon_norep,2021.1.2,MacIntel,59.99880002,,,,,,,,,,,,,,,,,,,,,,,,,,,,,,,,,,,,,,
,,,q,0,1.5851,1,0.689861918,#a3d0fb,,left_blue.png,w,2,0,8,3,1,w,left_blue.png,left_orange.png,q,right,610050d80bac4fad975bb0bc,001,2021-08-01_13h27.46.922,arrow_simon_norep,2021.1.2,MacIntel,59.99880002,,,,,,,,,,,,,,,,,,,,,,,,,,,,,,,,,,,,,,
,,,p,0,1.8293,1,0.432808351,#f3af84,,left_orange.png,q,2,1,9,3,1,w,left_blue.png,left_orange.png,q,right,610050d80bac4fad975bb0bc,001,2021-08-01_13h27.46.922,arrow_simon_norep,2021.1.2,MacIntel,59.99880002,,,,,,,,,,,,,,,,,,,,,,,,,,,,,,,,,,,,,,
,,,w,1,1.7206,0,0.565783279,#a3d0fb,,left_blue.png,w,2,2,10,2,1,w,left_blue.png,left_orange.png,q,left,610050d80bac4fad975bb0bc,001,2021-08-01_13h27.46.922,arrow_simon_norep,2021.1.2,MacIntel,59.99880002,,,,,,,,,,,,,,,,,,,,,,,,,,,,,,,,,,,,,,
,,,o,0,2.0128,1,0.369021751,#f3af84,,right_orange.png,p,2,3,11,0,1,o,right_blue.png,right_orange.png,p,left,610050d80bac4fad975bb0bc,001,2021-08-01_13h27.46.922,arrow_simon_norep,2021.1.2,MacIntel,59.99880002,,,,,,,,,,,,,,,,,,,,,,,,,,,,,,,,,,,,,,
,,,p,0,3.1012,1,0.910264166,#a3d0fb,,right_blue.png,o,3,0,12,0,1,o,right_blue.png,right_orange.png,p,left,610050d80bac4fad975bb0bc,001,2021-08-01_13h27.46.922,arrow_simon_norep,2021.1.2,MacIntel,59.99880002,,,,,,,,,,,,,,,,,,,,,,,,,,,,,,,,,,,,,,
,,,q,1,0.5472,0,0.711944827,#f3af84,,left_orange.png,q,3,1,13,2,1,w,left_blue.png,left_orange.png,q,left,610050d80bac4fad975bb0bc,001,2021-08-01_13h27.46.922,arrow_simon_norep,2021.1.2,MacIntel,59.99880002,,,,,,,,,,,,,,,,,,,,,,,,,,,,,,,,,,,,,,
,,,o,0,0.7178,1,0.999954244,#a3d0fb,,left_blue.png,w,3,2,14,2,1,w,left_blue.png,left_orange.png,q,left,610050d80bac4fad975bb0bc,001,2021-08-01_13h27.46.922,arrow_simon_norep,2021.1.2,MacIntel,59.99880002,,,,,,,,,,,,,,,,,,,,,,,,,,,,,,,,,,,,,,
,,,w,0,1.3354,1,0.668136549,#f3af84,,right_orange.png,p,3,3,15,0,1,o,right_blue.png,right_orange.png,p,left,610050d80bac4fad975bb0bc,001,2021-08-01_13h27.46.922,arrow_simon_norep,2021.1.2,MacIntel,59.99880002,,,,,,,,,,,,,,,,,,,,,,,,,,,,,,,,,,,,,,
,,,p,0,0.3722,1,0.021685235,#a3d0fb,,right_blue.png,o,4,0,16,1,1,o,right_blue.png,right_orange.png,p,right,610050d80bac4fad975bb0bc,001,2021-08-01_13h27.46.922,arrow_simon_norep,2021.1.2,MacIntel,59.99880002,,,,,,,,,,,,,,,,,,,,,,,,,,,,,,,,,,,,,,
,,,q,0,1.583,1,0.793254667,#f3af84,,right_orange.png,p,4,1,17,0,1,o,right_blue.png,right_orange.png,p,left,610050d80bac4fad975bb0bc,001,2021-08-01_13h27.46.922,arrow_simon_norep,2021.1.2,MacIntel,59.99880002,,,,,,,,,,,,,,,,,,,,,,,,,,,,,,,,,,,,,,
,,,w,1,0.3006,0,0.808815404,#a3d0fb,,left_blue.png,w,4,2,18,3,1,w,left_blue.png,left_orange.png,q,right,610050d80bac4fad975bb0bc,001,2021-08-01_13h27.46.922,arrow_simon_norep,2021.1.2,MacIntel,59.99880002,,,,,,,,,,,,,,,,,,,,,,,,,,,,,,,,,,,,,,
,,,p,0,0.2995,1,0.337344068,#f3af84,,left_orange.png,q,4,3,19,2,1,w,left_blue.png,left_orange.png,q,left,610050d80bac4fad975bb0bc,001,2021-08-01_13h27.46.922,arrow_simon_norep,2021.1.2,MacIntel,59.99880002,,,,,,,,,,,,,,,,,,,,,,,,,,,,,,,,,,,,,,
,,,o,1,0.271,0,0.529811413,#a3d0fb,,right_blue.png,o,5,0,20,1,1,o,right_blue.png,right_orange.png,p,right,610050d80bac4fad975bb0bc,001,2021-08-01_13h27.46.922,arrow_simon_norep,2021.1.2,MacIntel,59.99880002,,,,,,,,,,,,,,,,,,,,,,,,,,,,,,,,,,,,,,
,,,q,1,0.6021,0,0.135815671,#f3af84,,left_orange.png,q,5,1,21,2,1,w,left_blue.png,left_orange.png,q,left,610050d80bac4fad975bb0bc,001,2021-08-01_13h27.46.922,arrow_simon_norep,2021.1.2,MacIntel,59.99880002,,,,,,,,,,,,,,,,,,,,,,,,,,,,,,,,,,,,,,
,,,p,0,1.4155,1,0.695544156,#a3d0fb,,right_blue.png,o,5,2,22,1,1,o,right_blue.png,right_orange.png,p,right,610050d80bac4fad975bb0bc,001,2021-08-01_13h27.46.922,arrow_simon_norep,2021.1.2,MacIntel,59.99880002,,,,,,,,,,,,,,,,,,,,,,,,,,,,,,,,,,,,,,
,,,w,0,0.996,1,0.117208732,#f3af84,,left_orange.png,q,5,3,23,2,1,w,left_blue.png,left_orange.png,q,left,610050d80bac4fad975bb0bc,001,2021-08-01_13h27.46.922,arrow_simon_norep,2021.1.2,MacIntel,59.99880002,,,,,,,,,,,,,,,,,,,,,,,,,,,,,,,,,,,,,,
,,,q,0,0.299,1,0.93445128,#a3d0fb,,left_blue.png,w,6,0,24,2,1,w,left_blue.png,left_orange.png,q,left,610050d80bac4fad975bb0bc,001,2021-08-01_13h27.46.922,arrow_simon_norep,2021.1.2,MacIntel,59.99880002,,,,,,,,,,,,,,,,,,,,,,,,,,,,,,,,,,,,,,
,,,o,0,0.7674,1,0.449124372,#f3af84,,left_orange.png,q,6,1,25,2,1,w,left_blue.png,left_orange.png,q,left,610050d80bac4fad975bb0bc,001,2021-08-01_13h27.46.922,arrow_simon_norep,2021.1.2,MacIntel,59.99880002,,,,,,,,,,,,,,,,,,,,,,,,,,,,,,,,,,,,,,
,,,p,0,0.3483,1,0.724350854,#a3d0fb,,left_blue.png,w,6,2,26,2,1,w,left_blue.png,left_orange.png,q,left,610050d80bac4fad975bb0bc,001,2021-08-01_13h27.46.922,arrow_simon_norep,2021.1.2,MacIntel,59.99880002,,,,,,,,,,,,,,,,,,,,,,,,,,,,,,,,,,,,,,
,,,q,1,0.3534,0,0.910378019,#f3af84,,left_orange.png,q,6,3,27,2,1,w,left_blue.png,left_orange.png,q,left,610050d80bac4fad975bb0bc,001,2021-08-01_13h27.46.922,arrow_simon_norep,2021.1.2,MacIntel,59.99880002,,,,,,,,,,,,,,,,,,,,,,,,,,,,,,,,,,,,,,
,,,w,1,0.4487,0,0.576143325,#a3d0fb,,left_blue.png,w,7,0,28,3,1,w,left_blue.png,left_orange.png,q,right,610050d80bac4fad975bb0bc,001,2021-08-01_13h27.46.922,arrow_simon_norep,2021.1.2,MacIntel,59.99880002,,,,,,,,,,,,,,,,,,,,,,,,,,,,,,,,,,,,,,
,,,o,0,0.2976,1,0.253481987,#f3af84,,right_orange.png,p,7,1,29,1,1,o,right_blue.png,right_orange.png,p,right,610050d80bac4fad975bb0bc,001,2021-08-01_13h27.46.922,arrow_simon_norep,2021.1.2,MacIntel,59.99880002,,,,,,,,,,,,,,,,,,,,,,,,,,,,,,,,,,,,,,
,,,q,0,0.2456,1,0.47475003,#a3d0fb,,right_blue.png,o,7,2,30,1,1,o,right_blue.png,right_orange.png,p,right,610050d80bac4fad975bb0bc,001,2021-08-01_13h27.46.922,arrow_simon_norep,2021.1.2,MacIntel,59.99880002,,,,,,,,,,,,,,,,,,,,,,,,,,,,,,,,,,,,,,
,,,q,1,0.5283,0,0.874141717,#f3af84,,left_orange.png,q,7,3,31,3,1,w,left_blue.png,left_orange.png,q,right,610050d80bac4fad975bb0bc,001,2021-08-01_13h27.46.922,arrow_simon_norep,2021.1.2,MacIntel,59.99880002,,,,,,,,,,,,,,,,,,,,,,,,,,,,,,,,,,,,,,
,,,o,1,0.3045,0,0.864622905,#a3d0fb,,right_blue.png,o,8,0,32,0,1,o,right_blue.png,right_orange.png,p,left,610050d80bac4fad975bb0bc,001,2021-08-01_13h27.46.922,arrow_simon_norep,2021.1.2,MacIntel,59.99880002,,,,,,,,,,,,,,,,,,,,,,,,,,,,,,,,,,,,,,
,,,p,1,0.3483,0,0.007106607,#f3af84,,right_orange.png,p,8,1,33,1,1,o,right_blue.png,right_orange.png,p,right,610050d80bac4fad975bb0bc,001,2021-08-01_13h27.46.922,arrow_simon_norep,2021.1.2,MacIntel,59.99880002,,,,,,,,,,,,,,,,,,,,,,,,,,,,,,,,,,,,,,
,,,q,0,0.1624,1,0.171819957,#a3d0fb,,right_blue.png,o,8,2,34,1,1,o,right_blue.png,right_orange.png,p,right,610050d80bac4fad975bb0bc,001,2021-08-01_13h27.46.922,arrow_simon_norep,2021.1.2,MacIntel,59.99880002,,,,,,,,,,,,,,,,,,,,,,,,,,,,,,,,,,,,,,
,,,w,0,0.1132,1,0.664992606,#f3af84,,right_orange.png,p,8,3,35,1,1,o,right_blue.png,right_orange.png,p,right,610050d80bac4fad975bb0bc,001,2021-08-01_13h27.46.922,arrow_simon_norep,2021.1.2,MacIntel,59.99880002,,,,,,,,,,,,,,,,,,,,,,,,,,,,,,,,,,,,,,
,,,p,0,0.1173,1,0.163277133,#a3d0fb,,left_blue.png,w,9,0,36,3,1,w,left_blue.png,left_orange.png,q,right,610050d80bac4fad975bb0bc,001,2021-08-01_13h27.46.922,arrow_simon_norep,2021.1.2,MacIntel,59.99880002,,,,,,,,,,,,,,,,,,,,,,,,,,,,,,,,,,,,,,
,,,o,0,0.1785,1,0.133308008,#f3af84,,right_orange.png,p,9,1,37,1,1,o,right_blue.png,right_orange.png,p,right,610050d80bac4fad975bb0bc,001,2021-08-01_13h27.46.922,arrow_simon_norep,2021.1.2,MacIntel,59.99880002,,,,,,,,,,,,,,,,,,,,,,,,,,,,,,,,,,,,,,
,,,w,1,0.0801,0,0.677949431,#a3d0fb,,left_blue.png,w,9,2,38,3,1,w,left_blue.png,left_orange.png,q,right,610050d80bac4fad975bb0bc,001,2021-08-01_13h27.46.922,arrow_simon_norep,2021.1.2,MacIntel,59.99880002,,,,,,,,,,,,,,,,,,,,,,,,,,,,,,,,,,,,,,
,,,p,1,0.7969,0,0.647816419,#f3af84,,right_orange.png,p,9,3,39,1,1,o,right_blue.png,right_orange.png,p,right,610050d80bac4fad975bb0bc,001,2021-08-01_13h27.46.922,arrow_simon_norep,2021.1.2,MacIntel,59.99880002,,,,,,,,,,,,,,,,,,,,,,,,,,,,,,,,,,,,,,
,,,q,0,0.5709,1,0.692436867,#a3d0fb,,left_blue.png,w,10,0,40,3,1,w,left_blue.png,left_orange.png,q,right,610050d80bac4fad975bb0bc,001,2021-08-01_13h27.46.922,arrow_simon_norep,2021.1.2,MacIntel,59.99880002,,,,,,,,,,,,,,,,,,,,,,,,,,,,,,,,,,,,,,
,,,o,0,0.3322,1,0.35236768,#f3af84,,right_orange.png,p,10,1,41,0,1,o,right_blue.png,right_orange.png,p,left,610050d80bac4fad975bb0bc,001,2021-08-01_13h27.46.922,arrow_simon_norep,2021.1.2,MacIntel,59.99880002,,,,,,,,,,,,,,,,,,,,,,,,,,,,,,,,,,,,,,
,,,q,0,1.2952,1,0.9531395,#a3d0fb,,right_blue.png,o,10,2,42,0,1,o,right_blue.png,right_orange.png,p,left,610050d80bac4fad975bb0bc,001,2021-08-01_13h27.46.922,arrow_simon_norep,2021.1.2,MacIntel,59.99880002,,,,,,,,,,,,,,,,,,,,,,,,,,,,,,,,,,,,,,
,,,p,0,1.3143,1,0.908873511,#f3af84,,left_orange.png,q,10,3,43,2,1,w,left_blue.png,left_orange.png,q,left,610050d80bac4fad975bb0bc,001,2021-08-01_13h27.46.922,arrow_simon_norep,2021.1.2,MacIntel,59.99880002,,,,,,,,,,,,,,,,,,,,,,,,,,,,,,,,,,,,,,
,,,w,0,1.0639,1,0.399877372,#a3d0fb,,right_blue.png,o,11,0,44,1,1,o,right_blue.png,right_orange.png,p,right,610050d80bac4fad975bb0bc,001,2021-08-01_13h27.46.922,arrow_simon_norep,2021.1.2,MacIntel,59.99880002,,,,,,,,,,,,,,,,,,,,,,,,,,,,,,,,,,,,,,
,,,q,0,0.8163,1,0.953952178,#f3af84,,right_orange.png,p,11,1,45,0,1,o,right_blue.png,right_orange.png,p,left,610050d80bac4fad975bb0bc,001,2021-08-01_13h27.46.922,arrow_simon_norep,2021.1.2,MacIntel,59.99880002,,,,,,,,,,,,,,,,,,,,,,,,,,,,,,,,,,,,,,
,,,o,1,1.7626,0,0.920454031,#a3d0fb,,right_blue.png,o,11,2,46,0,1,o,right_blue.png,right_orange.png,p,left,610050d80bac4fad975bb0bc,001,2021-08-01_13h27.46.922,arrow_simon_norep,2021.1.2,MacIntel,59.99880002,,,,,,,,,,,,,,,,,,,,,,,,,,,,,,,,,,,,,,
,,,p,1,1.1966,0,0.874936018,#f3af84,,right_orange.png,p,11,3,47,1,1,o,right_blue.png,right_orange.png,p,right,610050d80bac4fad975bb0bc,001,2021-08-01_13h27.46.922,arrow_simon_norep,2021.1.2,MacIntel,59.99880002,,,,,,,,,,,,,,,,,,,,,,,,,,,,,,,,,,,,,,
,,,p,0,0.6879,1,0.161024348,#a3d0fb,,right_blue.png,o,12,0,48,1,1,o,right_blue.png,right_orange.png,p,right,610050d80bac4fad975bb0bc,001,2021-08-01_13h27.46.922,arrow_simon_norep,2021.1.2,MacIntel,59.99880002,,,,,,,,,,,,,,,,,,,,,,,,,,,,,,,,,,,,,,
,,,w,0,0.887,1,0.536085757,#f3af84,,left_orange.png,q,12,1,49,2,1,w,left_blue.png,left_orange.png,q,left,610050d80bac4fad975bb0bc,001,2021-08-01_13h27.46.922,arrow_simon_norep,2021.1.2,MacIntel,59.99880002,,,,,,,,,,,,,,,,,,,,,,,,,,,,,,,,,,,,,,
,,,q,0,1.1723,1,0.862178628,#a3d0fb,,right_blue.png,o,12,2,50,0,1,o,right_blue.png,right_orange.png,p,left,610050d80bac4fad975bb0bc,001,2021-08-01_13h27.46.922,arrow_simon_norep,2021.1.2,MacIntel,59.99880002,,,,,,,,,,,,,,,,,,,,,,,,,,,,,,,,,,,,,,
,,,o,0,0.4681,1,0.026371803,#f3af84,,right_orange.png,p,12,3,51,1,1,o,right_blue.png,right_orange.png,p,right,610050d80bac4fad975bb0bc,001,2021-08-01_13h27.46.922,arrow_simon_norep,2021.1.2,MacIntel,59.99880002,,,,,,,,,,,,,,,,,,,,,,,,,,,,,,,,,,,,,,
,,,w,0,0.3512,1,0.978077059,#a3d0fb,,right_blue.png,o,13,0,52,0,1,o,right_blue.png,right_orange.png,p,left,610050d80bac4fad975bb0bc,001,2021-08-01_13h27.46.922,arrow_simon_norep,2021.1.2,MacIntel,59.99880002,,,,,,,,,,,,,,,,,,,,,,,,,,,,,,,,,,,,,,
,,,p,0,0.4645,1,0.090145424,#f3af84,,left_orange.png,q,13,1,53,3,1,w,left_blue.png,left_orange.png,q,right,610050d80bac4fad975bb0bc,001,2021-08-01_13h27.46.922,arrow_simon_norep,2021.1.2,MacIntel,59.99880002,,,,,,,,,,,,,,,,,,,,,,,,,,,,,,,,,,,,,,
,,,q,0,0.1643,1,0.7139289,#a3d0fb,,left_blue.png,w,13,2,54,3,1,w,left_blue.png,left_orange.png,q,right,610050d80bac4fad975bb0bc,001,2021-08-01_13h27.46.922,arrow_simon_norep,2021.1.2,MacIntel,59.99880002,,,,,,,,,,,,,,,,,,,,,,,,,,,,,,,,,,,,,,
,,,w,0,0.7511,1,0.074337345,#f3af84,,right_orange.png,p,13,3,55,0,1,o,right_blue.png,right_orange.png,p,left,610050d80bac4fad975bb0bc,001,2021-08-01_13h27.46.922,arrow_simon_norep,2021.1.2,MacIntel,59.99880002,,,,,,,,,,,,,,,,,,,,,,,,,,,,,,,,,,,,,,
,,,p,0,0.7549,1,0.010065675,#a3d0fb,,left_blue.png,w,14,0,56,3,1,w,left_blue.png,left_orange.png,q,right,610050d80bac4fad975bb0bc,001,2021-08-01_13h27.46.922,arrow_simon_norep,2021.1.2,MacIntel,59.99880002,,,,,,,,,,,,,,,,,,,,,,,,,,,,,,,,,,,,,,
,,,w,0,0.3157,1,0.763529696,#f3af84,,left_orange.png,q,14,1,57,2,1,w,left_blue.png,left_orange.png,q,left,610050d80bac4fad975bb0bc,001,2021-08-01_13h27.46.922,arrow_simon_norep,2021.1.2,MacIntel,59.99880002,,,,,,,,,,,,,,,,,,,,,,,,,,,,,,,,,,,,,,
,,,o,0,1.321,1,0.088256816,#a3d0fb,,left_blue.png,w,14,2,58,3,1,w,left_blue.png,left_orange.png,q,right,610050d80bac4fad975bb0bc,001,2021-08-01_13h27.46.922,arrow_simon_norep,2021.1.2,MacIntel,59.99880002,,,,,,,,,,,,,,,,,,,,,,,,,,,,,,,,,,,,,,
,,,q,0,0.5468,1,0.052320052,#f3af84,,right_orange.png,p,14,3,59,0,1,o,right_blue.png,right_orange.png,p,left,610050d80bac4fad975bb0bc,001,2021-08-01_13h27.46.922,arrow_simon_norep,2021.1.2,MacIntel,59.99880002,,,,,,,,,,,,,,,,,,,,,,,,,,,,,,,,,,,,,,
,,,,,,,,,,,,,,,,,,,,,,610050d80bac4fad975bb0bc,001,2021-08-01_13h27.46.922,arrow_simon_norep,2021.1.2,MacIntel,59.99880002,space,76.0716,1,0,1,0,1,,,,,,,,,,,,,,,,,,,,,,,,,,,,,,,
,,,,,,,,,,,,,,,,,,,,,,610050d80bac4fad975bb0bc,001,2021-08-01_13h27.46.922,arrow_simon_norep,2021.1.2,MacIntel,59.99880002,,,,,,,,space,0,25.7083,w,2.9147,0,0,0,0,1,,,,,,,,,,,,,,,,,,,,,
,,,,,,,,,,,,,,,,,,,,,,610050d80bac4fad975bb0bc,001,2021-08-01_13h27.46.922,arrow_simon_norep,2021.1.2,MacIntel,59.99880002,,,,,,,,,,,o,2.8136,1,0,1,0,1,,,,,,,,,,,,,,,,,,,,,
,,,,,,,,,,,,,,,,,,,,,,610050d80bac4fad975bb0bc,001,2021-08-01_13h27.46.922,arrow_simon_norep,2021.1.2,MacIntel,59.99880002,,,,,,,,,,,w,2.1818,2,0,2,0,1,,,,,,,,,,,,,,,,,,,,,
,,,,,,,,,,,,,,,,,,,,,,610050d80bac4fad975bb0bc,001,2021-08-01_13h27.46.922,arrow_simon_norep,2021.1.2,MacIntel,59.99880002,,,,,,,,,,,o,1.8467,3,0,3,0,1,,,,,,,,,,,,,,,,,,,,,
,,,,,,,,,,,,,,,,,,,,,,610050d80bac4fad975bb0bc,001,2021-08-01_13h27.46.922,arrow_simon_norep,2021.1.2,MacIntel,59.99880002,,,,,,,,,,,o,2.8483,4,0,4,0,1,,,,,,,,,,,,,,,,,,,,,
,,,,,,,,,,,,,,,,,,,,,,610050d80bac4fad975bb0bc,001,2021-08-01_13h27.46.922,arrow_simon_norep,2021.1.2,MacIntel,59.99880002,,,,,,,,,,,o,2.853,5,0,5,0,1,,,,,,,,,,,,,,,,,,,,,
,,,,,,,,,,,,,,,,,,,,,,610050d80bac4fad975bb0bc,001,2021-08-01_13h27.46.922,arrow_simon_norep,2021.1.2,MacIntel,59.99880002,,,,,,,,,,,o,2.798,6,0,6,0,1,,,,,,,,,,,,,,,,,,,,,
,,,,,,,,,,,,,,,,,,,,,,610050d80bac4fad975bb0bc,001,2021-08-01_13h27.46.922,arrow_simon_norep,2021.1.2,MacIntel,59.99880002,,,,,,,,,,,o,2.4316,7,0,7,0,1,,,,,,,,,,,,,,,,,,,,,
,,,,,,,,,,,,,,,,,,,,,,610050d80bac4fad975bb0bc,001,2021-08-01_13h27.46.922,arrow_simon_norep,2021.1.2,MacIntel,59.99880002,,,,,,,,,,,o,2.302,8,0,8,0,1,,,,,,,,,,,,,,,,,,,,,
,,,,,,,,,,,,,,,,,,,,,,610050d80bac4fad975bb0bc,001,2021-08-01_13h27.46.922,arrow_simon_norep,2021.1.2,MacIntel,59.99880002,,,,,,,,,,,o,2.3989,9,0,9,0,1,,,,,,,,,,,,,,,,,,,,,
,,,,,,,,,,,,,,,,,,,,,,610050d80bac4fad975bb0bc,001,2021-08-01_13h27.46.922,arrow_simon_norep,2021.1.2,MacIntel,59.99880002,,,,,,,,,,,o,3.1699,10,0,10,0,1,,,,,,,,,,,,,,,,,,,,,
,,,,,,,,,,,,,,,,,,,,,,610050d80bac4fad975bb0bc,001,2021-08-01_13h27.46.922,arrow_simon_norep,2021.1.2,MacIntel,59.99880002,,,,,,,,,,,o,2.1642,11,0,11,0,1,,,,,,,,,,,,,,,,,,,,,
,,,,,,,,,,,,,,,,,,,,,,610050d80bac4fad975bb0bc,001,2021-08-01_13h27.46.922,arrow_simon_norep,2021.1.2,MacIntel,59.99880002,,,,,,,,,,,o,2.3652,12,0,12,0,1,,,,,,,,,,,,,,,,,,,,,
,,,,,,,,,,,,,,,,,,,,,,610050d80bac4fad975bb0bc,001,2021-08-01_13h27.46.922,arrow_simon_norep,2021.1.2,MacIntel,59.99880002,,,,,,,,,,,o,2.6829,13,0,13,0,1,,,,,,,,,,,,,,,,,,,,,
,,,,,,,,,,,,,,,,,,,,,,610050d80bac4fad975bb0bc,001,2021-08-01_13h27.46.922,arrow_simon_norep,2021.1.2,MacIntel,59.99880002,,,,,,,,,,,o,2.8634,14,0,14,0,1,,,,,,,,,,,,,,,,,,,,,
,,,,,,,,,,,,,,,,,,,,,,610050d80bac4fad975bb0bc,001,2021-08-01_13h27.46.922,arrow_simon_norep,2021.1.2,MacIntel,59.99880002,,,,,,,,,,,o,2.3964,15,0,15,0,1,,,,,,,,,,,,,,,,,,,,,
,,,,,,,,,,,,,,,,,,,,,,610050d80bac4fad975bb0bc,001,2021-08-01_13h27.46.922,arrow_simon_norep,2021.1.2,MacIntel,59.99880002,,,,,,,,,,,o,2.4812,16,0,16,0,1,,,,,,,,,,,,,,,,,,,,,
,,,,,,,,,,,,,,,,,,,,,,610050d80bac4fad975bb0bc,001,2021-08-01_13h27.46.922,arrow_simon_norep,2021.1.2,MacIntel,59.99880002,,,,,,,,,,,o,2.4665,17,0,17,0,1,,,,,,,,,,,,,,,,,,,,,
,,,,,,,,,,,,,,,,,,,,,,610050d80bac4fad975bb0bc,001,2021-08-01_13h27.46.922,arrow_simon_norep,2021.1.2,MacIntel,59.99880002,,,,,,,,,,,o,2.4651,18,0,18,0,1,,,,,,,,,,,,,,,,,,,,,
,,,,,,,,,,,,,,,,,,,,,,610050d80bac4fad975bb0bc,001,2021-08-01_13h27.46.922,arrow_simon_norep,2021.1.2,MacIntel,59.99880002,,,,,,,,,,,o,2.3872,19,0,19,0,1,,,,,,,,,,,,,,,,,,,,,
,,,,,,,,,,,,,,,,,,,,,,610050d80bac4fad975bb0bc,001,2021-08-01_13h27.46.922,arrow_simon_norep,2021.1.2,MacIntel,59.99880002,,,,,,,,,,,o,2.5359,20,0,20,0,1,,,,,,,,,,,,,,,,,,,,,
,,,,,,,,,,,,,,,,,,,,,,610050d80bac4fad975bb0bc,001,2021-08-01_13h27.46.922,arrow_simon_norep,2021.1.2,MacIntel,59.99880002,,,,,,,,,,,o,2.6345,21,0,21,0,1,,,,,,,,,,,,,,,,,,,,,
,,,,,,,,,,,,,,,,,,,,,,610050d80bac4fad975bb0bc,001,2021-08-01_13h27.46.922,arrow_simon_norep,2021.1.2,MacIntel,59.99880002,,,,,,,,,,,o,2.6146,22,0,22,0,1,,,,,,,,,,,,,,,,,,,,,
,,,,,,,,,,,,,,,,,,,,,,610050d80bac4fad975bb0bc,001,2021-08-01_13h27.46.922,arrow_simon_norep,2021.1.2,MacIntel,59.99880002,,,,,,,,,,,o,2.2022,23,0,23,0,1,,,,,,,,,,,,,,,,,,,,,
,,,,,,,,,,,,,,,,,,,,,,610050d80bac4fad975bb0bc,001,2021-08-01_13h27.46.922,arrow_simon_norep,2021.1.2,MacIntel,59.99880002,,,,,,,,,,,o,2.4731,24,0,24,0,1,,,,,,,,,,,,,,,,,,,,,
,,,,,,,,,,,,,,,,,,,,,,610050d80bac4fad975bb0bc,001,2021-08-01_13h27.46.922,arrow_simon_norep,2021.1.2,MacIntel,59.99880002,,,,,,,,,,,o,2.5482,25,0,25,0,1,,,,,,,,,,,,,,,,,,,,,
,,,,,,,,,,,,,,,,,,,,,,610050d80bac4fad975bb0bc,001,2021-08-01_13h27.46.922,arrow_simon_norep,2021.1.2,MacIntel,59.99880002,,,,,,,,,,,o,2.5965,26,0,26,0,1,,,,,,,,,,,,,,,,,,,,,
,,,,,,,,,,,,,,,,,,,,,,610050d80bac4fad975bb0bc,001,2021-08-01_13h27.46.922,arrow_simon_norep,2021.1.2,MacIntel,59.99880002,,,,,,,,,,,o,2.6653,27,0,27,0,1,,,,,,,,,,,,,,,,,,,,,
,,,,,,,,,,,,,,,,,,,,,,610050d80bac4fad975bb0bc,001,2021-08-01_13h27.46.922,arrow_simon_norep,2021.1.2,MacIntel,59.99880002,,,,,,,,,,,o,2.6797,28,0,28,0,1,,,,,,,,,,,,,,,,,,,,,
,,,,,,,,,,,,,,,,,,,,,,610050d80bac4fad975bb0bc,001,2021-08-01_13h27.46.922,arrow_simon_norep,2021.1.2,MacIntel,59.99880002,,,,,,,,,,,o,2.0304,29,0,29,0,1,,,,,,,,,,,,,,,,,,,,,
,,,,,,,,,,,,,,,,,,,,,,610050d80bac4fad975bb0bc,001,2021-08-01_13h27.46.922,arrow_simon_norep,2021.1.2,MacIntel,59.99880002,,,,,,,,,,,o,2.9328,30,0,30,0,1,,,,,,,,,,,,,,,,,,,,,
,,,,,,,,,,,,,,,,,,,,,,610050d80bac4fad975bb0bc,001,2021-08-01_13h27.46.922,arrow_simon_norep,2021.1.2,MacIntel,59.99880002,,,,,,,,,,,o,2.3329,31,0,31,0,1,,,,,,,,,,,,,,,,,,,,,
,,,,,,,,,,,,,,,,,,,,,,610050d80bac4fad975bb0bc,001,2021-08-01_13h27.46.922,arrow_simon_norep,2021.1.2,MacIntel,59.99880002,,,,,,,,,,,o,2.5146,32,0,32,0,1,,,,,,,,,,,,,,,,,,,,,
,,,,,,,,,,,,,,,,,,,,,,610050d80bac4fad975bb0bc,001,2021-08-01_13h27.46.922,arrow_simon_norep,2021.1.2,MacIntel,59.99880002,,,,,,,,,,,o,2.4312,33,0,33,0,1,,,,,,,,,,,,,,,,,,,,,
,,,,,,,,,,,,,,,,,,,,,,610050d80bac4fad975bb0bc,001,2021-08-01_13h27.46.922,arrow_simon_norep,2021.1.2,MacIntel,59.99880002,,,,,,,,,,,o,2.352,34,0,34,0,1,,,,,,,,,,,,,,,,,,,,,
,,,,,,,,,,,,,,,,,,,,,,610050d80bac4fad975bb0bc,001,2021-08-01_13h27.46.922,arrow_simon_norep,2021.1.2,MacIntel,59.99880002,,,,,,,,,,,o,2.3685,35,0,35,0,1,,,,,,,,,,,,,,,,,,,,,
,,,,,,,,,,,,,,,,,,,,,,610050d80bac4fad975bb0bc,001,2021-08-01_13h27.46.922,arrow_simon_norep,2021.1.2,MacIntel,59.99880002,,,,,,,,,,,o,2.5663,36,0,36,0,1,,,,,,,,,,,,,,,,,,,,,
,,,,,,,,,,,,,,,,,,,,,,610050d80bac4fad975bb0bc,001,2021-08-01_13h27.46.922,arrow_simon_norep,2021.1.2,MacIntel,59.99880002,,,,,,,,,,,o,2.3843,37,0,37,0,1,,,,,,,,,,,,,,,,,,,,,
,,,,,,,,,,,,,,,,,,,,,,610050d80bac4fad975bb0bc,001,2021-08-01_13h27.46.922,arrow_simon_norep,2021.1.2,MacIntel,59.99880002,,,,,,,,,,,o,1.8521,38,0,38,0,1,,,,,,,,,,,,,,,,,,,,,
,,,,,,,,,,,,,,,,,,,,,,610050d80bac4fad975bb0bc,001,2021-08-01_13h27.46.922,arrow_simon_norep,2021.1.2,MacIntel,59.99880002,,,,,,,,,,,q,0.3998,39,0,39,0,1,,,,,,,,,,,,,,,,,,,,,
,,,,,,,,,,,,,,,,,,,,,,610050d80bac4fad975bb0bc,001,2021-08-01_13h27.46.922,arrow_simon_norep,2021.1.2,MacIntel,59.99880002,,,,,,,,,,,q,2.1072,40,0,40,0,1,,,,,,,,,,,,,,,,,,,,,
,,,,,,,,,,,,,,,,,,,,,,610050d80bac4fad975bb0bc,001,2021-08-01_13h27.46.922,arrow_simon_norep,2021.1.2,MacIntel,59.99880002,,,,,,,,,,,q,2.4268,41,0,41,0,1,,,,,,,,,,,,,,,,,,,,,
,,,,,,,,,,,,,,,,,,,,,,610050d80bac4fad975bb0bc,001,2021-08-01_13h27.46.922,arrow_simon_norep,2021.1.2,MacIntel,59.99880002,,,,,,,,,,,q,2.6548,42,0,42,0,1,,,,,,,,,,,,,,,,,,,,,
,,,,,,,,,,,,,,,,,,,,,,610050d80bac4fad975bb0bc,001,2021-08-01_13h27.46.922,arrow_simon_norep,2021.1.2,MacIntel,59.99880002,,,,,,,,,,,q,2.7515,43,0,43,0,1,,,,,,,,,,,,,,,,,,,,,
,,,,,,,,,,,,,,,,,,,,,,610050d80bac4fad975bb0bc,001,2021-08-01_13h27.46.922,arrow_simon_norep,2021.1.2,MacIntel,59.99880002,,,,,,,,,,,o,2.1528,44,0,44,0,1,,,,,,,,,,,,,,,,,,,,,
,,,,,,,,,,,,,,,,,,,,,,610050d80bac4fad975bb0bc,001,2021-08-01_13h27.46.922,arrow_simon_norep,2021.1.2,MacIntel,59.99880002,,,,,,,,,,,o,2.4504,45,0,45,0,1,,,,,,,,,,,,,,,,,,,,,
,,,,,,,,,,,,,,,,,,,,,,610050d80bac4fad975bb0bc,001,2021-08-01_13h27.46.922,arrow_simon_norep,2021.1.2,MacIntel,59.99880002,,,,,,,,,,,o,2.9055,46,0,46,0,1,,,,,,,,,,,,,,,,,,,,,
,,,,,,,,,,,,,,,,,,,,,,610050d80bac4fad975bb0bc,001,2021-08-01_13h27.46.922,arrow_simon_norep,2021.1.2,MacIntel,59.99880002,,,,,,,,,,,o,2.8972,47,0,47,0,1,,,,,,,,,,,,,,,,,,,,,
,,,,,,,,,,,,,,,,,,,,,,610050d80bac4fad975bb0bc,001,2021-08-01_13h27.46.922,arrow_simon_norep,2021.1.2,MacIntel,59.99880002,,,,,,,,,,,o,3.2287,48,0,48,0,1,,,,,,,,,,,,,,,,,,,,,
,,,,,,,,,,,,,,,,,,,,,,610050d80bac4fad975bb0bc,001,2021-08-01_13h27.46.922,arrow_simon_norep,2021.1.2,MacIntel,59.99880002,,,,,,,,,,,o,2.3234,49,0,49,0,1,,,,,,,,,,,,,,,,,,,,,
,,,,,,,,,,,,,,,,,,,,,,610050d80bac4fad975bb0bc,001,2021-08-01_13h27.46.922,arrow_simon_norep,2021.1.2,MacIntel,59.99880002,,,,,,,,,,,o,2.3819,50,0,50,0,1,,,,,,,,,,,,,,,,,,,,,
,,,,,,,,,,,,,,,,,,,,,,610050d80bac4fad975bb0bc,001,2021-08-01_13h27.46.922,arrow_simon_norep,2021.1.2,MacIntel,59.99880002,,,,,,,,,,,o,2.7485,51,0,51,0,1,,,,,,,,,,,,,,,,,,,,,
,,,,,,,,,,,,,,,,,,,,,,610050d80bac4fad975bb0bc,001,2021-08-01_13h27.46.922,arrow_simon_norep,2021.1.2,MacIntel,59.99880002,,,,,,,,,,,o,2.3329,52,0,52,0,1,,,,,,,,,,,,,,,,,,,,,
,,,,,,,,,,,,,,,,,,,,,,610050d80bac4fad975bb0bc,001,2021-08-01_13h27.46.922,arrow_simon_norep,2021.1.2,MacIntel,59.99880002,,,,,,,,,,,o,2.7857,53,0,53,0,1,,,,,,,,,,,,,,,,,,,,,
,,,,,,,,,,,,,,,,,,,,,,610050d80bac4fad975bb0bc,001,2021-08-01_13h27.46.922,arrow_simon_norep,2021.1.2,MacIntel,59.99880002,,,,,,,,,,,o,2.691,54,0,54,0,1,,,,,,,,,,,,,,,,,,,,,
,,,,,,,,,,,,,,,,,,,,,,610050d80bac4fad975bb0bc,001,2021-08-01_13h27.46.922,arrow_simon_norep,2021.1.2,MacIntel,59.99880002,,,,,,,,,,,o,2.552,55,0,55,0,1,,,,,,,,,,,,,,,,,,,,,
,,,,,,,,,,,,,,,,,,,,,,610050d80bac4fad975bb0bc,001,2021-08-01_13h27.46.922,arrow_simon_norep,2021.1.2,MacIntel,59.99880002,,,,,,,,,,,o,2.7696,56,0,56,0,1,,,,,,,,,,,,,,,,,,,,,
,,,,,,,,,,,,,,,,,,,,,,610050d80bac4fad975bb0bc,001,2021-08-01_13h27.46.922,arrow_simon_norep,2021.1.2,MacIntel,59.99880002,,,,,,,,,,,o,2.2501,57,0,57,0,1,,,,,,,,,,,,,,,,,,,,,
,,,,,,,,,,,,,,,,,,,,,,610050d80bac4fad975bb0bc,001,2021-08-01_13h27.46.922,arrow_simon_norep,2021.1.2,MacIntel,59.99880002,,,,,,,,,,,o,2.6165,58,0,58,0,1,,,,,,,,,,,,,,,,,,,,,
,,,,,,,,,,,,,,,,,,,,,,610050d80bac4fad975bb0bc,001,2021-08-01_13h27.46.922,arrow_simon_norep,2021.1.2,MacIntel,59.99880002,,,,,,,,,,,o,2.2152,59,0,59,0,1,,,,,,,,,,,,,,,,,,,,,
,,,,,,1,1.896529549,#a3d0fb,,left_blue.png,w,,,,,,w,left_blue.png,left_orange.png,q,right,610050d80bac4fad975bb0bc,001,2021-08-01_13h27.46.922,arrow_simon_norep,2021.1.2,MacIntel,59.99880002,,,,,,,,,,,,,,,,,,space,0,124.9147,o,0,0.4415,1,FALSE,TRUE,0,0,0,3,1,,,,,,,
,,,,,,1,2.47600442,#f3af84,,right_orange.png,p,,,,,,o,right_blue.png,right_orange.png,p,left,610050d80bac4fad975bb0bc,001,2021-08-01_13h27.46.922,arrow_simon_norep,2021.1.2,MacIntel,59.99880002,,,,,,,,,,,,,,,,,,,,,p,1,0.0768,2,FALSE,TRUE,0,1,1,0,1,,,,,,,
,,,,,,1,2.146507445,#a3d0fb,,left_blue.png,w,,,,,,w,left_blue.png,left_orange.png,q,left,610050d80bac4fad975bb0bc,001,2021-08-01_13h27.46.922,arrow_simon_norep,2021.1.2,MacIntel,59.99880002,,,,,,,,,,,,,,,,,,,,,p,0,1.7378,3,TRUE,FALSE,0,2,2,2,1,,,,,,,
,,,,,,1,1.992290712,#f3af84,,left_orange.png,q,,,,,,w,left_blue.png,left_orange.png,q,left,610050d80bac4fad975bb0bc,001,2021-08-01_13h27.46.922,arrow_simon_norep,2021.1.2,MacIntel,59.99880002,,,,,,,,,,,,,,,,,,,,,w,0,1.4198,4,FALSE,FALSE,0,3,3,2,1,,,,,,,
,,,,,,1,2.156063077,#a3d0fb,,left_blue.png,w,,,,,,w,left_blue.png,left_orange.png,q,right,610050d80bac4fad975bb0bc,001,2021-08-01_13h27.46.922,arrow_simon_norep,2021.1.2,MacIntel,59.99880002,,,,,,,,,,,,,,,,,,,,,p,0,1.1173,5,FALSE,TRUE,1,0,4,3,1,,,,,,,
,,,,,,1,1.545643888,#f3af84,,right_orange.png,p,,,,,,o,right_blue.png,right_orange.png,p,right,610050d80bac4fad975bb0bc,001,2021-08-01_13h27.46.922,arrow_simon_norep,2021.1.2,MacIntel,59.99880002,,,,,,,,,,,,,,,,,,,,,o,0,1.6139,6,TRUE,FALSE,1,1,5,1,1,,,,,,,
,,,,,,1,2.150847924,#a3d0fb,,left_blue.png,w,,,,,,w,left_blue.png,left_orange.png,q,right,610050d80bac4fad975bb0bc,001,2021-08-01_13h27.46.922,arrow_simon_norep,2021.1.2,MacIntel,59.99880002,,,,,,,,,,,,,,,,,,,,,p,0,1.6091,7,TRUE,FALSE,1,2,6,3,1,,,,,,,
,,,,,,1,1.627102829,#f3af84,,right_orange.png,p,,,,,,o,right_blue.png,right_orange.png,p,right,610050d80bac4fad975bb0bc,001,2021-08-01_13h27.46.922,arrow_simon_norep,2021.1.2,MacIntel,59.99880002,,,,,,,,,,,,,,,,,,,,,o,0,1.0612,8,FALSE,TRUE,1,3,7,1,1,,,,,,,
,,,,,,1,2.417365972,#a3d0fb,,right_blue.png,o,,,,,,o,right_blue.png,right_orange.png,p,left,610050d80bac4fad975bb0bc,001,2021-08-01_13h27.46.922,arrow_simon_norep,2021.1.2,MacIntel,59.99880002,,,,,,,,,,,,,,,,,,,,,p,0,1.685,9,TRUE,FALSE,2,0,8,0,1,,,,,,,
,,,,,,1,1.855529016,#f3af84,,right_orange.png,p,,,,,,o,right_blue.png,right_orange.png,p,left,610050d80bac4fad975bb0bc,001,2021-08-01_13h27.46.922,arrow_simon_norep,2021.1.2,MacIntel,59.99880002,,,,,,,,,,,,,,,,,,,,,w,0,1.2364,10,FALSE,TRUE,2,1,9,0,1,,,,,,,
,,,,,,1,1.755342574,#a3d0fb,,right_blue.png,o,,,,,,o,right_blue.png,right_orange.png,p,left,610050d80bac4fad975bb0bc,001,2021-08-01_13h27.46.922,arrow_simon_norep,2021.1.2,MacIntel,59.99880002,,,,,,,,,,,,,,,,,,,,,p,0,1.0284,11,FALSE,TRUE,2,2,10,0,1,,,,,,,
,,,,,,1,2.125893123,#f3af84,,left_orange.png,q,,,,,,w,left_blue.png,left_orange.png,q,left,610050d80bac4fad975bb0bc,001,2021-08-01_13h27.46.922,arrow_simon_norep,2021.1.2,MacIntel,59.99880002,,,,,,,,,,,,,,,,,,,,,o,0,0.8871,12,FALSE,TRUE,2,3,11,2,1,,,,,,,
,,,,,,1,1.753250181,#a3d0fb,,right_blue.png,o,,,,,,o,right_blue.png,right_orange.png,p,right,610050d80bac4fad975bb0bc,001,2021-08-01_13h27.46.922,arrow_simon_norep,2021.1.2,MacIntel,59.99880002,,,,,,,,,,,,,,,,,,,,,p,0,1.1014,13,FALSE,TRUE,3,0,12,1,1,,,,,,,
,,,,,,1,1.841251778,#f3af84,,left_orange.png,q,,,,,,w,left_blue.png,left_orange.png,q,left,610050d80bac4fad975bb0bc,001,2021-08-01_13h27.46.922,arrow_simon_norep,2021.1.2,MacIntel,59.99880002,,,,,,,,,,,,,,,,,,,,,w,0,1.1396,14,FALSE,TRUE,3,1,13,2,1,,,,,,,
,,,,,,1,1.782690742,#a3d0fb,,left_blue.png,w,,,,,,w,left_blue.png,left_orange.png,q,left,610050d80bac4fad975bb0bc,001,2021-08-01_13h27.46.922,arrow_simon_norep,2021.1.2,MacIntel,59.99880002,,,,,,,,,,,,,,,,,,,,,o,0,1.1229,15,FALSE,TRUE,3,2,14,2,1,,,,,,,
,,,,,,1,1.507459395,#f3af84,,right_orange.png,p,,,,,,o,right_blue.png,right_orange.png,p,right,610050d80bac4fad975bb0bc,001,2021-08-01_13h27.46.922,arrow_simon_norep,2021.1.2,MacIntel,59.99880002,,,,,,,,,,,,,,,,,,,,,w,0,0.7994,16,FALSE,TRUE,3,3,15,1,1,,,,,,,
,,,,,,1,1.874130961,#a3d0fb,,left_blue.png,w,,,,,,w,left_blue.png,left_orange.png,q,left,610050d80bac4fad975bb0bc,001,2021-08-01_13h27.46.922,arrow_simon_norep,2021.1.2,MacIntel,59.99880002,,,,,,,,,,,,,,,,,,,,,w,1,1.1849,17,FALSE,TRUE,4,0,16,2,1,,,,,,,
,,,,,,1,1.981175209,#f3af84,,left_orange.png,q,,,,,,w,left_blue.png,left_orange.png,q,right,610050d80bac4fad975bb0bc,001,2021-08-01_13h27.46.922,arrow_simon_norep,2021.1.2,MacIntel,59.99880002,,,,,,,,,,,,,,,,,,,,,o,0,1.0572,18,FALSE,TRUE,4,1,17,3,1,,,,,,,
,,,,,,1,2.009490856,#a3d0fb,,left_blue.png,w,,,,,,w,left_blue.png,left_orange.png,q,right,610050d80bac4fad975bb0bc,001,2021-08-01_13h27.46.922,arrow_simon_norep,2021.1.2,MacIntel,59.99880002,,,,,,,,,,,,,,,,,,,,,w,1,1.0527,19,FALSE,TRUE,4,2,18,3,1,,,,,,,
,,,,,,1,2.417181535,#f3af84,,left_orange.png,q,,,,,,w,left_blue.png,left_orange.png,q,left,610050d80bac4fad975bb0bc,001,2021-08-01_13h27.46.922,arrow_simon_norep,2021.1.2,MacIntel,59.99880002,,,,,,,,,,,,,,,,,,,,,w,0,0.4905,20,FALSE,TRUE,4,3,19,2,1,,,,,,,
,,,,,,1,1.53592203,#a3d0fb,,right_blue.png,o,,,,,,o,right_blue.png,right_orange.png,p,left,610050d80bac4fad975bb0bc,001,2021-08-01_13h27.46.922,arrow_simon_norep,2021.1.2,MacIntel,59.99880002,,,,,,,,,,,,,,,,,,,,,p,0,0.3415,21,FALSE,TRUE,5,0,20,0,1,,,,,,,
,,,,,,1,2.382148613,#f3af84,,left_orange.png,q,,,,,,w,left_blue.png,left_orange.png,q,right,610050d80bac4fad975bb0bc,001,2021-08-01_13h27.46.922,arrow_simon_norep,2021.1.2,MacIntel,59.99880002,,,,,,,,,,,,,,,,,,,,,q,1,0.3686,22,FALSE,TRUE,5,1,21,3,1,,,,,,,
,,,,,,1,1.628420315,#a3d0fb,,left_blue.png,w,,,,,,w,left_blue.png,left_orange.png,q,right,610050d80bac4fad975bb0bc,001,2021-08-01_13h27.46.922,arrow_simon_norep,2021.1.2,MacIntel,59.99880002,,,,,,,,,,,,,,,,,,,,,p,0,0.2064,23,FALSE,TRUE,5,2,22,3,1,,,,,,,
,,,,,,1,1.988380879,#f3af84,,left_orange.png,q,,,,,,w,left_blue.png,left_orange.png,q,right,610050d80bac4fad975bb0bc,001,2021-08-01_13h27.46.922,arrow_simon_norep,2021.1.2,MacIntel,59.99880002,,,,,,,,,,,,,,,,,,,,,w,0,0.5024,24,FALSE,TRUE,5,3,23,3,1,,,,,,,
,,,,,,1,1.738992881,#a3d0fb,,right_blue.png,o,,,,,,o,right_blue.png,right_orange.png,p,left,610050d80bac4fad975bb0bc,001,2021-08-01_13h27.46.922,arrow_simon_norep,2021.1.2,MacIntel,59.99880002,,,,,,,,,,,,,,,,,,,,,p,0,0.4377,25,FALSE,TRUE,6,0,24,0,1,,,,,,,
,,,,,,1,2.009566145,#f3af84,,right_orange.png,p,,,,,,o,right_blue.png,right_orange.png,p,right,610050d80bac4fad975bb0bc,001,2021-08-01_13h27.46.922,arrow_simon_norep,2021.1.2,MacIntel,59.99880002,,,,,,,,,,,,,,,,,,,,,w,0,0.4901,26,FALSE,TRUE,6,1,25,1,1,,,,,,,
,,,,,,1,1.593778871,#a3d0fb,,left_blue.png,w,,,,,,w,left_blue.png,left_orange.png,q,left,610050d80bac4fad975bb0bc,001,2021-08-01_13h27.46.922,arrow_simon_norep,2021.1.2,MacIntel,59.99880002,,,,,,,,,,,,,,,,,,,,,p,0,1.2221,27,FALSE,TRUE,6,2,26,2,1,,,,,,,
,,,,,,1,2.104886289,#f3af84,,right_orange.png,p,,,,,,o,right_blue.png,right_orange.png,p,left,610050d80bac4fad975bb0bc,001,2021-08-01_13h27.46.922,arrow_simon_norep,2021.1.2,MacIntel,59.99880002,,,,,,,,,,,,,,,,,,,,,o,0,1.4504,28,FALSE,FALSE,6,3,27,0,1,,,,,,,
,,,,,,1,1.876315975,#a3d0fb,,right_blue.png,o,,,,,,o,right_blue.png,right_orange.png,p,right,610050d80bac4fad975bb0bc,001,2021-08-01_13h27.46.922,arrow_simon_norep,2021.1.2,MacIntel,59.99880002,,,,,,,,,,,,,,,,,,,,,p,0,1.485,29,FALSE,FALSE,7,0,28,1,1,,,,,,,
,,,,,,1,2.305453391,#f3af84,,right_orange.png,p,,,,,,o,right_blue.png,right_orange.png,p,left,610050d80bac4fad975bb0bc,001,2021-08-01_13h27.46.922,arrow_simon_norep,2021.1.2,MacIntel,59.99880002,,,,,,,,,,,,,,,,,,,,,w,0,0.0008,30,FALSE,TRUE,7,1,29,0,1,,,,,,,
,,,,,,1,1.776867826,#a3d0fb,,right_blue.png,o,,,,,,o,right_blue.png,right_orange.png,p,left,610050d80bac4fad975bb0bc,001,2021-08-01_13h27.46.922,arrow_simon_norep,2021.1.2,MacIntel,59.99880002,,,,,,,,,,,,,,,,,,,,,p,0,0.8562,31,FALSE,TRUE,7,2,30,0,1,,,,,,,
,,,,,,1,1.911796859,#f3af84,,right_orange.png,p,,,,,,o,right_blue.png,right_orange.png,p,right,610050d80bac4fad975bb0bc,001,2021-08-01_13h27.46.922,arrow_simon_norep,2021.1.2,MacIntel,59.99880002,,,,,,,,,,,,,,,,,,,,,o,0,0.5506,32,FALSE,TRUE,7,3,31,1,1,,,,,,,
,,,,,,1,1.638948755,#a3d0fb,,left_blue.png,w,,,,,,w,left_blue.png,left_orange.png,q,right,610050d80bac4fad975bb0bc,001,2021-08-01_13h27.46.922,arrow_simon_norep,2021.1.2,MacIntel,59.99880002,,,,,,,,,,,,,,,,,,,,,p,0,0.1181,33,FALSE,TRUE,8,0,32,3,1,,,,,,,
,,,,,,1,1.550802465,#f3af84,,right_orange.png,p,,,,,,o,right_blue.png,right_orange.png,p,right,610050d80bac4fad975bb0bc,001,2021-08-01_13h27.46.922,arrow_simon_norep,2021.1.2,MacIntel,59.99880002,,,,,,,,,,,,,,,,,,,,,p,1,0.1336,34,FALSE,TRUE,8,1,33,1,1,,,,,,,
,,,,,,1,2.355074772,#a3d0fb,,left_blue.png,w,,,,,,w,left_blue.png,left_orange.png,q,right,610050d80bac4fad975bb0bc,001,2021-08-01_13h27.46.922,arrow_simon_norep,2021.1.2,MacIntel,59.99880002,,,,,,,,,,,,,,,,,,,,,q,0,0.0043,35,FALSE,TRUE,8,2,34,3,1,,,,,,,
,,,,,,1,2.181744297,#f3af84,,right_orange.png,p,,,,,,o,right_blue.png,right_orange.png,p,left,610050d80bac4fad975bb0bc,001,2021-08-01_13h27.46.922,arrow_simon_norep,2021.1.2,MacIntel,59.99880002,,,,,,,,,,,,,,,,,,,,,q,0,1.052,36,FALSE,TRUE,8,3,35,0,1,,,,,,,
,,,,,,1,2.378637585,#a3d0fb,,right_blue.png,o,,,,,,o,right_blue.png,right_orange.png,p,right,610050d80bac4fad975bb0bc,001,2021-08-01_13h27.46.922,arrow_simon_norep,2021.1.2,MacIntel,59.99880002,,,,,,,,,,,,,,,,,,,,,p,0,1.7566,37,TRUE,FALSE,9,0,36,1,1,,,,,,,
,,,,,,1,1.715172885,#f3af84,,left_orange.png,q,,,,,,w,left_blue.png,left_orange.png,q,right,610050d80bac4fad975bb0bc,001,2021-08-01_13h27.46.922,arrow_simon_norep,2021.1.2,MacIntel,59.99880002,,,,,,,,,,,,,,,,,,,,,w,0,1.9185,38,TRUE,FALSE,9,1,37,3,1,,,,,,,
,,,,,,1,2.268376867,#a3d0fb,,right_blue.png,o,,,,,,o,right_blue.png,right_orange.png,p,right,610050d80bac4fad975bb0bc,001,2021-08-01_13h27.46.922,arrow_simon_norep,2021.1.2,MacIntel,59.99880002,,,,,,,,,,,,,,,,,,,,,o,1,0.9832,39,FALSE,TRUE,9,2,38,1,1,,,,,,,
,,,,,,1,2.384911527,#f3af84,,left_orange.png,q,,,,,,w,left_blue.png,left_orange.png,q,left,610050d80bac4fad975bb0bc,001,2021-08-01_13h27.46.922,arrow_simon_norep,2021.1.2,MacIntel,59.99880002,,,,,,,,,,,,,,,,,,,,,w,0,1.2751,40,FALSE,TRUE,9,3,39,2,1,,,,,,,
,,,,,,1,1.623747925,#a3d0fb,,right_blue.png,o,,,,,,o,right_blue.png,right_orange.png,p,left,610050d80bac4fad975bb0bc,001,2021-08-01_13h27.46.922,arrow_simon_norep,2021.1.2,MacIntel,59.99880002,,,,,,,,,,,,,,,,,,,,,p,0,1.1716,41,FALSE,TRUE,10,0,40,0,1,,,,,,,
,,,,,,1,2.262171445,#f3af84,,left_orange.png,q,,,,,,w,left_blue.png,left_orange.png,q,left,610050d80bac4fad975bb0bc,001,2021-08-01_13h27.46.922,arrow_simon_norep,2021.1.2,MacIntel,59.99880002,,,,,,,,,,,,,,,,,,,,,o,0,0.8853,42,FALSE,TRUE,10,1,41,2,1,,,,,,,
,,,,,,1,2.074035745,#a3d0fb,,left_blue.png,w,,,,,,w,left_blue.png,left_orange.png,q,right,610050d80bac4fad975bb0bc,001,2021-08-01_13h27.46.922,arrow_simon_norep,2021.1.2,MacIntel,59.99880002,,,,,,,,,,,,,,,,,,,,,q,0,1.1691,43,FALSE,TRUE,10,2,42,3,1,,,,,,,
,,,,,,1,1.839125413,#f3af84,,left_orange.png,q,,,,,,w,left_blue.png,left_orange.png,q,right,610050d80bac4fad975bb0bc,001,2021-08-01_13h27.46.922,arrow_simon_norep,2021.1.2,MacIntel,59.99880002,,,,,,,,,,,,,,,,,,,,,o,0,0.2687,44,FALSE,TRUE,10,3,43,3,1,,,,,,,
,,,,,,1,1.507986682,#a3d0fb,,right_blue.png,o,,,,,,o,right_blue.png,right_orange.png,p,right,610050d80bac4fad975bb0bc,001,2021-08-01_13h27.46.922,arrow_simon_norep,2021.1.2,MacIntel,59.99880002,,,,,,,,,,,,,,,,,,,,,w,0,0.6109,45,FALSE,TRUE,11,0,44,1,1,,,,,,,
,,,,,,1,2.280048006,#f3af84,,right_orange.png,p,,,,,,o,right_blue.png,right_orange.png,p,left,610050d80bac4fad975bb0bc,001,2021-08-01_13h27.46.922,arrow_simon_norep,2021.1.2,MacIntel,59.99880002,,,,,,,,,,,,,,,,,,,,,p,1,1.6869,46,TRUE,FALSE,11,1,45,0,1,,,,,,,
,,,,,,1,1.791380423,#a3d0fb,,left_blue.png,w,,,,,,w,left_blue.png,left_orange.png,q,right,610050d80bac4fad975bb0bc,001,2021-08-01_13h27.46.922,arrow_simon_norep,2021.1.2,MacIntel,59.99880002,,,,,,,,,,,,,,,,,,,,,w,1,1.0068,47,FALSE,TRUE,11,2,46,3,1,,,,,,,
,,,,,,1,2.437681517,#f3af84,,right_orange.png,p,,,,,,o,right_blue.png,right_orange.png,p,right,610050d80bac4fad975bb0bc,001,2021-08-01_13h27.46.922,arrow_simon_norep,2021.1.2,MacIntel,59.99880002,,,,,,,,,,,,,,,,,,,,,p,1,0.9704,48,FALSE,TRUE,11,3,47,1,1,,,,,,,
,,,,,,1,1.71415366,#a3d0fb,,right_blue.png,o,,,,,,o,right_blue.png,right_orange.png,p,right,610050d80bac4fad975bb0bc,001,2021-08-01_13h27.46.922,arrow_simon_norep,2021.1.2,MacIntel,59.99880002,,,,,,,,,,,,,,,,,,,,,w,0,0.7933,49,FALSE,TRUE,12,0,48,1,1,,,,,,,
,,,,,,1,1.706973709,#f3af84,,right_orange.png,p,,,,,,o,right_blue.png,right_orange.png,p,left,610050d80bac4fad975bb0bc,001,2021-08-01_13h27.46.922,arrow_simon_norep,2021.1.2,MacIntel,59.99880002,,,,,,,,,,,,,,,,,,,,,p,1,0.8217,50,FALSE,TRUE,12,1,49,0,1,,,,,,,
,,,,,,1,1.925100265,#a3d0fb,,left_blue.png,w,,,,,,w,left_blue.png,left_orange.png,q,right,610050d80bac4fad975bb0bc,001,2021-08-01_13h27.46.922,arrow_simon_norep,2021.1.2,MacIntel,59.99880002,,,,,,,,,,,,,,,,,,,,,o,0,0.6378,51,FALSE,TRUE,12,2,50,3,1,,,,,,,
,,,,,,1,1.696113865,#f3af84,,left_orange.png,q,,,,,,w,left_blue.png,left_orange.png,q,left,610050d80bac4fad975bb0bc,001,2021-08-01_13h27.46.922,arrow_simon_norep,2021.1.2,MacIntel,59.99880002,,,,,,,,,,,,,,,,,,,,,w,0,1.5832,52,FALSE,FALSE,12,3,51,2,1,,,,,,,
,,,,,,1,2.412633764,#a3d0fb,,left_blue.png,w,,,,,,w,left_blue.png,left_orange.png,q,left,610050d80bac4fad975bb0bc,001,2021-08-01_13h27.46.922,arrow_simon_norep,2021.1.2,MacIntel,59.99880002,,,,,,,,,,,,,,,,,,,,,p,0,0.9245,53,FALSE,TRUE,13,0,52,2,1,,,,,,,
,,,,,,1,2.470854241,#f3af84,,right_orange.png,p,,,,,,o,right_blue.png,right_orange.png,p,left,610050d80bac4fad975bb0bc,001,2021-08-01_13h27.46.922,arrow_simon_norep,2021.1.2,MacIntel,59.99880002,,,,,,,,,,,,,,,,,,,,,w,0,1.5536,54,FALSE,FALSE,13,1,53,0,1,,,,,,,
,,,,,,1,2.088923127,#a3d0fb,,left_blue.png,w,,,,,,w,left_blue.png,left_orange.png,q,left,610050d80bac4fad975bb0bc,001,2021-08-01_13h27.46.922,arrow_simon_norep,2021.1.2,MacIntel,59.99880002,,,,,,,,,,,,,,,,,,,,,p,0,1.2892,55,FALSE,TRUE,13,2,54,2,1,,,,,,,
,,,,,,1,2.201411338,#f3af84,,left_orange.png,q,,,,,,w,left_blue.png,left_orange.png,q,left,610050d80bac4fad975bb0bc,001,2021-08-01_13h27.46.922,arrow_simon_norep,2021.1.2,MacIntel,59.99880002,,,,,,,,,,,,,,,,,,,,,o,0,0.7005,56,FALSE,TRUE,13,3,55,2,1,,,,,,,
,,,,,,1,1.554580787,#a3d0fb,,right_blue.png,o,,,,,,o,right_blue.png,right_orange.png,p,right,610050d80bac4fad975bb0bc,001,2021-08-01_13h27.46.922,arrow_simon_norep,2021.1.2,MacIntel,59.99880002,,,,,,,,,,,,,,,,,,,,,p,0,1.5196,57,FALSE,FALSE,14,0,56,1,1,,,,,,,
,,,,,,1,2.090664201,#f3af84,,left_orange.png,q,,,,,,w,left_blue.png,left_orange.png,q,left,610050d80bac4fad975bb0bc,001,2021-08-01_13h27.46.922,arrow_simon_norep,2021.1.2,MacIntel,59.99880002,,,,,,,,,,,,,,,,,,,,,q,1,0.9006,58,FALSE,TRUE,14,1,57,2,1,,,,,,,
,,,,,,1,2.431531691,#a3d0fb,,right_blue.png,o,,,,,,o,right_blue.png,right_orange.png,p,right,610050d80bac4fad975bb0bc,001,2021-08-01_13h27.46.922,arrow_simon_norep,2021.1.2,MacIntel,59.99880002,,,,,,,,,,,,,,,,,,,,,p,0,1.4231,59,FALSE,FALSE,14,2,58,1,1,,,,,,,
,,,,,,1,1.548385288,#f3af84,,right_orange.png,p,,,,,,o,right_blue.png,right_orange.png,p,left,610050d80bac4fad975bb0bc,001,2021-08-01_13h27.46.922,arrow_simon_norep,2021.1.2,MacIntel,59.99880002,,,,,,,,,,,,,,,,,,,,,w,0,0.1013,60,FALSE,TRUE,14,3,59,0,1,,,,,,,
,,,,,,,,,,,,,,,,,,,,,,610050d80bac4fad975bb0bc,001,2021-08-01_13h27.46.922,arrow_simon_norep,2021.1.2,MacIntel,59.99880002,,,,,,,,,,,,,,,,,,,,,,,,,,,,,,,,space,272.4845,0,0,0,0,1
,,,,,,1,2.168735471,#a3d0fb,,right_blue.png,o,,,,,,o,right_blue.png,right_orange.png,p,left,610050d80bac4fad975bb0bc,001,2021-08-01_13h27.46.922,arrow_simon_norep,2021.1.2,MacIntel,59.99880002,,,,,,,,,,,,,,,,,,,,,p,0,1.2541,1,FALSE,TRUE,0,0,0,0,1,,,,,,,
,,,,,,1,1.930708645,#f3af84,,right_orange.png,p,,,,,,o,right_blue.png,right_orange.png,p,left,610050d80bac4fad975bb0bc,001,2021-08-01_13h27.46.922,arrow_simon_norep,2021.1.2,MacIntel,59.99880002,,,,,,,,,,,,,,,,,,,,,o,0,0.0545,2,FALSE,TRUE,0,1,1,0,1,,,,,,,
,,,,,,1,2.179510535,#a3d0fb,,left_blue.png,w,,,,,,w,left_blue.png,left_orange.png,q,left,610050d80bac4fad975bb0bc,001,2021-08-01_13h27.46.922,arrow_simon_norep,2021.1.2,MacIntel,59.99880002,,,,,,,,,,,,,,,,,,,,,p,0,1.1887,3,FALSE,TRUE,0,2,2,2,1,,,,,,,
,,,,,,1,2.217976302,#f3af84,,right_orange.png,p,,,,,,o,right_blue.png,right_orange.png,p,right,610050d80bac4fad975bb0bc,001,2021-08-01_13h27.46.922,arrow_simon_norep,2021.1.2,MacIntel,59.99880002,,,,,,,,,,,,,,,,,,,,,p,1,0.6199,4,FALSE,TRUE,0,3,3,1,1,,,,,,,
,,,,,,1,1.916808431,#a3d0fb,,right_blue.png,o,,,,,,o,right_blue.png,right_orange.png,p,right,610050d80bac4fad975bb0bc,001,2021-08-01_13h27.46.922,arrow_simon_norep,2021.1.2,MacIntel,59.99880002,,,,,,,,,,,,,,,,,,,,,o,1,1.2522,5,FALSE,TRUE,1,0,4,1,1,,,,,,,
,,,,,,1,2.431427989,#f3af84,,right_orange.png,p,,,,,,o,right_blue.png,right_orange.png,p,right,610050d80bac4fad975bb0bc,001,2021-08-01_13h27.46.922,arrow_simon_norep,2021.1.2,MacIntel,59.99880002,,,,,,,,,,,,,,,,,,,,,p,1,0.1706,6,FALSE,TRUE,1,1,5,1,1,,,,,,,
,,,,,,1,2.154048898,#a3d0fb,,right_blue.png,o,,,,,,o,right_blue.png,right_orange.png,p,left,610050d80bac4fad975bb0bc,001,2021-08-01_13h27.46.922,arrow_simon_norep,2021.1.2,MacIntel,59.99880002,,,,,,,,,,,,,,,,,,,,,o,1,0.7391,7,FALSE,TRUE,1,2,6,0,1,,,,,,,
,,,,,,1,1.866928202,#f3af84,,left_orange.png,q,,,,,,w,left_blue.png,left_orange.png,q,left,610050d80bac4fad975bb0bc,001,2021-08-01_13h27.46.922,arrow_simon_norep,2021.1.2,MacIntel,59.99880002,,,,,,,,,,,,,,,,,,,,,p,0,0.3528,8,FALSE,TRUE,1,3,7,2,1,,,,,,,
,,,,,,1,1.700572253,#a3d0fb,,right_blue.png,o,,,,,,o,right_blue.png,right_orange.png,p,left,610050d80bac4fad975bb0bc,001,2021-08-01_13h27.46.922,arrow_simon_norep,2021.1.2,MacIntel,59.99880002,,,,,,,,,,,,,,,,,,,,,p,0,0.7734,9,FALSE,TRUE,2,0,8,0,1,,,,,,,
,,,,,,1,2.250026655,#f3af84,,right_orange.png,p,,,,,,o,right_blue.png,right_orange.png,p,left,610050d80bac4fad975bb0bc,001,2021-08-01_13h27.46.922,arrow_simon_norep,2021.1.2,MacIntel,59.99880002,,,,,,,,,,,,,,,,,,,,,o,0,0.666,10,FALSE,TRUE,2,1,9,0,1,,,,,,,
,,,,,,1,2.436474799,#a3d0fb,,left_blue.png,w,,,,,,w,left_blue.png,left_orange.png,q,right,610050d80bac4fad975bb0bc,001,2021-08-01_13h27.46.922,arrow_simon_norep,2021.1.2,MacIntel,59.99880002,,,,,,,,,,,,,,,,,,,,,p,0,1.104,11,FALSE,TRUE,2,2,10,3,1,,,,,,,
,,,,,,1,1.544437489,#f3af84,,left_orange.png,q,,,,,,w,left_blue.png,left_orange.png,q,left,610050d80bac4fad975bb0bc,001,2021-08-01_13h27.46.922,arrow_simon_norep,2021.1.2,MacIntel,59.99880002,,,,,,,,,,,,,,,,,,,,,o,0,1.1208,12,FALSE,TRUE,2,3,11,2,1,,,,,,,
,,,,,,1,2.285099227,#a3d0fb,,right_blue.png,o,,,,,,o,right_blue.png,right_orange.png,p,left,610050d80bac4fad975bb0bc,001,2021-08-01_13h27.46.922,arrow_simon_norep,2021.1.2,MacIntel,59.99880002,,,,,,,,,,,,,,,,,,,,,p,0,1.5556,13,FALSE,FALSE,3,0,12,0,1,,,,,,,
,,,,,,1,2.487044858,#f3af84,,left_orange.png,q,,,,,,w,left_blue.png,left_orange.png,q,right,610050d80bac4fad975bb0bc,001,2021-08-01_13h27.46.922,arrow_simon_norep,2021.1.2,MacIntel,59.99880002,,,,,,,,,,,,,,,,,,,,,p,0,1.4036,14,FALSE,FALSE,3,1,13,3,1,,,,,,,
,,,,,,1,1.798804281,#a3d0fb,,left_blue.png,w,,,,,,w,left_blue.png,left_orange.png,q,right,610050d80bac4fad975bb0bc,001,2021-08-01_13h27.46.922,arrow_simon_norep,2021.1.2,MacIntel,59.99880002,,,,,,,,,,,,,,,,,,,,,o,0,1.4518,15,FALSE,FALSE,3,2,14,3,1,,,,,,,
,,,,,,0,2.126825217,#f3af84,,right_orange.png,p,,,,,,o,right_blue.png,right_orange.png,p,left,610050d80bac4fad975bb0bc,001,2021-08-01_13h27.46.922,arrow_simon_norep,2021.1.2,MacIntel,59.99880002,,,,,,,,,,,,,,,,,,,,,p,1,1.4722,16,FALSE,FALSE,3,3,15,0,1,,,,,,,
,,,,,,0,2.464512546,#a3d0fb,,left_blue.png,w,,,,,,w,left_blue.png,left_orange.png,q,right,610050d80bac4fad975bb0bc,001,2021-08-01_13h27.46.922,arrow_simon_norep,2021.1.2,MacIntel,59.99880002,,,,,,,,,,,,,,,,,,,,,o,0,2.1949,17,TRUE,FALSE,4,0,16,3,1,,,,,,,
,,,,,,0,1.908245991,#f3af84,,left_orange.png,q,,,,,,w,left_blue.png,left_orange.png,q,right,610050d80bac4fad975bb0bc,001,2021-08-01_13h27.46.922,arrow_simon_norep,2021.1.2,MacIntel,59.99880002,,,,,,,,,,,,,,,,,,,,,p,0,0.9741,18,FALSE,TRUE,4,1,17,3,1,,,,,,,
,,,,,,0,2.471386798,#a3d0fb,,right_blue.png,o,,,,,,o,right_blue.png,right_orange.png,p,left,610050d80bac4fad975bb0bc,001,2021-08-01_13h27.46.922,arrow_simon_norep,2021.1.2,MacIntel,59.99880002,,,,,,,,,,,,,,,,,,,,,o,1,0.9232,19,FALSE,TRUE,4,2,18,0,1,,,,,,,
,,,,,,0,1.885898885,#f3af84,,right_orange.png,p,,,,,,o,right_blue.png,right_orange.png,p,right,610050d80bac4fad975bb0bc,001,2021-08-01_13h27.46.922,arrow_simon_norep,2021.1.2,MacIntel,59.99880002,,,,,,,,,,,,,,,,,,,,,p,1,1.2501,20,FALSE,TRUE,4,3,19,1,1,,,,,,,
,,,,,,0,1.6745798,#a3d0fb,,right_blue.png,o,,,,,,o,right_blue.png,right_orange.png,p,right,610050d80bac4fad975bb0bc,001,2021-08-01_13h27.46.922,arrow_simon_norep,2021.1.2,MacIntel,59.99880002,,,,,,,,,,,,,,,,,,,,,o,1,2.883,21,TRUE,FALSE,5,0,20,1,1,,,,,,,
,,,,,,0,2.052028531,#f3af84,,left_orange.png,q,,,,,,w,left_blue.png,left_orange.png,q,right,610050d80bac4fad975bb0bc,001,2021-08-01_13h27.46.922,arrow_simon_norep,2021.1.2,MacIntel,59.99880002,,,,,,,,,,,,,,,,,,,,,p,0,1.8073,22,TRUE,FALSE,5,1,21,3,1,,,,,,,
,,,,,,0,2.03094235,#a3d0fb,,left_blue.png,w,,,,,,w,left_blue.png,left_orange.png,q,right,610050d80bac4fad975bb0bc,001,2021-08-01_13h27.46.922,arrow_simon_norep,2021.1.2,MacIntel,59.99880002,,,,,,,,,,,,,,,,,,,,,o,0,3.3541,23,TRUE,FALSE,5,2,22,3,1,,,,,,,
,,,,,,0,1.978911322,#f3af84,,left_orange.png,q,,,,,,w,left_blue.png,left_orange.png,q,left,610050d80bac4fad975bb0bc,001,2021-08-01_13h27.46.922,arrow_simon_norep,2021.1.2,MacIntel,59.99880002,,,,,,,,,,,,,,,,,,,,,p,0,2.0123,24,TRUE,FALSE,5,3,23,2,1,,,,,,,
,,,,,,0,1.519969037,#a3d0fb,,right_blue.png,o,,,,,,o,right_blue.png,right_orange.png,p,left,610050d80bac4fad975bb0bc,001,2021-08-01_13h27.46.922,arrow_simon_norep,2021.1.2,MacIntel,59.99880002,,,,,,,,,,,,,,,,,,,,,o,1,1.6365,25,TRUE,FALSE,6,0,24,0,1,,,,,,,
,,,,,,0,1.721725048,#f3af84,,right_orange.png,p,,,,,,o,right_blue.png,right_orange.png,p,right,610050d80bac4fad975bb0bc,001,2021-08-01_13h27.46.922,arrow_simon_norep,2021.1.2,MacIntel,59.99880002,,,,,,,,,,,,,,,,,,,,,p,1,1.7892,26,TRUE,FALSE,6,1,25,1,1,,,,,,,
,,,,,,1,1.768614522,#a3d0fb,,left_blue.png,w,,,,,,w,left_blue.png,left_orange.png,q,left,610050d80bac4fad975bb0bc,001,2021-08-01_13h27.46.922,arrow_simon_norep,2021.1.2,MacIntel,59.99880002,,,,,,,,,,,,,,,,,,,,,p,0,1.4426,27,FALSE,FALSE,6,2,26,2,1,,,,,,,
,,,,,,1,2.055380329,#f3af84,,right_orange.png,p,,,,,,o,right_blue.png,right_orange.png,p,right,610050d80bac4fad975bb0bc,001,2021-08-01_13h27.46.922,arrow_simon_norep,2021.1.2,MacIntel,59.99880002,,,,,,,,,,,,,,,,,,,,,o,0,1.2192,28,FALSE,TRUE,6,3,27,1,1,,,,,,,
,,,,,,1,2.062090824,#a3d0fb,,left_blue.png,w,,,,,,w,left_blue.png,left_orange.png,q,right,610050d80bac4fad975bb0bc,001,2021-08-01_13h27.46.922,arrow_simon_norep,2021.1.2,MacIntel,59.99880002,,,,,,,,,,,,,,,,,,,,,p,0,2.1334,29,TRUE,FALSE,7,0,28,3,1,,,,,,,
,,,,,,1,2.415595929,#f3af84,,left_orange.png,q,,,,,,w,left_blue.png,left_orange.png,q,left,610050d80bac4fad975bb0bc,001,2021-08-01_13h27.46.922,arrow_simon_norep,2021.1.2,MacIntel,59.99880002,,,,,,,,,,,,,,,,,,,,,o,0,1.2091,30,FALSE,TRUE,7,1,29,2,1,,,,,,,
,,,,,,1,2.160756685,#a3d0fb,,left_blue.png,w,,,,,,w,left_blue.png,left_orange.png,q,right,610050d80bac4fad975bb0bc,001,2021-08-01_13h27.46.922,arrow_simon_norep,2021.1.2,MacIntel,59.99880002,,,,,,,,,,,,,,,,,,,,,p,0,1.6779,31,TRUE,FALSE,7,2,30,3,1,,,,,,,
,,,,,,1,2.396013145,#f3af84,,left_orange.png,q,,,,,,w,left_blue.png,left_orange.png,q,left,610050d80bac4fad975bb0bc,001,2021-08-01_13h27.46.922,arrow_simon_norep,2021.1.2,MacIntel,59.99880002,,,,,,,,,,,,,,,,,,,,,p,0,2.4023,32,TRUE,FALSE,7,3,31,2,1,,,,,,,
,,,,,,1,1.790227321,#a3d0fb,,right_blue.png,o,,,,,,o,right_blue.png,right_orange.png,p,right,610050d80bac4fad975bb0bc,001,2021-08-01_13h27.46.922,arrow_simon_norep,2021.1.2,MacIntel,59.99880002,,,,,,,,,,,,,,,,,,,,,o,1,2.0692,33,TRUE,FALSE,8,0,32,1,1,,,,,,,
,,,,,,1,1.957713848,#f3af84,,right_orange.png,p,,,,,,o,right_blue.png,right_orange.png,p,left,610050d80bac4fad975bb0bc,001,2021-08-01_13h27.46.922,arrow_simon_norep,2021.1.2,MacIntel,59.99880002,,,,,,,,,,,,,,,,,,,,,o,0,3.0736,34,TRUE,FALSE,8,1,33,0,1,,,,,,,
,,,,,,1,1.797723334,#a3d0fb,,left_blue.png,w,,,,,,w,left_blue.png,left_orange.png,q,left,610050d80bac4fad975bb0bc,001,2021-08-01_13h27.46.922,arrow_simon_norep,2021.1.2,MacIntel,59.99880002,,,,,,,,,,,,,,,,,,,,,p,0,0.5688,35,FALSE,TRUE,8,2,34,2,1,,,,,,,
,,,,,,1,2.363409226,#f3af84,,left_orange.png,q,,,,,,w,left_blue.png,left_orange.png,q,right,610050d80bac4fad975bb0bc,001,2021-08-01_13h27.46.922,arrow_simon_norep,2021.1.2,MacIntel,59.99880002,,,,,,,,,,,,,,,,,,,,,o,0,2.8059,36,TRUE,FALSE,8,3,35,3,1,,,,,,,
,,,,,,1,1.548144807,#a3d0fb,,left_blue.png,w,,,,,,w,left_blue.png,left_orange.png,q,right,610050d80bac4fad975bb0bc,001,2021-08-01_13h27.46.922,arrow_simon_norep,2021.1.2,MacIntel,59.99880002,,,,,,,,,,,,,,,,,,,,,o,0,2.1882,37,TRUE,FALSE,9,0,36,3,1,,,,,,,
,,,,,,1,1.780775242,#f3af84,,left_orange.png,q,,,,,,w,left_blue.png,left_orange.png,q,left,610050d80bac4fad975bb0bc,001,2021-08-01_13h27.46.922,arrow_simon_norep,2021.1.2,MacIntel,59.99880002,,,,,,,,,,,,,,,,,,,,,p,0,0.9883,38,FALSE,TRUE,9,1,37,2,1,,,,,,,
,,,,,,1,2.260152,#a3d0fb,,right_blue.png,o,,,,,,o,right_blue.png,right_orange.png,p,left,610050d80bac4fad975bb0bc,001,2021-08-01_13h27.46.922,arrow_simon_norep,2021.1.2,MacIntel,59.99880002,,,,,,,,,,,,,,,,,,,,,o,1,0.5689,39,FALSE,TRUE,9,2,38,0,1,,,,,,,
,,,,,,1,2.03971924,#f3af84,,left_orange.png,q,,,,,,w,left_blue.png,left_orange.png,q,right,610050d80bac4fad975bb0bc,001,2021-08-01_13h27.46.922,arrow_simon_norep,2021.1.2,MacIntel,59.99880002,,,,,,,,,,,,,,,,,,,,,p,0,1.0164,40,FALSE,TRUE,9,3,39,3,1,,,,,,,
,,,,,,1,2.025566142,#a3d0fb,,left_blue.png,w,,,,,,w,left_blue.png,left_orange.png,q,right,610050d80bac4fad975bb0bc,001,2021-08-01_13h27.46.922,arrow_simon_norep,2021.1.2,MacIntel,59.99880002,,,,,,,,,,,,,,,,,,,,,o,0,4.0772,41,TRUE,FALSE,10,0,40,3,1,,,,,,,
,,,,,,1,2.453469281,#f3af84,,right_orange.png,p,,,,,,o,right_blue.png,right_orange.png,p,right,610050d80bac4fad975bb0bc,001,2021-08-01_13h27.46.922,arrow_simon_norep,2021.1.2,MacIntel,59.99880002,,,,,,,,,,,,,,,,,,,,,p,1,0.7349,42,FALSE,TRUE,10,1,41,1,1,,,,,,,
,,,,,,1,2.404627531,#a3d0fb,,left_blue.png,w,,,,,,w,left_blue.png,left_orange.png,q,right,610050d80bac4fad975bb0bc,001,2021-08-01_13h27.46.922,arrow_simon_norep,2021.1.2,MacIntel,59.99880002,,,,,,,,,,,,,,,,,,,,,o,0,2.4537,43,TRUE,FALSE,10,2,42,3,1,,,,,,,
,,,,,,1,1.517303301,#f3af84,,right_orange.png,p,,,,,,o,right_blue.png,right_orange.png,p,right,610050d80bac4fad975bb0bc,001,2021-08-01_13h27.46.922,arrow_simon_norep,2021.1.2,MacIntel,59.99880002,,,,,,,,,,,,,,,,,,,,,o,0,1.5512,44,FALSE,FALSE,10,3,43,1,1,,,,,,,
,,,,,,1,2.433924144,#a3d0fb,,right_blue.png,o,,,,,,o,right_blue.png,right_orange.png,p,left,610050d80bac4fad975bb0bc,001,2021-08-01_13h27.46.922,arrow_simon_norep,2021.1.2,MacIntel,59.99880002,,,,,,,,,,,,,,,,,,,,,p,0,2.0336,45,TRUE,FALSE,11,0,44,0,1,,,,,,,
,,,,,,1,2.053069877,#f3af84,,left_orange.png,q,,,,,,w,left_blue.png,left_orange.png,q,left,610050d80bac4fad975bb0bc,001,2021-08-01_13h27.46.922,arrow_simon_norep,2021.1.2,MacIntel,59.99880002,,,,,,,,,,,,,,,,,,,,,o,0,1.1521,46,FALSE,TRUE,11,1,45,2,1,,,,,,,
,,,,,,1,2.132269919,#a3d0fb,,right_blue.png,o,,,,,,o,right_blue.png,right_orange.png,p,right,610050d80bac4fad975bb0bc,001,2021-08-01_13h27.46.922,arrow_simon_norep,2021.1.2,MacIntel,59.99880002,,,,,,,,,,,,,,,,,,,,,p,0,1.3784,47,FALSE,TRUE,11,2,46,1,1,,,,,,,
,,,,,,1,2.180749078,#f3af84,,right_orange.png,p,,,,,,o,right_blue.png,right_orange.png,p,right,610050d80bac4fad975bb0bc,001,2021-08-01_13h27.46.922,arrow_simon_norep,2021.1.2,MacIntel,59.99880002,,,,,,,,,,,,,,,,,,,,,o,0,0.5669,48,FALSE,TRUE,11,3,47,1,1,,,,,,,
,,,,,,1,1.572959172,#a3d0fb,,left_blue.png,w,,,,,,w,left_blue.png,left_orange.png,q,left,610050d80bac4fad975bb0bc,001,2021-08-01_13h27.46.922,arrow_simon_norep,2021.1.2,MacIntel,59.99880002,,,,,,,,,,,,,,,,,,,,,p,0,1.6353,49,TRUE,FALSE,12,0,48,2,1,,,,,,,
,,,,,,1,1.644032431,#f3af84,,right_orange.png,p,,,,,,o,right_blue.png,right_orange.png,p,right,610050d80bac4fad975bb0bc,001,2021-08-01_13h27.46.922,arrow_simon_norep,2021.1.2,MacIntel,59.99880002,,,,,,,,,,,,,,,,,,,,,p,1,4.163,50,TRUE,FALSE,12,1,49,1,1,,,,,,,
,,,,,,1,2.050008858,#a3d0fb,,left_blue.png,w,,,,,,w,left_blue.png,left_orange.png,q,right,610050d80bac4fad975bb0bc,001,2021-08-01_13h27.46.922,arrow_simon_norep,2021.1.2,MacIntel,59.99880002,,,,,,,,,,,,,,,,,,,,,p,0,1.5528,51,FALSE,FALSE,12,2,50,3,1,,,,,,,
,,,,,,1,1.845219269,#f3af84,,right_orange.png,p,,,,,,o,right_blue.png,right_orange.png,p,left,610050d80bac4fad975bb0bc,001,2021-08-01_13h27.46.922,arrow_simon_norep,2021.1.2,MacIntel,59.99880002,,,,,,,,,,,,,,,,,,,,,p,1,0.5078,52,FALSE,TRUE,12,3,51,0,1,,,,,,,
,,,,,,1,2.005790134,#a3d0fb,,left_blue.png,w,,,,,,w,left_blue.png,left_orange.png,q,left,610050d80bac4fad975bb0bc,001,2021-08-01_13h27.46.922,arrow_simon_norep,2021.1.2,MacIntel,59.99880002,,,,,,,,,,,,,,,,,,,,,o,0,1.3665,53,FALSE,TRUE,13,0,52,2,1,,,,,,,
,,,,,,1,2.221376676,#f3af84,,right_orange.png,p,,,,,,o,right_blue.png,right_orange.png,p,left,610050d80bac4fad975bb0bc,001,2021-08-01_13h27.46.922,arrow_simon_norep,2021.1.2,MacIntel,59.99880002,,,,,,,,,,,,,,,,,,,,,p,1,2.0205,54,TRUE,FALSE,13,1,53,0,1,,,,,,,
,,,,,,1,2.047723358,#a3d0fb,,left_blue.png,w,,,,,,w,left_blue.png,left_orange.png,q,left,610050d80bac4fad975bb0bc,001,2021-08-01_13h27.46.922,arrow_simon_norep,2021.1.2,MacIntel,59.99880002,,,,,,,,,,,,,,,,,,,,,o,0,1.8863,55,TRUE,FALSE,13,2,54,2,1,,,,,,,
,,,,,,1,2.227916859,#f3af84,,left_orange.png,q,,,,,,w,left_blue.png,left_orange.png,q,left,610050d80bac4fad975bb0bc,001,2021-08-01_13h27.46.922,arrow_simon_norep,2021.1.2,MacIntel,59.99880002,,,,,,,,,,,,,,,,,,,,,p,0,1.1757,56,FALSE,TRUE,13,3,55,2,1,,,,,,,
,,,,,,0,1.698225178,#a3d0fb,,right_blue.png,o,,,,,,o,right_blue.png,right_orange.png,p,right,610050d80bac4fad975bb0bc,001,2021-08-01_13h27.46.922,arrow_simon_norep,2021.1.2,MacIntel,59.99880002,,,,,,,,,,,,,,,,,,,,,o,1,1.539,57,FALSE,FALSE,14,0,56,1,1,,,,,,,
,,,,,,0,2.129171571,#f3af84,,left_orange.png,q,,,,,,w,left_blue.png,left_orange.png,q,left,610050d80bac4fad975bb0bc,001,2021-08-01_13h27.46.922,arrow_simon_norep,2021.1.2,MacIntel,59.99880002,,,,,,,,,,,,,,,,,,,,,p,0,1.0197,58,FALSE,TRUE,14,1,57,2,1,,,,,,,
,,,,,,0,2.013706468,#a3d0fb,,right_blue.png,o,,,,,,o,right_blue.png,right_orange.png,p,right,610050d80bac4fad975bb0bc,001,2021-08-01_13h27.46.922,arrow_simon_norep,2021.1.2,MacIntel,59.99880002,,,,,,,,,,,,,,,,,,,,,p,0,0.2526,59,FALSE,TRUE,14,2,58,1,1,,,,,,,
,,,,,,0,2.40402916,#f3af84,,right_orange.png,p,,,,,,o,right_blue.png,right_orange.png,p,left,610050d80bac4fad975bb0bc,001,2021-08-01_13h27.46.922,arrow_simon_norep,2021.1.2,MacIntel,59.99880002,,,,,,,,,,,,,,,,,,,,,o,0,2.084,60,TRUE,FALSE,14,3,59,0,1,,,,,,,
,,,,,,,,,,,,,,,,,,,,,,610050d80bac4fad975bb0bc,001,2021-08-01_13h27.46.922,arrow_simon_norep,2021.1.2,MacIntel,59.99880002,,,,,,,,,,,,,,,,,,,,,,,,,,,,,,,,space,5.3807,1,0,1,0,1
,,,,,,0,1.810286749,#a3d0fb,,right_blue.png,o,,,,,,o,right_blue.png,right_orange.png,p,right,610050d80bac4fad975bb0bc,001,2021-08-01_13h27.46.922,arrow_simon_norep,2021.1.2,MacIntel,59.99880002,,,,,,,,,,,,,,,,,,,,,p,0,0.8944,1,FALSE,TRUE,0,0,0,1,1,,,,,,,
,,,,,,0,2.26996409,#f3af84,,left_orange.png,q,,,,,,w,left_blue.png,left_orange.png,q,left,610050d80bac4fad975bb0bc,001,2021-08-01_13h27.46.922,arrow_simon_norep,2021.1.2,MacIntel,59.99880002,,,,,,,,,,,,,,,,,,,,,o,0,0.272,2,FALSE,TRUE,0,1,1,2,1,,,,,,,
,,,,,,0,2.195314177,#a3d0fb,,right_blue.png,o,,,,,,o,right_blue.png,right_orange.png,p,left,610050d80bac4fad975bb0bc,001,2021-08-01_13h27.46.922,arrow_simon_norep,2021.1.2,MacIntel,59.99880002,,,,,,,,,,,,,,,,,,,,,o,1,0.0191,3,FALSE,TRUE,0,2,2,0,1,,,,,,,
,,,,,,0,2.2346088,#f3af84,,right_orange.png,p,,,,,,o,right_blue.png,right_orange.png,p,right,610050d80bac4fad975bb0bc,001,2021-08-01_13h27.46.922,arrow_simon_norep,2021.1.2,MacIntel,59.99880002,,,,,,,,,,,,,,,,,,,,,o,0,0.0545,4,FALSE,TRUE,0,3,3,1,1,,,,,,,
,,,,,,0,1.615114121,#a3d0fb,,left_blue.png,w,,,,,,w,left_blue.png,left_orange.png,q,right,610050d80bac4fad975bb0bc,001,2021-08-01_13h27.46.922,arrow_simon_norep,2021.1.2,MacIntel,59.99880002,,,,,,,,,,,,,,,,,,,,,p,0,0.0554,5,FALSE,TRUE,1,0,4,3,1,,,,,,,
,,,,,,0,2.359794774,#f3af84,,left_orange.png,q,,,,,,w,left_blue.png,left_orange.png,q,left,610050d80bac4fad975bb0bc,001,2021-08-01_13h27.46.922,arrow_simon_norep,2021.1.2,MacIntel,59.99880002,,,,,,,,,,,,,,,,,,,,,p,0,0.4189,6,FALSE,TRUE,1,1,5,2,1,,,,,,,
,,,,,,0,1.980814762,#a3d0fb,,right_blue.png,o,,,,,,o,right_blue.png,right_orange.png,p,right,610050d80bac4fad975bb0bc,001,2021-08-01_13h27.46.922,arrow_simon_norep,2021.1.2,MacIntel,59.99880002,,,,,,,,,,,,,,,,,,,,,o,1,0.3027,7,FALSE,TRUE,1,2,6,1,1,,,,,,,
,,,,,,0,1.917088884,#f3af84,,right_orange.png,p,,,,,,o,right_blue.png,right_orange.png,p,left,610050d80bac4fad975bb0bc,001,2021-08-01_13h27.46.922,arrow_simon_norep,2021.1.2,MacIntel,59.99880002,,,,,,,,,,,,,,,,,,,,,w,0,0.105,8,FALSE,TRUE,1,3,7,0,1,,,,,,,
,,,,,,0,2.180029655,#a3d0fb,,left_blue.png,w,,,,,,w,left_blue.png,left_orange.png,q,left,610050d80bac4fad975bb0bc,001,2021-08-01_13h27.46.922,arrow_simon_norep,2021.1.2,MacIntel,59.99880002,,,,,,,,,,,,,,,,,,,,,p,0,0.02,9,FALSE,TRUE,2,0,8,2,1,,,,,,,
,,,,,,0,1.788715487,#f3af84,,right_orange.png,p,,,,,,o,right_blue.png,right_orange.png,p,right,610050d80bac4fad975bb0bc,001,2021-08-01_13h27.46.922,arrow_simon_norep,2021.1.2,MacIntel,59.99880002,,,,,,,,,,,,,,,,,,,,,q,0,0.1443,10,FALSE,TRUE,2,1,9,1,1,,,,,,,
,,,,,,0,2.426416152,#a3d0fb,,right_blue.png,o,,,,,,o,right_blue.png,right_orange.png,p,right,610050d80bac4fad975bb0bc,001,2021-08-01_13h27.46.922,arrow_simon_norep,2021.1.2,MacIntel,59.99880002,,,,,,,,,,,,,,,,,,,,,w,0,0.3833,11,FALSE,TRUE,2,2,10,1,1,,,,,,,
,,,,,,0,1.933391767,#f3af84,,right_orange.png,p,,,,,,o,right_blue.png,right_orange.png,p,right,610050d80bac4fad975bb0bc,001,2021-08-01_13h27.46.922,arrow_simon_norep,2021.1.2,MacIntel,59.99880002,,,,,,,,,,,,,,,,,,,,,w,0,0.0513,12,FALSE,TRUE,2,3,11,1,1,,,,,,,
,,,,,,0,2.233912876,#a3d0fb,,left_blue.png,w,,,,,,w,left_blue.png,left_orange.png,q,left,610050d80bac4fad975bb0bc,001,2021-08-01_13h27.46.922,arrow_simon_norep,2021.1.2,MacIntel,59.99880002,,,,,,,,,,,,,,,,,,,,,p,0,0.323,13,FALSE,TRUE,3,0,12,2,1,,,,,,,
,,,,,,0,1.725798355,#f3af84,,left_orange.png,q,,,,,,w,left_blue.png,left_orange.png,q,left,610050d80bac4fad975bb0bc,001,2021-08-01_13h27.46.922,arrow_simon_norep,2021.1.2,MacIntel,59.99880002,,,,,,,,,,,,,,,,,,,,,w,0,0.1713,14,FALSE,TRUE,3,1,13,2,1,,,,,,,
,,,,,,0,2.424535574,#a3d0fb,,right_blue.png,o,,,,,,o,right_blue.png,right_orange.png,p,left,610050d80bac4fad975bb0bc,001,2021-08-01_13h27.46.922,arrow_simon_norep,2021.1.2,MacIntel,59.99880002,,,,,,,,,,,,,,,,,,,,,p,0,0.3515,15,FALSE,TRUE,3,2,14,0,1,,,,,,,
,,,,,,0,2.369529671,#f3af84,,left_orange.png,q,,,,,,w,left_blue.png,left_orange.png,q,left,610050d80bac4fad975bb0bc,001,2021-08-01_13h27.46.922,arrow_simon_norep,2021.1.2,MacIntel,59.99880002,,,,,,,,,,,,,,,,,,,,,p,0,0.2192,16,FALSE,TRUE,3,3,15,2,1,,,,,,,
,,,,,,0,2.396392842,#a3d0fb,,left_blue.png,w,,,,,,w,left_blue.png,left_orange.png,q,right,610050d80bac4fad975bb0bc,001,2021-08-01_13h27.46.922,arrow_simon_norep,2021.1.2,MacIntel,59.99880002,,,,,,,,,,,,,,,,,,,,,w,1,0.1854,17,FALSE,TRUE,4,0,16,3,1,,,,,,,
,,,,,,0,2.138833545,#f3af84,,left_orange.png,q,,,,,,w,left_blue.png,left_orange.png,q,left,610050d80bac4fad975bb0bc,001,2021-08-01_13h27.46.922,arrow_simon_norep,2021.1.2,MacIntel,59.99880002,,,,,,,,,,,,,,,,,,,,,o,0,0.4374,18,FALSE,TRUE,4,1,17,2,1,,,,,,,
,,,,,,0,1.910052266,#a3d0fb,,right_blue.png,o,,,,,,o,right_blue.png,right_orange.png,p,left,610050d80bac4fad975bb0bc,001,2021-08-01_13h27.46.922,arrow_simon_norep,2021.1.2,MacIntel,59.99880002,,,,,,,,,,,,,,,,,,,,,p,0,0.2585,19,FALSE,TRUE,4,2,18,0,1,,,,,,,
,,,,,,0,1.876527817,#f3af84,,right_orange.png,p,,,,,,o,right_blue.png,right_orange.png,p,right,610050d80bac4fad975bb0bc,001,2021-08-01_13h27.46.922,arrow_simon_norep,2021.1.2,MacIntel,59.99880002,,,,,,,,,,,,,,,,,,,,,p,1,0.1534,20,FALSE,TRUE,4,3,19,1,1,,,,,,,
,,,,,,0,1.858736153,#a3d0fb,,left_blue.png,w,,,,,,w,left_blue.png,left_orange.png,q,right,610050d80bac4fad975bb0bc,001,2021-08-01_13h27.46.922,arrow_simon_norep,2021.1.2,MacIntel,59.99880002,,,,,,,,,,,,,,,,,,,,,p,0,0.551,21,FALSE,TRUE,5,0,20,3,1,,,,,,,
,,,,,,0,1.859410244,#f3af84,,right_orange.png,p,,,,,,o,right_blue.png,right_orange.png,p,right,610050d80bac4fad975bb0bc,001,2021-08-01_13h27.46.922,arrow_simon_norep,2021.1.2,MacIntel,59.99880002,,,,,,,,,,,,,,,,,,,,,w,0,0.2728,22,FALSE,TRUE,5,1,21,1,1,,,,,,,
,,,,,,0,1.686141428,#a3d0fb,,right_blue.png,o,,,,,,o,right_blue.png,right_orange.png,p,left,610050d80bac4fad975bb0bc,001,2021-08-01_13h27.46.922,arrow_simon_norep,2021.1.2,MacIntel,59.99880002,,,,,,,,,,,,,,,,,,,,,q,0,0.0262,23,FALSE,TRUE,5,2,22,0,1,,,,,,,
,,,,,,0,1.807509803,#f3af84,,left_orange.png,q,,,,,,w,left_blue.png,left_orange.png,q,right,610050d80bac4fad975bb0bc,001,2021-08-01_13h27.46.922,arrow_simon_norep,2021.1.2,MacIntel,59.99880002,,,,,,,,,,,,,,,,,,,,,w,0,0.0217,24,FALSE,TRUE,5,3,23,3,1,,,,,,,
,,,,,,0,1.667273882,#a3d0fb,,left_blue.png,w,,,,,,w,left_blue.png,left_orange.png,q,left,610050d80bac4fad975bb0bc,001,2021-08-01_13h27.46.922,arrow_simon_norep,2021.1.2,MacIntel,59.99880002,,,,,,,,,,,,,,,,,,,,,w,1,0.2837,25,FALSE,TRUE,6,0,24,2,1,,,,,,,
,,,,,,0,1.574584355,#f3af84,,left_orange.png,q,,,,,,w,left_blue.png,left_orange.png,q,right,610050d80bac4fad975bb0bc,001,2021-08-01_13h27.46.922,arrow_simon_norep,2021.1.2,MacIntel,59.99880002,,,,,,,,,,,,,,,,,,,,,w,0,0.1368,26,FALSE,TRUE,6,1,25,3,1,,,,,,,
,,,,,,0,2.476900085,#a3d0fb,,right_blue.png,o,,,,,,o,right_blue.png,right_orange.png,p,left,610050d80bac4fad975bb0bc,001,2021-08-01_13h27.46.922,arrow_simon_norep,2021.1.2,MacIntel,59.99880002,,,,,,,,,,,,,,,,,,,,,p,0,0.1042,27,FALSE,TRUE,6,2,26,0,1,,,,,,,
,,,,,,0,1.988266327,#f3af84,,right_orange.png,p,,,,,,o,right_blue.png,right_orange.png,p,right,610050d80bac4fad975bb0bc,001,2021-08-01_13h27.46.922,arrow_simon_norep,2021.1.2,MacIntel,59.99880002,,,,,,,,,,,,,,,,,,,,,p,1,0.1174,28,FALSE,TRUE,6,3,27,1,1,,,,,,,
,,,,,,0,1.946752494,#a3d0fb,,left_blue.png,w,,,,,,w,left_blue.png,left_orange.png,q,right,610050d80bac4fad975bb0bc,001,2021-08-01_13h27.46.922,arrow_simon_norep,2021.1.2,MacIntel,59.99880002,,,,,,,,,,,,,,,,,,,,,q,0,0.2929,29,FALSE,TRUE,7,0,28,3,1,,,,,,,
,,,,,,0,2.180858114,#f3af84,,right_orange.png,p,,,,,,o,right_blue.png,right_orange.png,p,left,610050d80bac4fad975bb0bc,001,2021-08-01_13h27.46.922,arrow_simon_norep,2021.1.2,MacIntel,59.99880002,,,,,,,,,,,,,,,,,,,,,p,1,0.2671,30,FALSE,TRUE,7,1,29,0,1,,,,,,,
,,,,,,0,2.38324561,#a3d0fb,,left_blue.png,w,,,,,,w,left_blue.png,left_orange.png,q,left,610050d80bac4fad975bb0bc,001,2021-08-01_13h27.46.922,arrow_simon_norep,2021.1.2,MacIntel,59.99880002,,,,,,,,,,,,,,,,,,,,,q,0,0.025,31,FALSE,TRUE,7,2,30,2,1,,,,,,,
,,,,,,0,1.757342588,#f3af84,,right_orange.png,p,,,,,,o,right_blue.png,right_orange.png,p,left,610050d80bac4fad975bb0bc,001,2021-08-01_13h27.46.922,arrow_simon_norep,2021.1.2,MacIntel,59.99880002,,,,,,,,,,,,,,,,,,,,,w,0,0.206,32,FALSE,TRUE,7,3,31,0,1,,,,,,,
,,,,,,0,1.736299895,#a3d0fb,,left_blue.png,w,,,,,,w,left_blue.png,left_orange.png,q,right,610050d80bac4fad975bb0bc,001,2021-08-01_13h27.46.922,arrow_simon_norep,2021.1.2,MacIntel,59.99880002,,,,,,,,,,,,,,,,,,,,,p,0,0.3032,33,FALSE,TRUE,8,0,32,3,1,,,,,,,
,,,,,,0,2.12484908,#f3af84,,right_orange.png,p,,,,,,o,right_blue.png,right_orange.png,p,left,610050d80bac4fad975bb0bc,001,2021-08-01_13h27.46.922,arrow_simon_norep,2021.1.2,MacIntel,59.99880002,,,,,,,,,,,,,,,,,,,,,p,1,0.1738,34,FALSE,TRUE,8,1,33,0,1,,,,,,,
,,,,,,0,1.680335899,#a3d0fb,,left_blue.png,w,,,,,,w,left_blue.png,left_orange.png,q,right,610050d80bac4fad975bb0bc,001,2021-08-01_13h27.46.922,arrow_simon_norep,2021.1.2,MacIntel,59.99880002,,,,,,,,,,,,,,,,,,,,,q,0,0.1745,35,FALSE,TRUE,8,2,34,3,1,,,,,,,
,,,,,,0,2.234296923,#f3af84,,left_orange.png,q,,,,,,w,left_blue.png,left_orange.png,q,left,610050d80bac4fad975bb0bc,001,2021-08-01_13h27.46.922,arrow_simon_norep,2021.1.2,MacIntel,59.99880002,,,,,,,,,,,,,,,,,,,,,p,0,0.0757,36,FALSE,TRUE,8,3,35,2,1,,,,,,,
,,,,,,0,1.850537342,#a3d0fb,,right_blue.png,o,,,,,,o,right_blue.png,right_orange.png,p,right,610050d80bac4fad975bb0bc,001,2021-08-01_13h27.46.922,arrow_simon_norep,2021.1.2,MacIntel,59.99880002,,,,,,,,,,,,,,,,,,,,,w,0,0.0017,37,FALSE,TRUE,9,0,36,1,1,,,,,,,
,,,,,,0,2.280698051,#f3af84,,right_orange.png,p,,,,,,o,right_blue.png,right_orange.png,p,left,610050d80bac4fad975bb0bc,001,2021-08-01_13h27.46.922,arrow_simon_norep,2021.1.2,MacIntel,59.99880002,,,,,,,,,,,,,,,,,,,,,p,1,0.0693,38,FALSE,TRUE,9,1,37,0,1,,,,,,,
,,,,,,0,2.266385296,#a3d0fb,,left_blue.png,w,,,,,,w,left_blue.png,left_orange.png,q,right,610050d80bac4fad975bb0bc,001,2021-08-01_13h27.46.922,arrow_simon_norep,2021.1.2,MacIntel,59.99880002,,,,,,,,,,,,,,,,,,,,,w,1,1.9052,39,TRUE,FALSE,9,2,38,3,1,,,,,,,
,,,,,,0,1.958124073,#f3af84,,right_orange.png,p,,,,,,o,right_blue.png,right_orange.png,p,left,610050d80bac4fad975bb0bc,001,2021-08-01_13h27.46.922,arrow_simon_norep,2021.1.2,MacIntel,59.99880002,,,,,,,,,,,,,,,,,,,,,q,0,0.0238,40,FALSE,TRUE,9,3,39,0,1,,,,,,,
,,,,,,0,2.077658656,#a3d0fb,,left_blue.png,w,,,,,,w,left_blue.png,left_orange.png,q,right,610050d80bac4fad975bb0bc,001,2021-08-01_13h27.46.922,arrow_simon_norep,2021.1.2,MacIntel,59.99880002,,,,,,,,,,,,,,,,,,,,,q,0,0.3687,41,FALSE,TRUE,10,0,40,3,1,,,,,,,
,,,,,,0,2.084763697,#f3af84,,right_orange.png,p,,,,,,o,right_blue.png,right_orange.png,p,left,610050d80bac4fad975bb0bc,001,2021-08-01_13h27.46.922,arrow_simon_norep,2021.1.2,MacIntel,59.99880002,,,,,,,,,,,,,,,,,,,,,q,0,0.7859,42,FALSE,TRUE,10,1,41,0,1,,,,,,,
,,,,,,0,2.396183036,#a3d0fb,,left_blue.png,w,,,,,,w,left_blue.png,left_orange.png,q,left,610050d80bac4fad975bb0bc,001,2021-08-01_13h27.46.922,arrow_simon_norep,2021.1.2,MacIntel,59.99880002,,,,,,,,,,,,,,,,,,,,,p,0,0.9511,43,FALSE,TRUE,10,2,42,2,1,,,,,,,
,,,,,,0,2.203852373,#f3af84,,left_orange.png,q,,,,,,w,left_blue.png,left_orange.png,q,right,610050d80bac4fad975bb0bc,001,2021-08-01_13h27.46.922,arrow_simon_norep,2021.1.2,MacIntel,59.99880002,,,,,,,,,,,,,,,,,,,,,w,0,0.0255,44,FALSE,TRUE,10,3,43,3,1,,,,,,,
,,,,,,0,2.429551446,#a3d0fb,,left_blue.png,w,,,,,,w,left_blue.png,left_orange.png,q,right,610050d80bac4fad975bb0bc,001,2021-08-01_13h27.46.922,arrow_simon_norep,2021.1.2,MacIntel,59.99880002,,,,,,,,,,,,,,,,,,,,,w,1,0.2702,45,FALSE,TRUE,11,0,44,3,1,,,,,,,
,,,,,,0,2.231724473,#f3af84,,left_orange.png,q,,,,,,w,left_blue.png,left_orange.png,q,left,610050d80bac4fad975bb0bc,001,2021-08-01_13h27.46.922,arrow_simon_norep,2021.1.2,MacIntel,59.99880002,,,,,,,,,,,,,,,,,,,,,p,0,0.5351,46,FALSE,TRUE,11,1,45,2,1,,,,,,,
,,,,,,0,2.29028233,#a3d0fb,,right_blue.png,o,,,,,,o,right_blue.png,right_orange.png,p,right,610050d80bac4fad975bb0bc,001,2021-08-01_13h27.46.922,arrow_simon_norep,2021.1.2,MacIntel,59.99880002,,,,,,,,,,,,,,,,,,,,,q,0,0.7028,47,FALSE,TRUE,11,2,46,1,1,,,,,,,
,,,,,,0,1.958194956,#f3af84,,right_orange.png,p,,,,,,o,right_blue.png,right_orange.png,p,left,610050d80bac4fad975bb0bc,001,2021-08-01_13h27.46.922,arrow_simon_norep,2021.1.2,MacIntel,59.99880002,,,,,,,,,,,,,,,,,,,,,o,0,0.1196,48,FALSE,TRUE,11,3,47,0,1,,,,,,,
,,,,,,0,1.793924327,#a3d0fb,,left_blue.png,w,,,,,,w,left_blue.png,left_orange.png,q,right,610050d80bac4fad975bb0bc,001,2021-08-01_13h27.46.922,arrow_simon_norep,2021.1.2,MacIntel,59.99880002,,,,,,,,,,,,,,,,,,,,,w,1,0.0006,49,FALSE,TRUE,12,0,48,3,1,,,,,,,
,,,,,,0,2.211167148,#f3af84,,right_orange.png,p,,,,,,o,right_blue.png,right_orange.png,p,right,610050d80bac4fad975bb0bc,001,2021-08-01_13h27.46.922,arrow_simon_norep,2021.1.2,MacIntel,59.99880002,,,,,,,,,,,,,,,,,,,,,q,0,1.6679,50,TRUE,FALSE,12,1,49,1,1,,,,,,,
,,,,,,1,2.370426141,#a3d0fb,,right_blue.png,o,,,,,,o,right_blue.png,right_orange.png,p,left,610050d80bac4fad975bb0bc,001,2021-08-01_13h27.46.922,arrow_simon_norep,2021.1.2,MacIntel,59.99880002,,,,,,,,,,,,,,,,,,,,,w,0,1.4878,51,FALSE,FALSE,12,2,50,0,1,,,,,,,
,,,,,,0,2.31525797,#f3af84,,left_orange.png,q,,,,,,w,left_blue.png,left_orange.png,q,left,610050d80bac4fad975bb0bc,001,2021-08-01_13h27.46.922,arrow_simon_norep,2021.1.2,MacIntel,59.99880002,,,,,,,,,,,,,,,,,,,,,q,1,1.4452,52,FALSE,FALSE,12,3,51,2,1,,,,,,,
,,,,,,0,1.800974086,#a3d0fb,,right_blue.png,o,,,,,,o,right_blue.png,right_orange.png,p,right,610050d80bac4fad975bb0bc,001,2021-08-01_13h27.46.922,arrow_simon_norep,2021.1.2,MacIntel,59.99880002,,,,,,,,,,,,,,,,,,,,,q,0,1.6871,53,TRUE,FALSE,13,0,52,1,1,,,,,,,
,,,,,,1,1.665689106,#f3af84,,right_orange.png,p,,,,,,o,right_blue.png,right_orange.png,p,right,610050d80bac4fad975bb0bc,001,2021-08-01_13h27.46.922,arrow_simon_norep,2021.1.2,MacIntel,59.99880002,,,,,,,,,,,,,,,,,,,,,w,0,1.4089,54,FALSE,FALSE,13,1,53,1,1,,,,,,,
,,,,,,1,2.175603816,#a3d0fb,,left_blue.png,w,,,,,,w,left_blue.png,left_orange.png,q,left,610050d80bac4fad975bb0bc,001,2021-08-01_13h27.46.922,arrow_simon_norep,2021.1.2,MacIntel,59.99880002,,,,,,,,,,,,,,,,,,,,,p,0,0.0351,55,FALSE,TRUE,13,2,54,2,1,,,,,,,
,,,,,,1,2.135295552,#f3af84,,right_orange.png,p,,,,,,o,right_blue.png,right_orange.png,p,left,610050d80bac4fad975bb0bc,001,2021-08-01_13h27.46.922,arrow_simon_norep,2021.1.2,MacIntel,59.99880002,,,,,,,,,,,,,,,,,,,,,q,0,0.1368,56,FALSE,TRUE,13,3,55,0,1,,,,,,,
,,,,,,1,2.335306944,#a3d0fb,,left_blue.png,w,,,,,,w,left_blue.png,left_orange.png,q,right,610050d80bac4fad975bb0bc,001,2021-08-01_13h27.46.922,arrow_simon_norep,2021.1.2,MacIntel,59.99880002,,,,,,,,,,,,,,,,,,,,,q,0,1.9188,57,TRUE,FALSE,14,0,56,3,1,,,,,,,
,,,,,,1,1.978480132,#f3af84,,left_orange.png,q,,,,,,w,left_blue.png,left_orange.png,q,right,610050d80bac4fad975bb0bc,001,2021-08-01_13h27.46.922,arrow_simon_norep,2021.1.2,MacIntel,59.99880002,,,,,,,,,,,,,,,,,,,,,w,0,1.6537,58,TRUE,FALSE,14,1,57,3,1,,,,,,,
,,,,,,1,2.194300716,#a3d0fb,,right_blue.png,o,,,,,,o,right_blue.png,right_orange.png,p,right,610050d80bac4fad975bb0bc,001,2021-08-01_13h27.46.922,arrow_simon_norep,2021.1.2,MacIntel,59.99880002,,,,,,,,,,,,,,,,,,,,,w,0,1.619,59,TRUE,FALSE,14,2,58,1,1,,,,,,,
,,,,,,1,2.423674719,#f3af84,,left_orange.png,q,,,,,,w,left_blue.png,left_orange.png,q,left,610050d80bac4fad975bb0bc,001,2021-08-01_13h27.46.922,arrow_simon_norep,2021.1.2,MacIntel,59.99880002,,,,,,,,,,,,,,,,,,,,,q,1,0.4506,60,FALSE,TRUE,14,3,59,2,1,,,,,,,
,,,,,,,,,,,,,,,,,,,,,,610050d80bac4fad975bb0bc,001,2021-08-01_13h27.46.922,arrow_simon_norep,2021.1.2,MacIntel,59.99880002,,,,,,,,,,,,,,,,,,,,,,,,,,,,,,,,space,74.2714,2,0,2,0,1
,,,,,,1,1.924980419,#a3d0fb,,left_blue.png,w,,,,,,w,left_blue.png,left_orange.png,q,right,610050d80bac4fad975bb0bc,001,2021-08-01_13h27.46.922,arrow_simon_norep,2021.1.2,MacIntel,59.99880002,,,,,,,,,,,,,,,,,,,,,p,0,2.1198,1,TRUE,FALSE,0,0,0,3,1,,,,,,,
,,,,,,1,2.354603182,#f3af84,,right_orange.png,p,,,,,,o,right_blue.png,right_orange.png,p,left,610050d80bac4fad975bb0bc,001,2021-08-01_13h27.46.922,arrow_simon_norep,2021.1.2,MacIntel,59.99880002,,,,,,,,,,,,,,,,,,,,,q,0,0.852,2,FALSE,TRUE,0,1,1,0,1,,,,,,,
,,,,,,0,1.502204605,#a3d0fb,,left_blue.png,w,,,,,,w,left_blue.png,left_orange.png,q,right,610050d80bac4fad975bb0bc,001,2021-08-01_13h27.46.922,arrow_simon_norep,2021.1.2,MacIntel,59.99880002,,,,,,,,,,,,,,,,,,,,,w,1,1.4881,3,FALSE,FALSE,0,2,2,3,1,,,,,,,
,,,,,,0,1.533218627,#f3af84,,left_orange.png,q,,,,,,w,left_blue.png,left_orange.png,q,right,610050d80bac4fad975bb0bc,001,2021-08-01_13h27.46.922,arrow_simon_norep,2021.1.2,MacIntel,59.99880002,,,,,,,,,,,,,,,,,,,,,w,0,0.2899,4,FALSE,TRUE,0,3,3,3,1,,,,,,,
,,,,,,0,1.677522282,#a3d0fb,,left_blue.png,w,,,,,,w,left_blue.png,left_orange.png,q,right,610050d80bac4fad975bb0bc,001,2021-08-01_13h27.46.922,arrow_simon_norep,2021.1.2,MacIntel,59.99880002,,,,,,,,,,,,,,,,,,,,,w,1,0.0498,5,FALSE,TRUE,1,0,4,3,1,,,,,,,
,,,,,,0,2.308193235,#f3af84,,left_orange.png,q,,,,,,w,left_blue.png,left_orange.png,q,left,610050d80bac4fad975bb0bc,001,2021-08-01_13h27.46.922,arrow_simon_norep,2021.1.2,MacIntel,59.99880002,,,,,,,,,,,,,,,,,,,,,q,1,1.8266,6,TRUE,FALSE,1,1,5,2,1,,,,,,,
,,,,,,0,2.134491919,#a3d0fb,,left_blue.png,w,,,,,,w,left_blue.png,left_orange.png,q,left,610050d80bac4fad975bb0bc,001,2021-08-01_13h27.46.922,arrow_simon_norep,2021.1.2,MacIntel,59.99880002,,,,,,,,,,,,,,,,,,,,,q,0,0.3364,7,FALSE,TRUE,1,2,6,2,1,,,,,,,
,,,,,,0,1.624447814,#f3af84,,left_orange.png,q,,,,,,w,left_blue.png,left_orange.png,q,right,610050d80bac4fad975bb0bc,001,2021-08-01_13h27.46.922,arrow_simon_norep,2021.1.2,MacIntel,59.99880002,,,,,,,,,,,,,,,,,,,,,q,1,0.3041,8,FALSE,TRUE,1,3,7,3,1,,,,,,,
,,,,,,0,1.516776948,#a3d0fb,,left_blue.png,w,,,,,,w,left_blue.png,left_orange.png,q,right,610050d80bac4fad975bb0bc,001,2021-08-01_13h27.46.922,arrow_simon_norep,2021.1.2,MacIntel,59.99880002,,,,,,,,,,,,,,,,,,,,,p,0,0.1023,9,FALSE,TRUE,2,0,8,3,1,,,,,,,
,,,,,,0,1.957031439,#f3af84,,right_orange.png,p,,,,,,o,right_blue.png,right_orange.png,p,left,610050d80bac4fad975bb0bc,001,2021-08-01_13h27.46.922,arrow_simon_norep,2021.1.2,MacIntel,59.99880002,,,,,,,,,,,,,,,,,,,,,w,0,0.7382,10,FALSE,TRUE,2,1,9,0,1,,,,,,,
,,,,,,0,1.935387504,#a3d0fb,,right_blue.png,o,,,,,,o,right_blue.png,right_orange.png,p,right,610050d80bac4fad975bb0bc,001,2021-08-01_13h27.46.922,arrow_simon_norep,2021.1.2,MacIntel,59.99880002,,,,,,,,,,,,,,,,,,,,,o,1,1.1856,11,FALSE,TRUE,2,2,10,1,1,,,,,,,
,,,,,,0,1.758799329,#f3af84,,left_orange.png,q,,,,,,w,left_blue.png,left_orange.png,q,left,610050d80bac4fad975bb0bc,001,2021-08-01_13h27.46.922,arrow_simon_norep,2021.1.2,MacIntel,59.99880002,,,,,,,,,,,,,,,,,,,,,p,0,0.1525,12,FALSE,TRUE,2,3,11,2,1,,,,,,,
,,,,,,0,2.485013475,#a3d0fb,,left_blue.png,w,,,,,,w,left_blue.png,left_orange.png,q,left,610050d80bac4fad975bb0bc,001,2021-08-01_13h27.46.922,arrow_simon_norep,2021.1.2,MacIntel,59.99880002,,,,,,,,,,,,,,,,,,,,,w,1,0.5877,13,FALSE,TRUE,3,0,12,2,1,,,,,,,
,,,,,,0,1.986256747,#f3af84,,right_orange.png,p,,,,,,o,right_blue.png,right_orange.png,p,left,610050d80bac4fad975bb0bc,001,2021-08-01_13h27.46.922,arrow_simon_norep,2021.1.2,MacIntel,59.99880002,,,,,,,,,,,,,,,,,,,,,p,1,2.1023,14,TRUE,FALSE,3,1,13,0,1,,,,,,,
,,,,,,0,1.842675467,#a3d0fb,,left_blue.png,w,,,,,,w,left_blue.png,left_orange.png,q,left,610050d80bac4fad975bb0bc,001,2021-08-01_13h27.46.922,arrow_simon_norep,2021.1.2,MacIntel,59.99880002,,,,,,,,,,,,,,,,,,,,,p,0,2.9373,15,TRUE,FALSE,3,2,14,2,1,,,,,,,
,,,,,,0,1.798915808,#f3af84,,left_orange.png,q,,,,,,w,left_blue.png,left_orange.png,q,left,610050d80bac4fad975bb0bc,001,2021-08-01_13h27.46.922,arrow_simon_norep,2021.1.2,MacIntel,59.99880002,,,,,,,,,,,,,,,,,,,,,w,0,1.0423,16,FALSE,TRUE,3,3,15,2,1,,,,,,,
,,,,,,0,2.190205057,#a3d0fb,,right_blue.png,o,,,,,,o,right_blue.png,right_orange.png,p,left,610050d80bac4fad975bb0bc,001,2021-08-01_13h27.46.922,arrow_simon_norep,2021.1.2,MacIntel,59.99880002,,,,,,,,,,,,,,,,,,,,,o,1,0.8025,17,FALSE,TRUE,4,0,16,0,1,,,,,,,
,,,,,,0,1.82103438,#f3af84,,left_orange.png,q,,,,,,w,left_blue.png,left_orange.png,q,left,610050d80bac4fad975bb0bc,001,2021-08-01_13h27.46.922,arrow_simon_norep,2021.1.2,MacIntel,59.99880002,,,,,,,,,,,,,,,,,,,,,p,0,0.7041,18,FALSE,TRUE,4,1,17,2,1,,,,,,,
,,,,,,0,1.88042756,#a3d0fb,,left_blue.png,w,,,,,,w,left_blue.png,left_orange.png,q,right,610050d80bac4fad975bb0bc,001,2021-08-01_13h27.46.922,arrow_simon_norep,2021.1.2,MacIntel,59.99880002,,,,,,,,,,,,,,,,,,,,,p,0,0.3719,19,FALSE,TRUE,4,2,18,3,1,,,,,,,
,,,,,,0,1.992759048,#f3af84,,left_orange.png,q,,,,,,w,left_blue.png,left_orange.png,q,left,610050d80bac4fad975bb0bc,001,2021-08-01_13h27.46.922,arrow_simon_norep,2021.1.2,MacIntel,59.99880002,,,,,,,,,,,,,,,,,,,,,p,0,2.2192,20,TRUE,FALSE,4,3,19,2,1,,,,,,,
,,,,,,0,1.685006433,#a3d0fb,,right_blue.png,o,,,,,,o,right_blue.png,right_orange.png,p,right,610050d80bac4fad975bb0bc,001,2021-08-01_13h27.46.922,arrow_simon_norep,2021.1.2,MacIntel,59.99880002,,,,,,,,,,,,,,,,,,,,,p,0,1.0537,21,FALSE,TRUE,5,0,20,1,1,,,,,,,
,,,,,,0,2.266514278,#f3af84,,left_orange.png,q,,,,,,w,left_blue.png,left_orange.png,q,left,610050d80bac4fad975bb0bc,001,2021-08-01_13h27.46.922,arrow_simon_norep,2021.1.2,MacIntel,59.99880002,,,,,,,,,,,,,,,,,,,,,w,0,0.4025,22,FALSE,TRUE,5,1,21,2,1,,,,,,,
,,,,,,0,1.91870143,#a3d0fb,,left_blue.png,w,,,,,,w,left_blue.png,left_orange.png,q,left,610050d80bac4fad975bb0bc,001,2021-08-01_13h27.46.922,arrow_simon_norep,2021.1.2,MacIntel,59.99880002,,,,,,,,,,,,,,,,,,,,,p,0,1.2703,23,FALSE,TRUE,5,2,22,2,1,,,,,,,
,,,,,,0,2.329845023,#f3af84,,right_orange.png,p,,,,,,o,right_blue.png,right_orange.png,p,left,610050d80bac4fad975bb0bc,001,2021-08-01_13h27.46.922,arrow_simon_norep,2021.1.2,MacIntel,59.99880002,,,,,,,,,,,,,,,,,,,,,q,0,1.7519,24,TRUE,FALSE,5,3,23,0,1,,,,,,,
,,,,,,0,2.337537793,#a3d0fb,,left_blue.png,w,,,,,,w,left_blue.png,left_orange.png,q,left,610050d80bac4fad975bb0bc,001,2021-08-01_13h27.46.922,arrow_simon_norep,2021.1.2,MacIntel,59.99880002,,,,,,,,,,,,,,,,,,,,,p,0,1.1367,25,FALSE,TRUE,6,0,24,2,1,,,,,,,
,,,,,,0,2.045260273,#f3af84,,right_orange.png,p,,,,,,o,right_blue.png,right_orange.png,p,right,610050d80bac4fad975bb0bc,001,2021-08-01_13h27.46.922,arrow_simon_norep,2021.1.2,MacIntel,59.99880002,,,,,,,,,,,,,,,,,,,,,p,1,0.387,26,FALSE,TRUE,6,1,25,1,1,,,,,,,
,,,,,,0,1.955075372,#a3d0fb,,left_blue.png,w,,,,,,w,left_blue.png,left_orange.png,q,right,610050d80bac4fad975bb0bc,001,2021-08-01_13h27.46.922,arrow_simon_norep,2021.1.2,MacIntel,59.99880002,,,,,,,,,,,,,,,,,,,,,p,0,1.3914,27,FALSE,TRUE,6,2,26,3,1,,,,,,,
,,,,,,1,2.303382845,#f3af84,,left_orange.png,q,,,,,,w,left_blue.png,left_orange.png,q,left,610050d80bac4fad975bb0bc,001,2021-08-01_13h27.46.922,arrow_simon_norep,2021.1.2,MacIntel,59.99880002,,,,,,,,,,,,,,,,,,,,,p,0,1.4777,28,FALSE,FALSE,6,3,27,2,1,,,,,,,
,,,,,,1,1.890495078,#a3d0fb,,right_blue.png,o,,,,,,o,right_blue.png,right_orange.png,p,right,610050d80bac4fad975bb0bc,001,2021-08-01_13h27.46.922,arrow_simon_norep,2021.1.2,MacIntel,59.99880002,,,,,,,,,,,,,,,,,,,,,w,0,1.3529,29,FALSE,TRUE,7,0,28,1,1,,,,,,,
,,,,,,1,1.525871142,#f3af84,,right_orange.png,p,,,,,,o,right_blue.png,right_orange.png,p,right,610050d80bac4fad975bb0bc,001,2021-08-01_13h27.46.922,arrow_simon_norep,2021.1.2,MacIntel,59.99880002,,,,,,,,,,,,,,,,,,,,,w,0,0.8879,30,FALSE,TRUE,7,1,29,1,1,,,,,,,
,,,,,,1,1.931495648,#a3d0fb,,right_blue.png,o,,,,,,o,right_blue.png,right_orange.png,p,right,610050d80bac4fad975bb0bc,001,2021-08-01_13h27.46.922,arrow_simon_norep,2021.1.2,MacIntel,59.99880002,,,,,,,,,,,,,,,,,,,,,w,0,1.4084,31,FALSE,FALSE,7,2,30,1,1,,,,,,,
,,,,,,1,2.028218982,#f3af84,,left_orange.png,q,,,,,,w,left_blue.png,left_orange.png,q,right,610050d80bac4fad975bb0bc,001,2021-08-01_13h27.46.922,arrow_simon_norep,2021.1.2,MacIntel,59.99880002,,,,,,,,,,,,,,,,,,,,,p,0,0.9404,32,FALSE,TRUE,7,3,31,3,1,,,,,,,
,,,,,,1,2.497967578,#a3d0fb,,left_blue.png,w,,,,,,w,left_blue.png,left_orange.png,q,right,610050d80bac4fad975bb0bc,001,2021-08-01_13h27.46.922,arrow_simon_norep,2021.1.2,MacIntel,59.99880002,,,,,,,,,,,,,,,,,,,,,w,1,1.937,33,TRUE,FALSE,8,0,32,3,1,,,,,,,
,,,,,,1,1.547458995,#f3af84,,left_orange.png,q,,,,,,w,left_blue.png,left_orange.png,q,right,610050d80bac4fad975bb0bc,001,2021-08-01_13h27.46.922,arrow_simon_norep,2021.1.2,MacIntel,59.99880002,,,,,,,,,,,,,,,,,,,,,p,0,1.3531,34,FALSE,TRUE,8,1,33,3,1,,,,,,,
,,,,,,1,2.156660774,#a3d0fb,,right_blue.png,o,,,,,,o,right_blue.png,right_orange.png,p,left,610050d80bac4fad975bb0bc,001,2021-08-01_13h27.46.922,arrow_simon_norep,2021.1.2,MacIntel,59.99880002,,,,,,,,,,,,,,,,,,,,,o,1,0.7576,35,FALSE,TRUE,8,2,34,0,1,,,,,,,
,,,,,,1,1.963373613,#f3af84,,right_orange.png,p,,,,,,o,right_blue.png,right_orange.png,p,left,610050d80bac4fad975bb0bc,001,2021-08-01_13h27.46.922,arrow_simon_norep,2021.1.2,MacIntel,59.99880002,,,,,,,,,,,,,,,,,,,,,p,1,1.9531,36,TRUE,FALSE,8,3,35,0,1,,,,,,,
,,,,,,1,1.876967117,#a3d0fb,,right_blue.png,o,,,,,,o,right_blue.png,right_orange.png,p,left,610050d80bac4fad975bb0bc,001,2021-08-01_13h27.46.922,arrow_simon_norep,2021.1.2,MacIntel,59.99880002,,,,,,,,,,,,,,,,,,,,,p,0,0.1685,37,FALSE,TRUE,9,0,36,0,1,,,,,,,
,,,,,,1,2.094474576,#f3af84,,right_orange.png,p,,,,,,o,right_blue.png,right_orange.png,p,left,610050d80bac4fad975bb0bc,001,2021-08-01_13h27.46.922,arrow_simon_norep,2021.1.2,MacIntel,59.99880002,,,,,,,,,,,,,,,,,,,,,q,0,0.4357,38,FALSE,TRUE,9,1,37,0,1,,,,,,,
,,,,,,1,2.364645355,#a3d0fb,,left_blue.png,w,,,,,,w,left_blue.png,left_orange.png,q,left,610050d80bac4fad975bb0bc,001,2021-08-01_13h27.46.922,arrow_simon_norep,2021.1.2,MacIntel,59.99880002,,,,,,,,,,,,,,,,,,,,,w,1,0.7201,39,FALSE,TRUE,9,2,38,2,1,,,,,,,
,,,,,,1,2.353207095,#f3af84,,right_orange.png,p,,,,,,o,right_blue.png,right_orange.png,p,left,610050d80bac4fad975bb0bc,001,2021-08-01_13h27.46.922,arrow_simon_norep,2021.1.2,MacIntel,59.99880002,,,,,,,,,,,,,,,,,,,,,p,1,0.7191,40,FALSE,TRUE,9,3,39,0,1,,,,,,,
,,,,,,1,2.147797168,#a3d0fb,,right_blue.png,o,,,,,,o,right_blue.png,right_orange.png,p,right,610050d80bac4fad975bb0bc,001,2021-08-01_13h27.46.922,arrow_simon_norep,2021.1.2,MacIntel,59.99880002,,,,,,,,,,,,,,,,,,,,,o,1,1.2861,41,FALSE,TRUE,10,0,40,1,1,,,,,,,
,,,,,,1,2.09729541,#f3af84,,right_orange.png,p,,,,,,o,right_blue.png,right_orange.png,p,right,610050d80bac4fad975bb0bc,001,2021-08-01_13h27.46.922,arrow_simon_norep,2021.1.2,MacIntel,59.99880002,,,,,,,,,,,,,,,,,,,,,o,0,0.3228,42,FALSE,TRUE,10,1,41,1,1,,,,,,,
,,,,,,1,2.047056051,#a3d0fb,,left_blue.png,w,,,,,,w,left_blue.png,left_orange.png,q,left,610050d80bac4fad975bb0bc,001,2021-08-01_13h27.46.922,arrow_simon_norep,2021.1.2,MacIntel,59.99880002,,,,,,,,,,,,,,,,,,,,,o,0,1.3371,43,FALSE,TRUE,10,2,42,2,1,,,,,,,
,,,,,,1,2.401227868,#f3af84,,right_orange.png,p,,,,,,o,right_blue.png,right_orange.png,p,left,610050d80bac4fad975bb0bc,001,2021-08-01_13h27.46.922,arrow_simon_norep,2021.1.2,MacIntel,59.99880002,,,,,,,,,,,,,,,,,,,,,o,0,0.6501,44,FALSE,TRUE,10,3,43,0,1,,,,,,,
,,,,,,1,1.941809933,#a3d0fb,,right_blue.png,o,,,,,,o,right_blue.png,right_orange.png,p,left,610050d80bac4fad975bb0bc,001,2021-08-01_13h27.46.922,arrow_simon_norep,2021.1.2,MacIntel,59.99880002,,,,,,,,,,,,,,,,,,,,,p,0,1.0097,45,FALSE,TRUE,11,0,44,0,1,,,,,,,
,,,,,,1,1.892273942,#f3af84,,left_orange.png,q,,,,,,w,left_blue.png,left_orange.png,q,right,610050d80bac4fad975bb0bc,001,2021-08-01_13h27.46.922,arrow_simon_norep,2021.1.2,MacIntel,59.99880002,,,,,,,,,,,,,,,,,,,,,w,0,1.2269,46,FALSE,TRUE,11,1,45,3,1,,,,,,,
