instruct_resp_simon.keys,instruct_resp_simon.corr,instruct_resp_simon.rt,trial_resp_simon.keys,trial_resp_simon.corr,trial_resp_simon.rt,kerr,target_onset,target_color,target_pos,target_file,target_resp,trials_train_simon.thisRepN,trials_train_simon.thisTrialN,trials_train_simon.thisN,trials_train_simon.thisIndex,trials_train_simon.ran,odd_target_resp,odd_target_file,even_target_file,even_target_resp,target_side,participant,session,date,expName,psychopyVersion,OS,frameRate,train_block_note_resp.keys,train_block_note_resp.rt,blocks_train.thisRepN,blocks_train.thisTrialN,blocks_train.thisN,blocks_train.thisIndex,blocks_train.ran,instruct_resp_timing.keys,instruct_resp_timing.corr,instruct_resp_timing.rt,trial_resp_timing.keys,trial_resp_timing.rt,trials_train_timing.thisRepN,trials_train_timing.thisTrialN,trials_train_timing.thisN,trials_train_timing.thisIndex,trials_train_timing.ran,instruct_resp.keys,instruct_resp.corr,instruct_resp.rt,trial_resp.keys,trial_resp.corr,trial_resp.rt,trial_num,too_slow,too_soon,trials.thisRepN,trials.thisTrialN,trials.thisN,trials.thisIndex,trials.ran,block_note_resp.keys,block_note_resp.rt,blocks.thisRepN,blocks.thisTrialN,blocks.thisN,blocks.thisIndex,blocks.ran
space,0,42.7123,w,0,1.4072,1,0.567508224,#a3d0fb,,right_blue.png,o,0,0,0,0,1,o,right_blue.png,right_orange.png,p,left,610061b90293e0558628845b,001,2021-08-01_12h18.18.359,arrow_simon_norep,2021.1.2,Win32,143.6988073,,,,,,,,,,,,,,,,,,,,,,,,,,,,,,,,,,,,,,
,,,q,1,2.101,0,0.573634089,#f3af84,,left_orange.png,q,0,1,1,2,1,w,left_blue.png,left_orange.png,q,left,610061b90293e0558628845b,001,2021-08-01_12h18.18.359,arrow_simon_norep,2021.1.2,Win32,143.6988073,,,,,,,,,,,,,,,,,,,,,,,,,,,,,,,,,,,,,,
,,,q,0,1.0241,1,0.06929619,#a3d0fb,,left_blue.png,w,0,2,2,3,1,w,left_blue.png,left_orange.png,q,right,610061b90293e0558628845b,001,2021-08-01_12h18.18.359,arrow_simon_norep,2021.1.2,Win32,143.6988073,,,,,,,,,,,,,,,,,,,,,,,,,,,,,,,,,,,,,,
,,,q,1,0.9624,0,0.137991759,#f3af84,,left_orange.png,q,0,3,3,3,1,w,left_blue.png,left_orange.png,q,right,610061b90293e0558628845b,001,2021-08-01_12h18.18.359,arrow_simon_norep,2021.1.2,Win32,143.6988073,,,,,,,,,,,,,,,,,,,,,,,,,,,,,,,,,,,,,,
,,,o,1,1.86,0,0.544588746,#a3d0fb,,right_blue.png,o,1,0,4,1,1,o,right_blue.png,right_orange.png,p,right,610061b90293e0558628845b,001,2021-08-01_12h18.18.359,arrow_simon_norep,2021.1.2,Win32,143.6988073,,,,,,,,,,,,,,,,,,,,,,,,,,,,,,,,,,,,,,
,,,q,0,1.8328,1,0.326249714,#f3af84,,right_orange.png,p,1,1,5,0,1,o,right_blue.png,right_orange.png,p,left,610061b90293e0558628845b,001,2021-08-01_12h18.18.359,arrow_simon_norep,2021.1.2,Win32,143.6988073,,,,,,,,,,,,,,,,,,,,,,,,,,,,,,,,,,,,,,
,,,o,1,4.3425,0,0.709816825,#a3d0fb,,right_blue.png,o,1,2,6,1,1,o,right_blue.png,right_orange.png,p,right,610061b90293e0558628845b,001,2021-08-01_12h18.18.359,arrow_simon_norep,2021.1.2,Win32,143.6988073,,,,,,,,,,,,,,,,,,,,,,,,,,,,,,,,,,,,,,
,,,w,0,1.5892,1,0.162430213,#f3af84,,left_orange.png,q,1,3,7,2,1,w,left_blue.png,left_orange.png,q,left,610061b90293e0558628845b,001,2021-08-01_12h18.18.359,arrow_simon_norep,2021.1.2,Win32,143.6988073,,,,,,,,,,,,,,,,,,,,,,,,,,,,,,,,,,,,,,
,,,o,1,3.0917,0,0.465470375,#a3d0fb,,right_blue.png,o,2,0,8,1,1,o,right_blue.png,right_orange.png,p,right,610061b90293e0558628845b,001,2021-08-01_12h18.18.359,arrow_simon_norep,2021.1.2,Win32,143.6988073,,,,,,,,,,,,,,,,,,,,,,,,,,,,,,,,,,,,,,
,,,p,1,2.2981,0,0.283809592,#f3af84,,right_orange.png,p,2,1,9,0,1,o,right_blue.png,right_orange.png,p,left,610061b90293e0558628845b,001,2021-08-01_12h18.18.359,arrow_simon_norep,2021.1.2,Win32,143.6988073,,,,,,,,,,,,,,,,,,,,,,,,,,,,,,,,,,,,,,
,,,w,1,1.6391,0,0.785831309,#a3d0fb,,left_blue.png,w,2,2,10,3,1,w,left_blue.png,left_orange.png,q,right,610061b90293e0558628845b,001,2021-08-01_12h18.18.359,arrow_simon_norep,2021.1.2,Win32,143.6988073,,,,,,,,,,,,,,,,,,,,,,,,,,,,,,,,,,,,,,
,,,p,1,2.3809,0,0.638159745,#f3af84,,right_orange.png,p,2,3,11,0,1,o,right_blue.png,right_orange.png,p,left,610061b90293e0558628845b,001,2021-08-01_12h18.18.359,arrow_simon_norep,2021.1.2,Win32,143.6988073,,,,,,,,,,,,,,,,,,,,,,,,,,,,,,,,,,,,,,
,,,w,1,6.6897,0,0.934726673,#a3d0fb,,left_blue.png,w,3,0,12,2,1,w,left_blue.png,left_orange.png,q,left,610061b90293e0558628845b,001,2021-08-01_12h18.18.359,arrow_simon_norep,2021.1.2,Win32,143.6988073,,,,,,,,,,,,,,,,,,,,,,,,,,,,,,,,,,,,,,
,,,q,1,3.5869,0,0.91346763,#f3af84,,left_orange.png,q,3,1,13,3,1,w,left_blue.png,left_orange.png,q,right,610061b90293e0558628845b,001,2021-08-01_12h18.18.359,arrow_simon_norep,2021.1.2,Win32,143.6988073,,,,,,,,,,,,,,,,,,,,,,,,,,,,,,,,,,,,,,
,,,o,1,1.9905,0,0.045340166,#a3d0fb,,right_blue.png,o,3,2,14,0,1,o,right_blue.png,right_orange.png,p,left,610061b90293e0558628845b,001,2021-08-01_12h18.18.359,arrow_simon_norep,2021.1.2,Win32,143.6988073,,,,,,,,,,,,,,,,,,,,,,,,,,,,,,,,,,,,,,
,,,q,1,3.1391,0,0.609947762,#f3af84,,left_orange.png,q,3,3,15,3,1,w,left_blue.png,left_orange.png,q,right,610061b90293e0558628845b,001,2021-08-01_12h18.18.359,arrow_simon_norep,2021.1.2,Win32,143.6988073,,,,,,,,,,,,,,,,,,,,,,,,,,,,,,,,,,,,,,
,,,w,1,1.7138,0,0.966190762,#a3d0fb,,left_blue.png,w,4,0,16,2,1,w,left_blue.png,left_orange.png,q,left,610061b90293e0558628845b,001,2021-08-01_12h18.18.359,arrow_simon_norep,2021.1.2,Win32,143.6988073,,,,,,,,,,,,,,,,,,,,,,,,,,,,,,,,,,,,,,
,,,q,1,1.732,0,0.921150103,#f3af84,,left_orange.png,q,4,1,17,2,1,w,left_blue.png,left_orange.png,q,left,610061b90293e0558628845b,001,2021-08-01_12h18.18.359,arrow_simon_norep,2021.1.2,Win32,143.6988073,,,,,,,,,,,,,,,,,,,,,,,,,,,,,,,,,,,,,,
,,,w,1,1.0746,0,0.340270172,#a3d0fb,,left_blue.png,w,4,2,18,3,1,w,left_blue.png,left_orange.png,q,right,610061b90293e0558628845b,001,2021-08-01_12h18.18.359,arrow_simon_norep,2021.1.2,Win32,143.6988073,,,,,,,,,,,,,,,,,,,,,,,,,,,,,,,,,,,,,,
,,,p,1,1.4585,0,0.797881392,#f3af84,,right_orange.png,p,4,3,19,1,1,o,right_blue.png,right_orange.png,p,right,610061b90293e0558628845b,001,2021-08-01_12h18.18.359,arrow_simon_norep,2021.1.2,Win32,143.6988073,,,,,,,,,,,,,,,,,,,,,,,,,,,,,,,,,,,,,,
,,,o,1,0.6289,0,0.170215218,#a3d0fb,,right_blue.png,o,5,0,20,0,1,o,right_blue.png,right_orange.png,p,left,610061b90293e0558628845b,001,2021-08-01_12h18.18.359,arrow_simon_norep,2021.1.2,Win32,143.6988073,,,,,,,,,,,,,,,,,,,,,,,,,,,,,,,,,,,,,,
,,,q,1,1.1676,0,0.278311111,#f3af84,,left_orange.png,q,5,1,21,2,1,w,left_blue.png,left_orange.png,q,left,610061b90293e0558628845b,001,2021-08-01_12h18.18.359,arrow_simon_norep,2021.1.2,Win32,143.6988073,,,,,,,,,,,,,,,,,,,,,,,,,,,,,,,,,,,,,,
,,,w,1,1.1573,0,0.459980734,#a3d0fb,,left_blue.png,w,5,2,22,2,1,w,left_blue.png,left_orange.png,q,left,610061b90293e0558628845b,001,2021-08-01_12h18.18.359,arrow_simon_norep,2021.1.2,Win32,143.6988073,,,,,,,,,,,,,,,,,,,,,,,,,,,,,,,,,,,,,,
,,,p,1,1.5383,0,0.819427095,#f3af84,,right_orange.png,p,5,3,23,1,1,o,right_blue.png,right_orange.png,p,right,610061b90293e0558628845b,001,2021-08-01_12h18.18.359,arrow_simon_norep,2021.1.2,Win32,143.6988073,,,,,,,,,,,,,,,,,,,,,,,,,,,,,,,,,,,,,,
,,,o,1,1.0757,0,0.683302587,#a3d0fb,,right_blue.png,o,6,0,24,1,1,o,right_blue.png,right_orange.png,p,right,610061b90293e0558628845b,001,2021-08-01_12h18.18.359,arrow_simon_norep,2021.1.2,Win32,143.6988073,,,,,,,,,,,,,,,,,,,,,,,,,,,,,,,,,,,,,,
,,,p,1,2.7113,0,0.810072764,#f3af84,,right_orange.png,p,6,1,25,0,1,o,right_blue.png,right_orange.png,p,left,610061b90293e0558628845b,001,2021-08-01_12h18.18.359,arrow_simon_norep,2021.1.2,Win32,143.6988073,,,,,,,,,,,,,,,,,,,,,,,,,,,,,,,,,,,,,,
,,,w,1,1.7495,0,0.535567481,#a3d0fb,,left_blue.png,w,6,2,26,3,1,w,left_blue.png,left_orange.png,q,right,610061b90293e0558628845b,001,2021-08-01_12h18.18.359,arrow_simon_norep,2021.1.2,Win32,143.6988073,,,,,,,,,,,,,,,,,,,,,,,,,,,,,,,,,,,,,,
,,,q,1,1.0042,0,0.206256875,#f3af84,,left_orange.png,q,6,3,27,3,1,w,left_blue.png,left_orange.png,q,right,610061b90293e0558628845b,001,2021-08-01_12h18.18.359,arrow_simon_norep,2021.1.2,Win32,143.6988073,,,,,,,,,,,,,,,,,,,,,,,,,,,,,,,,,,,,,,
,,,w,1,1.3896,0,0.60695989,#a3d0fb,,left_blue.png,w,7,0,28,2,1,w,left_blue.png,left_orange.png,q,left,610061b90293e0558628845b,001,2021-08-01_12h18.18.359,arrow_simon_norep,2021.1.2,Win32,143.6988073,,,,,,,,,,,,,,,,,,,,,,,,,,,,,,,,,,,,,,
,,,p,1,1.5031,0,0.590114819,#f3af84,,right_orange.png,p,7,1,29,1,1,o,right_blue.png,right_orange.png,p,right,610061b90293e0558628845b,001,2021-08-01_12h18.18.359,arrow_simon_norep,2021.1.2,Win32,143.6988073,,,,,,,,,,,,,,,,,,,,,,,,,,,,,,,,,,,,,,
,,,w,1,1.4321,0,0.617362739,#a3d0fb,,left_blue.png,w,7,2,30,3,1,w,left_blue.png,left_orange.png,q,right,610061b90293e0558628845b,001,2021-08-01_12h18.18.359,arrow_simon_norep,2021.1.2,Win32,143.6988073,,,,,,,,,,,,,,,,,,,,,,,,,,,,,,,,,,,,,,
,,,q,1,1.9008,0,0.013220226,#f3af84,,left_orange.png,q,7,3,31,2,1,w,left_blue.png,left_orange.png,q,left,610061b90293e0558628845b,001,2021-08-01_12h18.18.359,arrow_simon_norep,2021.1.2,Win32,143.6988073,,,,,,,,,,,,,,,,,,,,,,,,,,,,,,,,,,,,,,
,,,w,1,3.3907,0,0.035297963,#a3d0fb,,left_blue.png,w,8,0,32,3,1,w,left_blue.png,left_orange.png,q,right,610061b90293e0558628845b,001,2021-08-01_12h18.18.359,arrow_simon_norep,2021.1.2,Win32,143.6988073,,,,,,,,,,,,,,,,,,,,,,,,,,,,,,,,,,,,,,
,,,p,1,1.2627,0,0.469134615,#f3af84,,right_orange.png,p,8,1,33,0,1,o,right_blue.png,right_orange.png,p,left,610061b90293e0558628845b,001,2021-08-01_12h18.18.359,arrow_simon_norep,2021.1.2,Win32,143.6988073,,,,,,,,,,,,,,,,,,,,,,,,,,,,,,,,,,,,,,
,,,w,1,1.8729,0,0.689363215,#a3d0fb,,left_blue.png,w,8,2,34,3,1,w,left_blue.png,left_orange.png,q,right,610061b90293e0558628845b,001,2021-08-01_12h18.18.359,arrow_simon_norep,2021.1.2,Win32,143.6988073,,,,,,,,,,,,,,,,,,,,,,,,,,,,,,,,,,,,,,
,,,p,1,4.1391,0,0.686419421,#f3af84,,right_orange.png,p,8,3,35,0,1,o,right_blue.png,right_orange.png,p,left,610061b90293e0558628845b,001,2021-08-01_12h18.18.359,arrow_simon_norep,2021.1.2,Win32,143.6988073,,,,,,,,,,,,,,,,,,,,,,,,,,,,,,,,,,,,,,
,,,w,1,2.0689,0,0.799525141,#a3d0fb,,left_blue.png,w,9,0,36,2,1,w,left_blue.png,left_orange.png,q,left,610061b90293e0558628845b,001,2021-08-01_12h18.18.359,arrow_simon_norep,2021.1.2,Win32,143.6988073,,,,,,,,,,,,,,,,,,,,,,,,,,,,,,,,,,,,,,
,,,q,1,1.6359,0,0.731887362,#f3af84,,left_orange.png,q,9,1,37,2,1,w,left_blue.png,left_orange.png,q,left,610061b90293e0558628845b,001,2021-08-01_12h18.18.359,arrow_simon_norep,2021.1.2,Win32,143.6988073,,,,,,,,,,,,,,,,,,,,,,,,,,,,,,,,,,,,,,
,,,w,1,1.8397,0,0.167010112,#a3d0fb,,left_blue.png,w,9,2,38,2,1,w,left_blue.png,left_orange.png,q,left,610061b90293e0558628845b,001,2021-08-01_12h18.18.359,arrow_simon_norep,2021.1.2,Win32,143.6988073,,,,,,,,,,,,,,,,,,,,,,,,,,,,,,,,,,,,,,
,,,p,1,1.6808,0,0.569645215,#f3af84,,right_orange.png,p,9,3,39,0,1,o,right_blue.png,right_orange.png,p,left,610061b90293e0558628845b,001,2021-08-01_12h18.18.359,arrow_simon_norep,2021.1.2,Win32,143.6988073,,,,,,,,,,,,,,,,,,,,,,,,,,,,,,,,,,,,,,
,,,o,1,2.3145,0,0.906120355,#a3d0fb,,right_blue.png,o,10,0,40,0,1,o,right_blue.png,right_orange.png,p,left,610061b90293e0558628845b,001,2021-08-01_12h18.18.359,arrow_simon_norep,2021.1.2,Win32,143.6988073,,,,,,,,,,,,,,,,,,,,,,,,,,,,,,,,,,,,,,
,,,q,1,1.979,0,0.26870641,#f3af84,,left_orange.png,q,10,1,41,3,1,w,left_blue.png,left_orange.png,q,right,610061b90293e0558628845b,001,2021-08-01_12h18.18.359,arrow_simon_norep,2021.1.2,Win32,143.6988073,,,,,,,,,,,,,,,,,,,,,,,,,,,,,,,,,,,,,,
,,,w,1,0.9389,0,0.250109576,#a3d0fb,,left_blue.png,w,10,2,42,2,1,w,left_blue.png,left_orange.png,q,left,610061b90293e0558628845b,001,2021-08-01_12h18.18.359,arrow_simon_norep,2021.1.2,Win32,143.6988073,,,,,,,,,,,,,,,,,,,,,,,,,,,,,,,,,,,,,,
,,,q,1,1.2002,0,0.524983432,#f3af84,,left_orange.png,q,10,3,43,3,1,w,left_blue.png,left_orange.png,q,right,610061b90293e0558628845b,001,2021-08-01_12h18.18.359,arrow_simon_norep,2021.1.2,Win32,143.6988073,,,,,,,,,,,,,,,,,,,,,,,,,,,,,,,,,,,,,,
,,,o,1,0.977,0,0.114614107,#a3d0fb,,right_blue.png,o,11,0,44,0,1,o,right_blue.png,right_orange.png,p,left,610061b90293e0558628845b,001,2021-08-01_12h18.18.359,arrow_simon_norep,2021.1.2,Win32,143.6988073,,,,,,,,,,,,,,,,,,,,,,,,,,,,,,,,,,,,,,
,,,p,1,1.5311,0,0.539621826,#f3af84,,right_orange.png,p,11,1,45,1,1,o,right_blue.png,right_orange.png,p,right,610061b90293e0558628845b,001,2021-08-01_12h18.18.359,arrow_simon_norep,2021.1.2,Win32,143.6988073,,,,,,,,,,,,,,,,,,,,,,,,,,,,,,,,,,,,,,
,,,w,1,1.0895,0,0.259789136,#a3d0fb,,left_blue.png,w,11,2,46,2,1,w,left_blue.png,left_orange.png,q,left,610061b90293e0558628845b,001,2021-08-01_12h18.18.359,arrow_simon_norep,2021.1.2,Win32,143.6988073,,,,,,,,,,,,,,,,,,,,,,,,,,,,,,,,,,,,,,
,,,p,1,1.3274,0,0.390611516,#f3af84,,right_orange.png,p,11,3,47,1,1,o,right_blue.png,right_orange.png,p,right,610061b90293e0558628845b,001,2021-08-01_12h18.18.359,arrow_simon_norep,2021.1.2,Win32,143.6988073,,,,,,,,,,,,,,,,,,,,,,,,,,,,,,,,,,,,,,
,,,o,1,1.7456,0,0.943931657,#a3d0fb,,right_blue.png,o,12,0,48,1,1,o,right_blue.png,right_orange.png,p,right,610061b90293e0558628845b,001,2021-08-01_12h18.18.359,arrow_simon_norep,2021.1.2,Win32,143.6988073,,,,,,,,,,,,,,,,,,,,,,,,,,,,,,,,,,,,,,
,,,p,1,2.1806,0,0.928397528,#f3af84,,right_orange.png,p,12,1,49,0,1,o,right_blue.png,right_orange.png,p,left,610061b90293e0558628845b,001,2021-08-01_12h18.18.359,arrow_simon_norep,2021.1.2,Win32,143.6988073,,,,,,,,,,,,,,,,,,,,,,,,,,,,,,,,,,,,,,
,,,o,1,0.6476,0,0.325270026,#a3d0fb,,right_blue.png,o,12,2,50,1,1,o,right_blue.png,right_orange.png,p,right,610061b90293e0558628845b,001,2021-08-01_12h18.18.359,arrow_simon_norep,2021.1.2,Win32,143.6988073,,,,,,,,,,,,,,,,,,,,,,,,,,,,,,,,,,,,,,
,,,p,1,0.6085,0,0.215390483,#f3af84,,right_orange.png,p,12,3,51,1,1,o,right_blue.png,right_orange.png,p,right,610061b90293e0558628845b,001,2021-08-01_12h18.18.359,arrow_simon_norep,2021.1.2,Win32,143.6988073,,,,,,,,,,,,,,,,,,,,,,,,,,,,,,,,,,,,,,
,,,o,1,1.2492,0,0.768487973,#a3d0fb,,right_blue.png,o,13,0,52,1,1,o,right_blue.png,right_orange.png,p,right,610061b90293e0558628845b,001,2021-08-01_12h18.18.359,arrow_simon_norep,2021.1.2,Win32,143.6988073,,,,,,,,,,,,,,,,,,,,,,,,,,,,,,,,,,,,,,
,,,p,1,0.6242,0,0.125455806,#f3af84,,right_orange.png,p,13,1,53,1,1,o,right_blue.png,right_orange.png,p,right,610061b90293e0558628845b,001,2021-08-01_12h18.18.359,arrow_simon_norep,2021.1.2,Win32,143.6988073,,,,,,,,,,,,,,,,,,,,,,,,,,,,,,,,,,,,,,
,,,o,1,1.3859,0,0.469068629,#a3d0fb,,right_blue.png,o,13,2,54,0,1,o,right_blue.png,right_orange.png,p,left,610061b90293e0558628845b,001,2021-08-01_12h18.18.359,arrow_simon_norep,2021.1.2,Win32,143.6988073,,,,,,,,,,,,,,,,,,,,,,,,,,,,,,,,,,,,,,
,,,q,1,1.1558,0,0.446378455,#f3af84,,left_orange.png,q,13,3,55,2,1,w,left_blue.png,left_orange.png,q,left,610061b90293e0558628845b,001,2021-08-01_12h18.18.359,arrow_simon_norep,2021.1.2,Win32,143.6988073,,,,,,,,,,,,,,,,,,,,,,,,,,,,,,,,,,,,,,
,,,w,1,0.6824,0,0.171715541,#a3d0fb,,left_blue.png,w,14,0,56,3,1,w,left_blue.png,left_orange.png,q,right,610061b90293e0558628845b,001,2021-08-01_12h18.18.359,arrow_simon_norep,2021.1.2,Win32,143.6988073,,,,,,,,,,,,,,,,,,,,,,,,,,,,,,,,,,,,,,
,,,o,0,1.8885,1,0.43257648,#f3af84,,right_orange.png,p,14,1,57,0,1,o,right_blue.png,right_orange.png,p,left,610061b90293e0558628845b,001,2021-08-01_12h18.18.359,arrow_simon_norep,2021.1.2,Win32,143.6988073,,,,,,,,,,,,,,,,,,,,,,,,,,,,,,,,,,,,,,
,,,o,1,0.9083,0,0.410293137,#a3d0fb,,right_blue.png,o,14,2,58,1,1,o,right_blue.png,right_orange.png,p,right,610061b90293e0558628845b,001,2021-08-01_12h18.18.359,arrow_simon_norep,2021.1.2,Win32,143.6988073,,,,,,,,,,,,,,,,,,,,,,,,,,,,,,,,,,,,,,
,,,q,1,1.846,0,0.85329613,#f3af84,,left_orange.png,q,14,3,59,3,1,w,left_blue.png,left_orange.png,q,right,610061b90293e0558628845b,001,2021-08-01_12h18.18.359,arrow_simon_norep,2021.1.2,Win32,143.6988073,,,,,,,,,,,,,,,,,,,,,,,,,,,,,,,,,,,,,,
,,,,,,,,,,,,,,,,,,,,,,610061b90293e0558628845b,001,2021-08-01_12h18.18.359,arrow_simon_norep,2021.1.2,Win32,143.6988073,space,33.2384,0,0,0,0,1,,,,,,,,,,,,,,,,,,,,,,,,,,,,,,,
,,,o,1,2.5462,0,0.427031776,#a3d0fb,,right_blue.png,o,0,0,0,1,1,o,right_blue.png,right_orange.png,p,right,610061b90293e0558628845b,001,2021-08-01_12h18.18.359,arrow_simon_norep,2021.1.2,Win32,143.6988073,,,,,,,,,,,,,,,,,,,,,,,,,,,,,,,,,,,,,,
,,,q,1,1.2278,0,0.75003106,#f3af84,,left_orange.png,q,0,1,1,2,1,w,left_blue.png,left_orange.png,q,left,610061b90293e0558628845b,001,2021-08-01_12h18.18.359,arrow_simon_norep,2021.1.2,Win32,143.6988073,,,,,,,,,,,,,,,,,,,,,,,,,,,,,,,,,,,,,,
,,,w,1,1.3601,0,0.692034931,#a3d0fb,,left_blue.png,w,0,2,2,2,1,w,left_blue.png,left_orange.png,q,left,610061b90293e0558628845b,001,2021-08-01_12h18.18.359,arrow_simon_norep,2021.1.2,Win32,143.6988073,,,,,,,,,,,,,,,,,,,,,,,,,,,,,,,,,,,,,,
,,,q,1,1.1683,0,0.683952429,#f3af84,,left_orange.png,q,0,3,3,3,1,w,left_blue.png,left_orange.png,q,right,610061b90293e0558628845b,001,2021-08-01_12h18.18.359,arrow_simon_norep,2021.1.2,Win32,143.6988073,,,,,,,,,,,,,,,,,,,,,,,,,,,,,,,,,,,,,,
,,,w,1,1.6827,0,0.858452473,#a3d0fb,,left_blue.png,w,1,0,4,3,1,w,left_blue.png,left_orange.png,q,right,610061b90293e0558628845b,001,2021-08-01_12h18.18.359,arrow_simon_norep,2021.1.2,Win32,143.6988073,,,,,,,,,,,,,,,,,,,,,,,,,,,,,,,,,,,,,,
,,,p,1,1.3076,0,0.892177498,#f3af84,,right_orange.png,p,1,1,5,0,1,o,right_blue.png,right_orange.png,p,left,610061b90293e0558628845b,001,2021-08-01_12h18.18.359,arrow_simon_norep,2021.1.2,Win32,143.6988073,,,,,,,,,,,,,,,,,,,,,,,,,,,,,,,,,,,,,,
,,,w,1,1.3549,0,0.892302074,#a3d0fb,,left_blue.png,w,1,2,6,2,1,w,left_blue.png,left_orange.png,q,left,610061b90293e0558628845b,001,2021-08-01_12h18.18.359,arrow_simon_norep,2021.1.2,Win32,143.6988073,,,,,,,,,,,,,,,,,,,,,,,,,,,,,,,,,,,,,,
,,,p,1,0.5007,0,0.061711375,#f3af84,,right_orange.png,p,1,3,7,1,1,o,right_blue.png,right_orange.png,p,right,610061b90293e0558628845b,001,2021-08-01_12h18.18.359,arrow_simon_norep,2021.1.2,Win32,143.6988073,,,,,,,,,,,,,,,,,,,,,,,,,,,,,,,,,,,,,,
,,,o,0,0.9769,1,0.610320772,#a3d0fb,,left_blue.png,w,2,0,8,3,1,w,left_blue.png,left_orange.png,q,right,610061b90293e0558628845b,001,2021-08-01_12h18.18.359,arrow_simon_norep,2021.1.2,Win32,143.6988073,,,,,,,,,,,,,,,,,,,,,,,,,,,,,,,,,,,,,,
,,,p,1,1.9962,0,0.734522088,#f3af84,,right_orange.png,p,2,1,9,1,1,o,right_blue.png,right_orange.png,p,right,610061b90293e0558628845b,001,2021-08-01_12h18.18.359,arrow_simon_norep,2021.1.2,Win32,143.6988073,,,,,,,,,,,,,,,,,,,,,,,,,,,,,,,,,,,,,,
,,,w,1,1.4061,0,0.933388667,#a3d0fb,,left_blue.png,w,2,2,10,2,1,w,left_blue.png,left_orange.png,q,left,610061b90293e0558628845b,001,2021-08-01_12h18.18.359,arrow_simon_norep,2021.1.2,Win32,143.6988073,,,,,,,,,,,,,,,,,,,,,,,,,,,,,,,,,,,,,,
,,,q,1,0.8585,0,0.197076289,#f3af84,,left_orange.png,q,2,3,11,2,1,w,left_blue.png,left_orange.png,q,left,610061b90293e0558628845b,001,2021-08-01_12h18.18.359,arrow_simon_norep,2021.1.2,Win32,143.6988073,,,,,,,,,,,,,,,,,,,,,,,,,,,,,,,,,,,,,,
,,,o,1,1.339,0,0.551421122,#a3d0fb,,right_blue.png,o,3,0,12,0,1,o,right_blue.png,right_orange.png,p,left,610061b90293e0558628845b,001,2021-08-01_12h18.18.359,arrow_simon_norep,2021.1.2,Win32,143.6988073,,,,,,,,,,,,,,,,,,,,,,,,,,,,,,,,,,,,,,
,,,q,1,1.4192,0,0.795851497,#f3af84,,left_orange.png,q,3,1,13,2,1,w,left_blue.png,left_orange.png,q,left,610061b90293e0558628845b,001,2021-08-01_12h18.18.359,arrow_simon_norep,2021.1.2,Win32,143.6988073,,,,,,,,,,,,,,,,,,,,,,,,,,,,,,,,,,,,,,
,,,o,1,1.9277,0,0.39424066,#a3d0fb,,right_blue.png,o,3,2,14,1,1,o,right_blue.png,right_orange.png,p,right,610061b90293e0558628845b,001,2021-08-01_12h18.18.359,arrow_simon_norep,2021.1.2,Win32,143.6988073,,,,,,,,,,,,,,,,,,,,,,,,,,,,,,,,,,,,,,
,,,p,1,1.2167,0,0.643721824,#f3af84,,right_orange.png,p,3,3,15,1,1,o,right_blue.png,right_orange.png,p,right,610061b90293e0558628845b,001,2021-08-01_12h18.18.359,arrow_simon_norep,2021.1.2,Win32,143.6988073,,,,,,,,,,,,,,,,,,,,,,,,,,,,,,,,,,,,,,
,,,o,1,1.1547,0,0.720432436,#a3d0fb,,right_blue.png,o,4,0,16,1,1,o,right_blue.png,right_orange.png,p,right,610061b90293e0558628845b,001,2021-08-01_12h18.18.359,arrow_simon_norep,2021.1.2,Win32,143.6988073,,,,,,,,,,,,,,,,,,,,,,,,,,,,,,,,,,,,,,
,,,p,1,0.9504,0,0.571625394,#f3af84,,right_orange.png,p,4,1,17,1,1,o,right_blue.png,right_orange.png,p,right,610061b90293e0558628845b,001,2021-08-01_12h18.18.359,arrow_simon_norep,2021.1.2,Win32,143.6988073,,,,,,,,,,,,,,,,,,,,,,,,,,,,,,,,,,,,,,
,,,w,1,1.1462,0,0.67237431,#a3d0fb,,left_blue.png,w,4,2,18,3,1,w,left_blue.png,left_orange.png,q,right,610061b90293e0558628845b,001,2021-08-01_12h18.18.359,arrow_simon_norep,2021.1.2,Win32,143.6988073,,,,,,,,,,,,,,,,,,,,,,,,,,,,,,,,,,,,,,
,,,p,1,0.5609,0,0.084700648,#f3af84,,right_orange.png,p,4,3,19,0,1,o,right_blue.png,right_orange.png,p,left,610061b90293e0558628845b,001,2021-08-01_12h18.18.359,arrow_simon_norep,2021.1.2,Win32,143.6988073,,,,,,,,,,,,,,,,,,,,,,,,,,,,,,,,,,,,,,
,,,o,1,1.3779,0,0.771573109,#a3d0fb,,right_blue.png,o,5,0,20,1,1,o,right_blue.png,right_orange.png,p,right,610061b90293e0558628845b,001,2021-08-01_12h18.18.359,arrow_simon_norep,2021.1.2,Win32,143.6988073,,,,,,,,,,,,,,,,,,,,,,,,,,,,,,,,,,,,,,
,,,q,1,0.8174,0,0.489230648,#f3af84,,left_orange.png,q,5,1,21,3,1,w,left_blue.png,left_orange.png,q,right,610061b90293e0558628845b,001,2021-08-01_12h18.18.359,arrow_simon_norep,2021.1.2,Win32,143.6988073,,,,,,,,,,,,,,,,,,,,,,,,,,,,,,,,,,,,,,
,,,w,1,1.4696,0,0.917998313,#a3d0fb,,left_blue.png,w,5,2,22,2,1,w,left_blue.png,left_orange.png,q,left,610061b90293e0558628845b,001,2021-08-01_12h18.18.359,arrow_simon_norep,2021.1.2,Win32,143.6988073,,,,,,,,,,,,,,,,,,,,,,,,,,,,,,,,,,,,,,
,,,p,1,1.1951,0,0.846606641,#f3af84,,right_orange.png,p,5,3,23,1,1,o,right_blue.png,right_orange.png,p,right,610061b90293e0558628845b,001,2021-08-01_12h18.18.359,arrow_simon_norep,2021.1.2,Win32,143.6988073,,,,,,,,,,,,,,,,,,,,,,,,,,,,,,,,,,,,,,
,,,o,1,1.2779,0,0.657105972,#a3d0fb,,right_blue.png,o,6,0,24,0,1,o,right_blue.png,right_orange.png,p,left,610061b90293e0558628845b,001,2021-08-01_12h18.18.359,arrow_simon_norep,2021.1.2,Win32,143.6988073,,,,,,,,,,,,,,,,,,,,,,,,,,,,,,,,,,,,,,
,,,p,1,1.2194,0,0.778145021,#f3af84,,right_orange.png,p,6,1,25,0,1,o,right_blue.png,right_orange.png,p,left,610061b90293e0558628845b,001,2021-08-01_12h18.18.359,arrow_simon_norep,2021.1.2,Win32,143.6988073,,,,,,,,,,,,,,,,,,,,,,,,,,,,,,,,,,,,,,
,,,o,1,0.9686,0,0.322479258,#a3d0fb,,right_blue.png,o,6,2,26,1,1,o,right_blue.png,right_orange.png,p,right,610061b90293e0558628845b,001,2021-08-01_12h18.18.359,arrow_simon_norep,2021.1.2,Win32,143.6988073,,,,,,,,,,,,,,,,,,,,,,,,,,,,,,,,,,,,,,
,,,p,1,1.0803,0,0.682511198,#f3af84,,right_orange.png,p,6,3,27,0,1,o,right_blue.png,right_orange.png,p,left,610061b90293e0558628845b,001,2021-08-01_12h18.18.359,arrow_simon_norep,2021.1.2,Win32,143.6988073,,,,,,,,,,,,,,,,,,,,,,,,,,,,,,,,,,,,,,
,,,o,1,0.6312,0,0.12629321,#a3d0fb,,right_blue.png,o,7,0,28,0,1,o,right_blue.png,right_orange.png,p,left,610061b90293e0558628845b,001,2021-08-01_12h18.18.359,arrow_simon_norep,2021.1.2,Win32,143.6988073,,,,,,,,,,,,,,,,,,,,,,,,,,,,,,,,,,,,,,
,,,p,1,1.0659,0,0.612373299,#f3af84,,right_orange.png,p,7,1,29,1,1,o,right_blue.png,right_orange.png,p,right,610061b90293e0558628845b,001,2021-08-01_12h18.18.359,arrow_simon_norep,2021.1.2,Win32,143.6988073,,,,,,,,,,,,,,,,,,,,,,,,,,,,,,,,,,,,,,
,,,o,1,0.7374,0,0.092521385,#a3d0fb,,right_blue.png,o,7,2,30,0,1,o,right_blue.png,right_orange.png,p,left,610061b90293e0558628845b,001,2021-08-01_12h18.18.359,arrow_simon_norep,2021.1.2,Win32,143.6988073,,,,,,,,,,,,,,,,,,,,,,,,,,,,,,,,,,,,,,
,,,q,1,0.7084,0,0.220577551,#f3af84,,left_orange.png,q,7,3,31,2,1,w,left_blue.png,left_orange.png,q,left,610061b90293e0558628845b,001,2021-08-01_12h18.18.359,arrow_simon_norep,2021.1.2,Win32,143.6988073,,,,,,,,,,,,,,,,,,,,,,,,,,,,,,,,,,,,,,
,,,o,1,1.1462,0,0.669487132,#a3d0fb,,right_blue.png,o,8,0,32,0,1,o,right_blue.png,right_orange.png,p,left,610061b90293e0558628845b,001,2021-08-01_12h18.18.359,arrow_simon_norep,2021.1.2,Win32,143.6988073,,,,,,,,,,,,,,,,,,,,,,,,,,,,,,,,,,,,,,
,,,q,1,1.0961,0,0.661942708,#f3af84,,left_orange.png,q,8,1,33,3,1,w,left_blue.png,left_orange.png,q,right,610061b90293e0558628845b,001,2021-08-01_12h18.18.359,arrow_simon_norep,2021.1.2,Win32,143.6988073,,,,,,,,,,,,,,,,,,,,,,,,,,,,,,,,,,,,,,
,,,o,1,1.0359,0,0.580737586,#a3d0fb,,right_blue.png,o,8,2,34,1,1,o,right_blue.png,right_orange.png,p,right,610061b90293e0558628845b,001,2021-08-01_12h18.18.359,arrow_simon_norep,2021.1.2,Win32,143.6988073,,,,,,,,,,,,,,,,,,,,,,,,,,,,,,,,,,,,,,
,,,p,1,1.051,0,0.68079471,#f3af84,,right_orange.png,p,8,3,35,0,1,o,right_blue.png,right_orange.png,p,left,610061b90293e0558628845b,001,2021-08-01_12h18.18.359,arrow_simon_norep,2021.1.2,Win32,143.6988073,,,,,,,,,,,,,,,,,,,,,,,,,,,,,,,,,,,,,,
,,,w,1,0.514,0,0.000345818,#a3d0fb,,left_blue.png,w,9,0,36,3,1,w,left_blue.png,left_orange.png,q,right,610061b90293e0558628845b,001,2021-08-01_12h18.18.359,arrow_simon_norep,2021.1.2,Win32,143.6988073,,,,,,,,,,,,,,,,,,,,,,,,,,,,,,,,,,,,,,
,,,q,1,1.0782,0,0.196659382,#f3af84,,left_orange.png,q,9,1,37,2,1,w,left_blue.png,left_orange.png,q,left,610061b90293e0558628845b,001,2021-08-01_12h18.18.359,arrow_simon_norep,2021.1.2,Win32,143.6988073,,,,,,,,,,,,,,,,,,,,,,,,,,,,,,,,,,,,,,
,,,w,1,0.8036,0,0.295620698,#a3d0fb,,left_blue.png,w,9,2,38,3,1,w,left_blue.png,left_orange.png,q,right,610061b90293e0558628845b,001,2021-08-01_12h18.18.359,arrow_simon_norep,2021.1.2,Win32,143.6988073,,,,,,,,,,,,,,,,,,,,,,,,,,,,,,,,,,,,,,
,,,p,1,0.5177,0,0.051430805,#f3af84,,right_orange.png,p,9,3,39,0,1,o,right_blue.png,right_orange.png,p,left,610061b90293e0558628845b,001,2021-08-01_12h18.18.359,arrow_simon_norep,2021.1.2,Win32,143.6988073,,,,,,,,,,,,,,,,,,,,,,,,,,,,,,,,,,,,,,
,,,w,1,0.4224,0,0.032543373,#a3d0fb,,left_blue.png,w,10,0,40,2,1,w,left_blue.png,left_orange.png,q,left,610061b90293e0558628845b,001,2021-08-01_12h18.18.359,arrow_simon_norep,2021.1.2,Win32,143.6988073,,,,,,,,,,,,,,,,,,,,,,,,,,,,,,,,,,,,,,
,,,q,1,0.5949,0,0.16010856,#f3af84,,left_orange.png,q,10,1,41,2,1,w,left_blue.png,left_orange.png,q,left,610061b90293e0558628845b,001,2021-08-01_12h18.18.359,arrow_simon_norep,2021.1.2,Win32,143.6988073,,,,,,,,,,,,,,,,,,,,,,,,,,,,,,,,,,,,,,
,,,o,1,1.3568,0,0.971900045,#a3d0fb,,right_blue.png,o,10,2,42,1,1,o,right_blue.png,right_orange.png,p,right,610061b90293e0558628845b,001,2021-08-01_12h18.18.359,arrow_simon_norep,2021.1.2,Win32,143.6988073,,,,,,,,,,,,,,,,,,,,,,,,,,,,,,,,,,,,,,
,,,q,1,1.0571,0,0.700741846,#f3af84,,left_orange.png,q,10,3,43,3,1,w,left_blue.png,left_orange.png,q,right,610061b90293e0558628845b,001,2021-08-01_12h18.18.359,arrow_simon_norep,2021.1.2,Win32,143.6988073,,,,,,,,,,,,,,,,,,,,,,,,,,,,,,,,,,,,,,
,,,w,1,0.8866,0,0.559289995,#a3d0fb,,left_blue.png,w,11,0,44,3,1,w,left_blue.png,left_orange.png,q,right,610061b90293e0558628845b,001,2021-08-01_12h18.18.359,arrow_simon_norep,2021.1.2,Win32,143.6988073,,,,,,,,,,,,,,,,,,,,,,,,,,,,,,,,,,,,,,
,,,q,1,1.1968,0,0.883311802,#f3af84,,left_orange.png,q,11,1,45,2,1,w,left_blue.png,left_orange.png,q,left,610061b90293e0558628845b,001,2021-08-01_12h18.18.359,arrow_simon_norep,2021.1.2,Win32,143.6988073,,,,,,,,,,,,,,,,,,,,,,,,,,,,,,,,,,,,,,
,,,o,1,0.7879,0,0.398214463,#a3d0fb,,right_blue.png,o,11,2,46,0,1,o,right_blue.png,right_orange.png,p,left,610061b90293e0558628845b,001,2021-08-01_12h18.18.359,arrow_simon_norep,2021.1.2,Win32,143.6988073,,,,,,,,,,,,,,,,,,,,,,,,,,,,,,,,,,,,,,
,,,q,1,0.8982,0,0.590693326,#f3af84,,left_orange.png,q,11,3,47,3,1,w,left_blue.png,left_orange.png,q,right,610061b90293e0558628845b,001,2021-08-01_12h18.18.359,arrow_simon_norep,2021.1.2,Win32,143.6988073,,,,,,,,,,,,,,,,,,,,,,,,,,,,,,,,,,,,,,
,,,w,1,0.8183,0,0.410019232,#a3d0fb,,left_blue.png,w,12,0,48,3,1,w,left_blue.png,left_orange.png,q,right,610061b90293e0558628845b,001,2021-08-01_12h18.18.359,arrow_simon_norep,2021.1.2,Win32,143.6988073,,,,,,,,,,,,,,,,,,,,,,,,,,,,,,,,,,,,,,
,,,q,1,0.7441,0,0.425439538,#f3af84,,left_orange.png,q,12,1,49,3,1,w,left_blue.png,left_orange.png,q,right,610061b90293e0558628845b,001,2021-08-01_12h18.18.359,arrow_simon_norep,2021.1.2,Win32,143.6988073,,,,,,,,,,,,,,,,,,,,,,,,,,,,,,,,,,,,,,
,,,q,0,0.7366,1,0.340885398,#a3d0fb,,left_blue.png,w,12,2,50,2,1,w,left_blue.png,left_orange.png,q,left,610061b90293e0558628845b,001,2021-08-01_12h18.18.359,arrow_simon_norep,2021.1.2,Win32,143.6988073,,,,,,,,,,,,,,,,,,,,,,,,,,,,,,,,,,,,,,
,,,p,1,2.1533,0,0.914800262,#f3af84,,right_orange.png,p,12,3,51,0,1,o,right_blue.png,right_orange.png,p,left,610061b90293e0558628845b,001,2021-08-01_12h18.18.359,arrow_simon_norep,2021.1.2,Win32,143.6988073,,,,,,,,,,,,,,,,,,,,,,,,,,,,,,,,,,,,,,
,,,o,1,0.7306,0,0.285096235,#a3d0fb,,right_blue.png,o,13,0,52,1,1,o,right_blue.png,right_orange.png,p,right,610061b90293e0558628845b,001,2021-08-01_12h18.18.359,arrow_simon_norep,2021.1.2,Win32,143.6988073,,,,,,,,,,,,,,,,,,,,,,,,,,,,,,,,,,,,,,
,,,p,1,0.5889,0,0.082823442,#f3af84,,right_orange.png,p,13,1,53,0,1,o,right_blue.png,right_orange.png,p,left,610061b90293e0558628845b,001,2021-08-01_12h18.18.359,arrow_simon_norep,2021.1.2,Win32,143.6988073,,,,,,,,,,,,,,,,,,,,,,,,,,,,,,,,,,,,,,
,,,w,1,0.727,0,0.357233772,#a3d0fb,,left_blue.png,w,13,2,54,2,1,w,left_blue.png,left_orange.png,q,left,610061b90293e0558628845b,001,2021-08-01_12h18.18.359,arrow_simon_norep,2021.1.2,Win32,143.6988073,,,,,,,,,,,,,,,,,,,,,,,,,,,,,,,,,,,,,,
,,,p,1,1.3061,0,0.945474236,#f3af84,,right_orange.png,p,13,3,55,0,1,o,right_blue.png,right_orange.png,p,left,610061b90293e0558628845b,001,2021-08-01_12h18.18.359,arrow_simon_norep,2021.1.2,Win32,143.6988073,,,,,,,,,,,,,,,,,,,,,,,,,,,,,,,,,,,,,,
,,,o,1,1.0342,0,0.684139518,#a3d0fb,,right_blue.png,o,14,0,56,1,1,o,right_blue.png,right_orange.png,p,right,610061b90293e0558628845b,001,2021-08-01_12h18.18.359,arrow_simon_norep,2021.1.2,Win32,143.6988073,,,,,,,,,,,,,,,,,,,,,,,,,,,,,,,,,,,,,,
,,,q,1,1.2235,0,0.853251847,#f3af84,,left_orange.png,q,14,1,57,3,1,w,left_blue.png,left_orange.png,q,right,610061b90293e0558628845b,001,2021-08-01_12h18.18.359,arrow_simon_norep,2021.1.2,Win32,143.6988073,,,,,,,,,,,,,,,,,,,,,,,,,,,,,,,,,,,,,,
,,,w,1,0.7604,0,0.355362482,#a3d0fb,,left_blue.png,w,14,2,58,3,1,w,left_blue.png,left_orange.png,q,right,610061b90293e0558628845b,001,2021-08-01_12h18.18.359,arrow_simon_norep,2021.1.2,Win32,143.6988073,,,,,,,,,,,,,,,,,,,,,,,,,,,,,,,,,,,,,,
,,,q,1,1.2984,0,0.833397245,#f3af84,,left_orange.png,q,14,3,59,2,1,w,left_blue.png,left_orange.png,q,left,610061b90293e0558628845b,001,2021-08-01_12h18.18.359,arrow_simon_norep,2021.1.2,Win32,143.6988073,,,,,,,,,,,,,,,,,,,,,,,,,,,,,,,,,,,,,,
,,,,,,,,,,,,,,,,,,,,,,610061b90293e0558628845b,001,2021-08-01_12h18.18.359,arrow_simon_norep,2021.1.2,Win32,143.6988073,space,10.2035,1,0,1,0,1,,,,,,,,,,,,,,,,,,,,,,,,,,,,,,,
,,,,,,,,,,,,,,,,,,,,,,610061b90293e0558628845b,001,2021-08-01_12h18.18.359,arrow_simon_norep,2021.1.2,Win32,143.6988073,,,,,,,,space,0,42.5848,w,3.0043,0,0,0,0,1,,,,,,,,,,,,,,,,,,,,,
,,,,,,,,,,,,,,,,,,,,,,610061b90293e0558628845b,001,2021-08-01_12h18.18.359,arrow_simon_norep,2021.1.2,Win32,143.6988073,,,,,,,,,,,p,2.84,1,0,1,0,1,,,,,,,,,,,,,,,,,,,,,
,,,,,,,,,,,,,,,,,,,,,,610061b90293e0558628845b,001,2021-08-01_12h18.18.359,arrow_simon_norep,2021.1.2,Win32,143.6988073,,,,,,,,,,,w,2.4871,2,0,2,0,1,,,,,,,,,,,,,,,,,,,,,
,,,,,,,,,,,,,,,,,,,,,,610061b90293e0558628845b,001,2021-08-01_12h18.18.359,arrow_simon_norep,2021.1.2,Win32,143.6988073,,,,,,,,,,,q,2.3946,3,0,3,0,1,,,,,,,,,,,,,,,,,,,,,
,,,,,,,,,,,,,,,,,,,,,,610061b90293e0558628845b,001,2021-08-01_12h18.18.359,arrow_simon_norep,2021.1.2,Win32,143.6988073,,,,,,,,,,,o,2.5622,4,0,4,0,1,,,,,,,,,,,,,,,,,,,,,
,,,,,,,,,,,,,,,,,,,,,,610061b90293e0558628845b,001,2021-08-01_12h18.18.359,arrow_simon_norep,2021.1.2,Win32,143.6988073,,,,,,,,,,,p,2.5263,5,0,5,0,1,,,,,,,,,,,,,,,,,,,,,
,,,,,,,,,,,,,,,,,,,,,,610061b90293e0558628845b,001,2021-08-01_12h18.18.359,arrow_simon_norep,2021.1.2,Win32,143.6988073,,,,,,,,,,,o,2.499,6,0,6,0,1,,,,,,,,,,,,,,,,,,,,,
,,,,,,,,,,,,,,,,,,,,,,610061b90293e0558628845b,001,2021-08-01_12h18.18.359,arrow_simon_norep,2021.1.2,Win32,143.6988073,,,,,,,,,,,p,2.4204,7,0,7,0,1,,,,,,,,,,,,,,,,,,,,,
,,,,,,,,,,,,,,,,,,,,,,610061b90293e0558628845b,001,2021-08-01_12h18.18.359,arrow_simon_norep,2021.1.2,Win32,143.6988073,,,,,,,,,,,o,2.3972,8,0,8,0,1,,,,,,,,,,,,,,,,,,,,,
,,,,,,,,,,,,,,,,,,,,,,610061b90293e0558628845b,001,2021-08-01_12h18.18.359,arrow_simon_norep,2021.1.2,Win32,143.6988073,,,,,,,,,,,p,2.4901,9,0,9,0,1,,,,,,,,,,,,,,,,,,,,,
,,,,,,,,,,,,,,,,,,,,,,610061b90293e0558628845b,001,2021-08-01_12h18.18.359,arrow_simon_norep,2021.1.2,Win32,143.6988073,,,,,,,,,,,o,2.6189,10,0,10,0,1,,,,,,,,,,,,,,,,,,,,,
,,,,,,,,,,,,,,,,,,,,,,610061b90293e0558628845b,001,2021-08-01_12h18.18.359,arrow_simon_norep,2021.1.2,Win32,143.6988073,,,,,,,,,,,w,2.4858,11,0,11,0,1,,,,,,,,,,,,,,,,,,,,,
,,,,,,,,,,,,,,,,,,,,,,610061b90293e0558628845b,001,2021-08-01_12h18.18.359,arrow_simon_norep,2021.1.2,Win32,143.6988073,,,,,,,,,,,w,2.355,12,0,12,0,1,,,,,,,,,,,,,,,,,,,,,
,,,,,,,,,,,,,,,,,,,,,,610061b90293e0558628845b,001,2021-08-01_12h18.18.359,arrow_simon_norep,2021.1.2,Win32,143.6988073,,,,,,,,,,,p,2.4486,13,0,13,0,1,,,,,,,,,,,,,,,,,,,,,
,,,,,,,,,,,,,,,,,,,,,,610061b90293e0558628845b,001,2021-08-01_12h18.18.359,arrow_simon_norep,2021.1.2,Win32,143.6988073,,,,,,,,,,,o,2.4545,14,0,14,0,1,,,,,,,,,,,,,,,,,,,,,
,,,,,,,,,,,,,,,,,,,,,,610061b90293e0558628845b,001,2021-08-01_12h18.18.359,arrow_simon_norep,2021.1.2,Win32,143.6988073,,,,,,,,,,,q,2.55,15,0,15,0,1,,,,,,,,,,,,,,,,,,,,,
,,,,,,,,,,,,,,,,,,,,,,610061b90293e0558628845b,001,2021-08-01_12h18.18.359,arrow_simon_norep,2021.1.2,Win32,143.6988073,,,,,,,,,,,w,2.5636,16,0,16,0,1,,,,,,,,,,,,,,,,,,,,,
,,,,,,,,,,,,,,,,,,,,,,610061b90293e0558628845b,001,2021-08-01_12h18.18.359,arrow_simon_norep,2021.1.2,Win32,143.6988073,,,,,,,,,,,o,2.5808,17,0,17,0,1,,,,,,,,,,,,,,,,,,,,,
,,,,,,,,,,,,,,,,,,,,,,610061b90293e0558628845b,001,2021-08-01_12h18.18.359,arrow_simon_norep,2021.1.2,Win32,143.6988073,,,,,,,,,,,o,2.1859,18,0,18,0,1,,,,,,,,,,,,,,,,,,,,,
,,,,,,,,,,,,,,,,,,,,,,610061b90293e0558628845b,001,2021-08-01_12h18.18.359,arrow_simon_norep,2021.1.2,Win32,143.6988073,,,,,,,,,,,p,2.6782,19,0,19,0,1,,,,,,,,,,,,,,,,,,,,,
,,,,,,,,,,,,,,,,,,,,,,610061b90293e0558628845b,001,2021-08-01_12h18.18.359,arrow_simon_norep,2021.1.2,Win32,143.6988073,,,,,,,,,,,o,2.3506,20,0,20,0,1,,,,,,,,,,,,,,,,,,,,,
,,,,,,,,,,,,,,,,,,,,,,610061b90293e0558628845b,001,2021-08-01_12h18.18.359,arrow_simon_norep,2021.1.2,Win32,143.6988073,,,,,,,,,,,p,2.5767,21,0,21,0,1,,,,,,,,,,,,,,,,,,,,,
,,,,,,,,,,,,,,,,,,,,,,610061b90293e0558628845b,001,2021-08-01_12h18.18.359,arrow_simon_norep,2021.1.2,Win32,143.6988073,,,,,,,,,,,o,2.5555,22,0,22,0,1,,,,,,,,,,,,,,,,,,,,,
,,,,,,,,,,,,,,,,,,,,,,610061b90293e0558628845b,001,2021-08-01_12h18.18.359,arrow_simon_norep,2021.1.2,Win32,143.6988073,,,,,,,,,,,q,2.5396,23,0,23,0,1,,,,,,,,,,,,,,,,,,,,,
,,,,,,,,,,,,,,,,,,,,,,610061b90293e0558628845b,001,2021-08-01_12h18.18.359,arrow_simon_norep,2021.1.2,Win32,143.6988073,,,,,,,,,,,w,2.2,24,0,24,0,1,,,,,,,,,,,,,,,,,,,,,
,,,,,,,,,,,,,,,,,,,,,,610061b90293e0558628845b,001,2021-08-01_12h18.18.359,arrow_simon_norep,2021.1.2,Win32,143.6988073,,,,,,,,,,,p,2.8223,25,0,25,0,1,,,,,,,,,,,,,,,,,,,,,
,,,,,,,,,,,,,,,,,,,,,,610061b90293e0558628845b,001,2021-08-01_12h18.18.359,arrow_simon_norep,2021.1.2,Win32,143.6988073,,,,,,,,,,,o,2.7783,26,0,26,0,1,,,,,,,,,,,,,,,,,,,,,
,,,,,,,,,,,,,,,,,,,,,,610061b90293e0558628845b,001,2021-08-01_12h18.18.359,arrow_simon_norep,2021.1.2,Win32,143.6988073,,,,,,,,,,,p,2.5297,27,0,27,0,1,,,,,,,,,,,,,,,,,,,,,
,,,,,,,,,,,,,,,,,,,,,,610061b90293e0558628845b,001,2021-08-01_12h18.18.359,arrow_simon_norep,2021.1.2,Win32,143.6988073,,,,,,,,,,,o,2.5555,28,0,28,0,1,,,,,,,,,,,,,,,,,,,,,
,,,,,,,,,,,,,,,,,,,,,,610061b90293e0558628845b,001,2021-08-01_12h18.18.359,arrow_simon_norep,2021.1.2,Win32,143.6988073,,,,,,,,,,,p,2.4833,29,0,29,0,1,,,,,,,,,,,,,,,,,,,,,
,,,,,,,,,,,,,,,,,,,,,,610061b90293e0558628845b,001,2021-08-01_12h18.18.359,arrow_simon_norep,2021.1.2,Win32,143.6988073,,,,,,,,,,,o,2.6087,30,0,30,0,1,,,,,,,,,,,,,,,,,,,,,
,,,,,,,,,,,,,,,,,,,,,,610061b90293e0558628845b,001,2021-08-01_12h18.18.359,arrow_simon_norep,2021.1.2,Win32,143.6988073,,,,,,,,,,,p,2.4483,31,0,31,0,1,,,,,,,,,,,,,,,,,,,,,
,,,,,,,,,,,,,,,,,,,,,,610061b90293e0558628845b,001,2021-08-01_12h18.18.359,arrow_simon_norep,2021.1.2,Win32,143.6988073,,,,,,,,,,,o,2.2609,32,0,32,0,1,,,,,,,,,,,,,,,,,,,,,
,,,,,,,,,,,,,,,,,,,,,,610061b90293e0558628845b,001,2021-08-01_12h18.18.359,arrow_simon_norep,2021.1.2,Win32,143.6988073,,,,,,,,,,,p,2.4438,33,0,33,0,1,,,,,,,,,,,,,,,,,,,,,
,,,,,,,,,,,,,,,,,,,,,,610061b90293e0558628845b,001,2021-08-01_12h18.18.359,arrow_simon_norep,2021.1.2,Win32,143.6988073,,,,,,,,,,,w,2.3311,34,0,34,0,1,,,,,,,,,,,,,,,,,,,,,
,,,,,,,,,,,,,,,,,,,,,,610061b90293e0558628845b,001,2021-08-01_12h18.18.359,arrow_simon_norep,2021.1.2,Win32,143.6988073,,,,,,,,,,,p,2.4913,35,0,35,0,1,,,,,,,,,,,,,,,,,,,,,
,,,,,,,,,,,,,,,,,,,,,,610061b90293e0558628845b,001,2021-08-01_12h18.18.359,arrow_simon_norep,2021.1.2,Win32,143.6988073,,,,,,,,,,,o,2.3536,36,0,36,0,1,,,,,,,,,,,,,,,,,,,,,
,,,,,,,,,,,,,,,,,,,,,,610061b90293e0558628845b,001,2021-08-01_12h18.18.359,arrow_simon_norep,2021.1.2,Win32,143.6988073,,,,,,,,,,,p,2.2366,37,0,37,0,1,,,,,,,,,,,,,,,,,,,,,
,,,,,,,,,,,,,,,,,,,,,,610061b90293e0558628845b,001,2021-08-01_12h18.18.359,arrow_simon_norep,2021.1.2,Win32,143.6988073,,,,,,,,,,,o,1.9786,38,0,38,0,1,,,,,,,,,,,,,,,,,,,,,
,,,,,,,,,,,,,,,,,,,,,,610061b90293e0558628845b,001,2021-08-01_12h18.18.359,arrow_simon_norep,2021.1.2,Win32,143.6988073,,,,,,,,,,,p,2.5632,39,0,39,0,1,,,,,,,,,,,,,,,,,,,,,
,,,,,,,,,,,,,,,,,,,,,,610061b90293e0558628845b,001,2021-08-01_12h18.18.359,arrow_simon_norep,2021.1.2,Win32,143.6988073,,,,,,,,,,,o,2.6142,40,0,40,0,1,,,,,,,,,,,,,,,,,,,,,
,,,,,,,,,,,,,,,,,,,,,,610061b90293e0558628845b,001,2021-08-01_12h18.18.359,arrow_simon_norep,2021.1.2,Win32,143.6988073,,,,,,,,,,,p,2.4371,41,0,41,0,1,,,,,,,,,,,,,,,,,,,,,
,,,,,,,,,,,,,,,,,,,,,,610061b90293e0558628845b,001,2021-08-01_12h18.18.359,arrow_simon_norep,2021.1.2,Win32,143.6988073,,,,,,,,,,,o,2.4347,42,0,42,0,1,,,,,,,,,,,,,,,,,,,,,
,,,,,,,,,,,,,,,,,,,,,,610061b90293e0558628845b,001,2021-08-01_12h18.18.359,arrow_simon_norep,2021.1.2,Win32,143.6988073,,,,,,,,,,,p,2.4209,43,0,43,0,1,,,,,,,,,,,,,,,,,,,,,
,,,,,,,,,,,,,,,,,,,,,,610061b90293e0558628845b,001,2021-08-01_12h18.18.359,arrow_simon_norep,2021.1.2,Win32,143.6988073,,,,,,,,,,,w,2.5511,44,0,44,0,1,,,,,,,,,,,,,,,,,,,,,
,,,,,,,,,,,,,,,,,,,,,,610061b90293e0558628845b,001,2021-08-01_12h18.18.359,arrow_simon_norep,2021.1.2,Win32,143.6988073,,,,,,,,,,,q,2.3568,45,0,45,0,1,,,,,,,,,,,,,,,,,,,,,
,,,,,,,,,,,,,,,,,,,,,,610061b90293e0558628845b,001,2021-08-01_12h18.18.359,arrow_simon_norep,2021.1.2,Win32,143.6988073,,,,,,,,,,,w,2.6095,46,0,46,0,1,,,,,,,,,,,,,,,,,,,,,
,,,,,,,,,,,,,,,,,,,,,,610061b90293e0558628845b,001,2021-08-01_12h18.18.359,arrow_simon_norep,2021.1.2,Win32,143.6988073,,,,,,,,,,,q,2.5007,47,0,47,0,1,,,,,,,,,,,,,,,,,,,,,
,,,,,,,,,,,,,,,,,,,,,,610061b90293e0558628845b,001,2021-08-01_12h18.18.359,arrow_simon_norep,2021.1.2,Win32,143.6988073,,,,,,,,,,,w,2.4704,48,0,48,0,1,,,,,,,,,,,,,,,,,,,,,
,,,,,,,,,,,,,,,,,,,,,,610061b90293e0558628845b,001,2021-08-01_12h18.18.359,arrow_simon_norep,2021.1.2,Win32,143.6988073,,,,,,,,,,,p,2.5508,49,0,49,0,1,,,,,,,,,,,,,,,,,,,,,
,,,,,,,,,,,,,,,,,,,,,,610061b90293e0558628845b,001,2021-08-01_12h18.18.359,arrow_simon_norep,2021.1.2,Win32,143.6988073,,,,,,,,,,,o,2.5731,50,0,50,0,1,,,,,,,,,,,,,,,,,,,,,
,,,,,,,,,,,,,,,,,,,,,,610061b90293e0558628845b,001,2021-08-01_12h18.18.359,arrow_simon_norep,2021.1.2,Win32,143.6988073,,,,,,,,,,,q,2.5442,51,0,51,0,1,,,,,,,,,,,,,,,,,,,,,
,,,,,,,,,,,,,,,,,,,,,,610061b90293e0558628845b,001,2021-08-01_12h18.18.359,arrow_simon_norep,2021.1.2,Win32,143.6988073,,,,,,,,,,,w,2.7353,52,0,52,0,1,,,,,,,,,,,,,,,,,,,,,
,,,,,,,,,,,,,,,,,,,,,,610061b90293e0558628845b,001,2021-08-01_12h18.18.359,arrow_simon_norep,2021.1.2,Win32,143.6988073,,,,,,,,,,,p,2.5689,53,0,53,0,1,,,,,,,,,,,,,,,,,,,,,
,,,,,,,,,,,,,,,,,,,,,,610061b90293e0558628845b,001,2021-08-01_12h18.18.359,arrow_simon_norep,2021.1.2,Win32,143.6988073,,,,,,,,,,,w,2.5521,54,0,54,0,1,,,,,,,,,,,,,,,,,,,,,
,,,,,,,,,,,,,,,,,,,,,,610061b90293e0558628845b,001,2021-08-01_12h18.18.359,arrow_simon_norep,2021.1.2,Win32,143.6988073,,,,,,,,,,,q,2.5004,55,0,55,0,1,,,,,,,,,,,,,,,,,,,,,
,,,,,,,,,,,,,,,,,,,,,,610061b90293e0558628845b,001,2021-08-01_12h18.18.359,arrow_simon_norep,2021.1.2,Win32,143.6988073,,,,,,,,,,,o,2.569,56,0,56,0,1,,,,,,,,,,,,,,,,,,,,,
,,,,,,,,,,,,,,,,,,,,,,610061b90293e0558628845b,001,2021-08-01_12h18.18.359,arrow_simon_norep,2021.1.2,Win32,143.6988073,,,,,,,,,,,p,2.5128,57,0,57,0,1,,,,,,,,,,,,,,,,,,,,,
,,,,,,,,,,,,,,,,,,,,,,610061b90293e0558628845b,001,2021-08-01_12h18.18.359,arrow_simon_norep,2021.1.2,Win32,143.6988073,,,,,,,,,,,o,2.5542,58,0,58,0,1,,,,,,,,,,,,,,,,,,,,,
,,,,,,,,,,,,,,,,,,,,,,610061b90293e0558628845b,001,2021-08-01_12h18.18.359,arrow_simon_norep,2021.1.2,Win32,143.6988073,,,,,,,,,,,q,2.6027,59,0,59,0,1,,,,,,,,,,,,,,,,,,,,,
,,,,,,0,1.917695681,#a3d0fb,,right_blue.png,o,,,,,,o,right_blue.png,right_orange.png,p,left,610061b90293e0558628845b,001,2021-08-01_12h18.18.359,arrow_simon_norep,2021.1.2,Win32,143.6988073,,,,,,,,,,,,,,,,,,space,0,48.1799,o,1,1.2869,1,FALSE,TRUE,0,0,0,0,1,,,,,,,
,,,,,,0,1.627393073,#f3af84,,left_orange.png,q,,,,,,w,left_blue.png,left_orange.png,q,right,610061b90293e0558628845b,001,2021-08-01_12h18.18.359,arrow_simon_norep,2021.1.2,Win32,143.6988073,,,,,,,,,,,,,,,,,,,,,q,1,0.9866,2,FALSE,TRUE,0,1,1,3,1,,,,,,,
,,,,,,0,1.529331211,#a3d0fb,,right_blue.png,o,,,,,,o,right_blue.png,right_orange.png,p,left,610061b90293e0558628845b,001,2021-08-01_12h18.18.359,arrow_simon_norep,2021.1.2,Win32,143.6988073,,,,,,,,,,,,,,,,,,,,,o,1,1.778,3,TRUE,FALSE,0,2,2,0,1,,,,,,,
,,,,,,0,2.346489752,#f3af84,,left_orange.png,q,,,,,,w,left_blue.png,left_orange.png,q,right,610061b90293e0558628845b,001,2021-08-01_12h18.18.359,arrow_simon_norep,2021.1.2,Win32,143.6988073,,,,,,,,,,,,,,,,,,,,,q,1,1.7989,4,TRUE,FALSE,0,3,3,3,1,,,,,,,
,,,,,,0,2.149521975,#a3d0fb,,left_blue.png,w,,,,,,w,left_blue.png,left_orange.png,q,right,610061b90293e0558628845b,001,2021-08-01_12h18.18.359,arrow_simon_norep,2021.1.2,Win32,143.6988073,,,,,,,,,,,,,,,,,,,,,w,1,1.4926,5,FALSE,FALSE,1,0,4,3,1,,,,,,,
,,,,,,0,2.407630741,#f3af84,,left_orange.png,q,,,,,,w,left_blue.png,left_orange.png,q,right,610061b90293e0558628845b,001,2021-08-01_12h18.18.359,arrow_simon_norep,2021.1.2,Win32,143.6988073,,,,,,,,,,,,,,,,,,,,,q,1,1.7274,6,TRUE,FALSE,1,1,5,3,1,,,,,,,
,,,,,,0,1.648691344,#a3d0fb,,left_blue.png,w,,,,,,w,left_blue.png,left_orange.png,q,left,610061b90293e0558628845b,001,2021-08-01_12h18.18.359,arrow_simon_norep,2021.1.2,Win32,143.6988073,,,,,,,,,,,,,,,,,,,,,w,1,1.3392,7,FALSE,TRUE,1,2,6,2,1,,,,,,,
,,,,,,0,1.917412098,#f3af84,,left_orange.png,q,,,,,,w,left_blue.png,left_orange.png,q,left,610061b90293e0558628845b,001,2021-08-01_12h18.18.359,arrow_simon_norep,2021.1.2,Win32,143.6988073,,,,,,,,,,,,,,,,,,,,,q,1,1.4029,8,FALSE,FALSE,1,3,7,2,1,,,,,,,
,,,,,,0,2.235766514,#a3d0fb,,right_blue.png,o,,,,,,o,right_blue.png,right_orange.png,p,left,610061b90293e0558628845b,001,2021-08-01_12h18.18.359,arrow_simon_norep,2021.1.2,Win32,143.6988073,,,,,,,,,,,,,,,,,,,,,o,1,1.528,9,FALSE,FALSE,2,0,8,0,1,,,,,,,
,,,,,,0,2.090110264,#f3af84,,right_orange.png,p,,,,,,o,right_blue.png,right_orange.png,p,right,610061b90293e0558628845b,001,2021-08-01_12h18.18.359,arrow_simon_norep,2021.1.2,Win32,143.6988073,,,,,,,,,,,,,,,,,,,,,p,1,1.5281,10,FALSE,FALSE,2,1,9,1,1,,,,,,,
,,,,,,0,1.942160862,#a3d0fb,,right_blue.png,o,,,,,,o,right_blue.png,right_orange.png,p,left,610061b90293e0558628845b,001,2021-08-01_12h18.18.359,arrow_simon_norep,2021.1.2,Win32,143.6988073,,,,,,,,,,,,,,,,,,,,,o,1,1.4237,11,FALSE,FALSE,2,2,10,0,1,,,,,,,
,,,,,,0,2.076061787,#f3af84,,right_orange.png,p,,,,,,o,right_blue.png,right_orange.png,p,left,610061b90293e0558628845b,001,2021-08-01_12h18.18.359,arrow_simon_norep,2021.1.2,Win32,143.6988073,,,,,,,,,,,,,,,,,,,,,p,1,1.3546,12,FALSE,TRUE,2,3,11,0,1,,,,,,,
,,,,,,0,1.682135225,#a3d0fb,,left_blue.png,w,,,,,,w,left_blue.png,left_orange.png,q,left,610061b90293e0558628845b,001,2021-08-01_12h18.18.359,arrow_simon_norep,2021.1.2,Win32,143.6988073,,,,,,,,,,,,,,,,,,,,,w,1,1.5697,13,FALSE,FALSE,3,0,12,2,1,,,,,,,
,,,,,,0,2.130452257,#f3af84,,right_orange.png,p,,,,,,o,right_blue.png,right_orange.png,p,left,610061b90293e0558628845b,001,2021-08-01_12h18.18.359,arrow_simon_norep,2021.1.2,Win32,143.6988073,,,,,,,,,,,,,,,,,,,,,p,1,1.4098,14,FALSE,FALSE,3,1,13,0,1,,,,,,,
,,,,,,0,1.931081944,#a3d0fb,,left_blue.png,w,,,,,,w,left_blue.png,left_orange.png,q,right,610061b90293e0558628845b,001,2021-08-01_12h18.18.359,arrow_simon_norep,2021.1.2,Win32,143.6988073,,,,,,,,,,,,,,,,,,,,,w,1,1.6044,15,TRUE,FALSE,3,2,14,3,1,,,,,,,
,,,,,,0,1.563460087,#f3af84,,left_orange.png,q,,,,,,w,left_blue.png,left_orange.png,q,right,610061b90293e0558628845b,001,2021-08-01_12h18.18.359,arrow_simon_norep,2021.1.2,Win32,143.6988073,,,,,,,,,,,,,,,,,,,,,q,1,1.4446,16,FALSE,FALSE,3,3,15,3,1,,,,,,,
,,,,,,0,1.966923682,#a3d0fb,,left_blue.png,w,,,,,,w,left_blue.png,left_orange.png,q,left,610061b90293e0558628845b,001,2021-08-01_12h18.18.359,arrow_simon_norep,2021.1.2,Win32,143.6988073,,,,,,,,,,,,,,,,,,,,,w,1,1.5332,17,FALSE,FALSE,4,0,16,2,1,,,,,,,
,,,,,,0,1.883677313,#f3af84,,right_orange.png,p,,,,,,o,right_blue.png,right_orange.png,p,left,610061b90293e0558628845b,001,2021-08-01_12h18.18.359,arrow_simon_norep,2021.1.2,Win32,143.6988073,,,,,,,,,,,,,,,,,,,,,p,1,1.51,18,FALSE,FALSE,4,1,17,0,1,,,,,,,
,,,,,,0,2.357355579,#a3d0fb,,left_blue.png,w,,,,,,w,left_blue.png,left_orange.png,q,right,610061b90293e0558628845b,001,2021-08-01_12h18.18.359,arrow_simon_norep,2021.1.2,Win32,143.6988073,,,,,,,,,,,,,,,,,,,,,w,1,1.6058,19,TRUE,FALSE,4,2,18,3,1,,,,,,,
,,,,,,0,1.549515732,#f3af84,,right_orange.png,p,,,,,,o,right_blue.png,right_orange.png,p,right,610061b90293e0558628845b,001,2021-08-01_12h18.18.359,arrow_simon_norep,2021.1.2,Win32,143.6988073,,,,,,,,,,,,,,,,,,,,,p,1,1.5148,20,FALSE,FALSE,4,3,19,1,1,,,,,,,
,,,,,,0,2.217263219,#a3d0fb,,left_blue.png,w,,,,,,w,left_blue.png,left_orange.png,q,left,610061b90293e0558628845b,001,2021-08-01_12h18.18.359,arrow_simon_norep,2021.1.2,Win32,143.6988073,,,,,,,,,,,,,,,,,,,,,w,1,1.4986,21,FALSE,FALSE,5,0,20,2,1,,,,,,,
,,,,,,0,1.570910157,#f3af84,,right_orange.png,p,,,,,,o,right_blue.png,right_orange.png,p,right,610061b90293e0558628845b,001,2021-08-01_12h18.18.359,arrow_simon_norep,2021.1.2,Win32,143.6988073,,,,,,,,,,,,,,,,,,,,,p,1,1.477,22,FALSE,FALSE,5,1,21,1,1,,,,,,,
,,,,,,0,2.365312936,#a3d0fb,,left_blue.png,w,,,,,,w,left_blue.png,left_orange.png,q,left,610061b90293e0558628845b,001,2021-08-01_12h18.18.359,arrow_simon_norep,2021.1.2,Win32,143.6988073,,,,,,,,,,,,,,,,,,,,,o,0,1.6532,23,TRUE,FALSE,5,2,22,2,1,,,,,,,
,,,,,,0,1.918634337,#f3af84,,left_orange.png,q,,,,,,w,left_blue.png,left_orange.png,q,left,610061b90293e0558628845b,001,2021-08-01_12h18.18.359,arrow_simon_norep,2021.1.2,Win32,143.6988073,,,,,,,,,,,,,,,,,,,,,q,1,1.6402,24,TRUE,FALSE,5,3,23,2,1,,,,,,,
,,,,,,0,1.730889495,#a3d0fb,,left_blue.png,w,,,,,,w,left_blue.png,left_orange.png,q,left,610061b90293e0558628845b,001,2021-08-01_12h18.18.359,arrow_simon_norep,2021.1.2,Win32,143.6988073,,,,,,,,,,,,,,,,,,,,,q,0,1.3452,25,FALSE,TRUE,6,0,24,2,1,,,,,,,
,,,,,,0,1.967371989,#f3af84,,left_orange.png,q,,,,,,w,left_blue.png,left_orange.png,q,left,610061b90293e0558628845b,001,2021-08-01_12h18.18.359,arrow_simon_norep,2021.1.2,Win32,143.6988073,,,,,,,,,,,,,,,,,,,,,q,1,1.6529,26,TRUE,FALSE,6,1,25,2,1,,,,,,,
,,,,,,0,1.555555405,#a3d0fb,,right_blue.png,o,,,,,,o,right_blue.png,right_orange.png,p,right,610061b90293e0558628845b,001,2021-08-01_12h18.18.359,arrow_simon_norep,2021.1.2,Win32,143.6988073,,,,,,,,,,,,,,,,,,,,,o,1,1.4477,27,FALSE,FALSE,6,2,26,1,1,,,,,,,
,,,,,,0,2.440067417,#f3af84,,left_orange.png,q,,,,,,w,left_blue.png,left_orange.png,q,left,610061b90293e0558628845b,001,2021-08-01_12h18.18.359,arrow_simon_norep,2021.1.2,Win32,143.6988073,,,,,,,,,,,,,,,,,,,,,q,1,1.6001,28,TRUE,FALSE,6,3,27,2,1,,,,,,,
,,,,,,0,2.456671112,#a3d0fb,,right_blue.png,o,,,,,,o,right_blue.png,right_orange.png,p,right,610061b90293e0558628845b,001,2021-08-01_12h18.18.359,arrow_simon_norep,2021.1.2,Win32,143.6988073,,,,,,,,,,,,,,,,,,,,,o,1,1.6745,29,TRUE,FALSE,7,0,28,1,1,,,,,,,
,,,,,,0,1.813283087,#f3af84,,left_orange.png,q,,,,,,w,left_blue.png,left_orange.png,q,left,610061b90293e0558628845b,001,2021-08-01_12h18.18.359,arrow_simon_norep,2021.1.2,Win32,143.6988073,,,,,,,,,,,,,,,,,,,,,q,1,1.305,30,FALSE,TRUE,7,1,29,2,1,,,,,,,
,,,,,,0,1.826891437,#a3d0fb,,right_blue.png,o,,,,,,o,right_blue.png,right_orange.png,p,right,610061b90293e0558628845b,001,2021-08-01_12h18.18.359,arrow_simon_norep,2021.1.2,Win32,143.6988073,,,,,,,,,,,,,,,,,,,,,o,1,1.5315,31,FALSE,FALSE,7,2,30,1,1,,,,,,,
,,,,,,0,2.475703301,#f3af84,,right_orange.png,p,,,,,,o,right_blue.png,right_orange.png,p,left,610061b90293e0558628845b,001,2021-08-01_12h18.18.359,arrow_simon_norep,2021.1.2,Win32,143.6988073,,,,,,,,,,,,,,,,,,,,,p,1,1.7765,32,TRUE,FALSE,7,3,31,0,1,,,,,,,
,,,,,,1,2.259317966,#a3d0fb,,right_blue.png,o,,,,,,o,right_blue.png,right_orange.png,p,right,610061b90293e0558628845b,001,2021-08-01_12h18.18.359,arrow_simon_norep,2021.1.2,Win32,143.6988073,,,,,,,,,,,,,,,,,,,,,w,0,1.5215,33,FALSE,FALSE,8,0,32,1,1,,,,,,,
,,,,,,1,1.504807024,#f3af84,,right_orange.png,p,,,,,,o,right_blue.png,right_orange.png,p,left,610061b90293e0558628845b,001,2021-08-01_12h18.18.359,arrow_simon_norep,2021.1.2,Win32,143.6988073,,,,,,,,,,,,,,,,,,,,,p,1,1.1724,34,FALSE,TRUE,8,1,33,0,1,,,,,,,
,,,,,,0,2.079418928,#a3d0fb,,right_blue.png,o,,,,,,o,right_blue.png,right_orange.png,p,right,610061b90293e0558628845b,001,2021-08-01_12h18.18.359,arrow_simon_norep,2021.1.2,Win32,143.6988073,,,,,,,,,,,,,,,,,,,,,o,1,1.4887,35,FALSE,FALSE,8,2,34,1,1,,,,,,,
,,,,,,0,1.75929779,#f3af84,,left_orange.png,q,,,,,,w,left_blue.png,left_orange.png,q,right,610061b90293e0558628845b,001,2021-08-01_12h18.18.359,arrow_simon_norep,2021.1.2,Win32,143.6988073,,,,,,,,,,,,,,,,,,,,,q,1,1.358,36,FALSE,TRUE,8,3,35,3,1,,,,,,,
,,,,,,0,1.942327737,#a3d0fb,,right_blue.png,o,,,,,,o,right_blue.png,right_orange.png,p,left,610061b90293e0558628845b,001,2021-08-01_12h18.18.359,arrow_simon_norep,2021.1.2,Win32,143.6988073,,,,,,,,,,,,,,,,,,,,,o,1,1.546,37,FALSE,FALSE,9,0,36,0,1,,,,,,,
,,,,,,0,1.908675201,#f3af84,,left_orange.png,q,,,,,,w,left_blue.png,left_orange.png,q,right,610061b90293e0558628845b,001,2021-08-01_12h18.18.359,arrow_simon_norep,2021.1.2,Win32,143.6988073,,,,,,,,,,,,,,,,,,,,,q,1,1.5664,38,FALSE,FALSE,9,1,37,3,1,,,,,,,
,,,,,,0,2.150279639,#a3d0fb,,left_blue.png,w,,,,,,w,left_blue.png,left_orange.png,q,right,610061b90293e0558628845b,001,2021-08-01_12h18.18.359,arrow_simon_norep,2021.1.2,Win32,143.6988073,,,,,,,,,,,,,,,,,,,,,w,1,1.7054,39,TRUE,FALSE,9,2,38,3,1,,,,,,,
,,,,,,0,2.048622088,#f3af84,,left_orange.png,q,,,,,,w,left_blue.png,left_orange.png,q,left,610061b90293e0558628845b,001,2021-08-01_12h18.18.359,arrow_simon_norep,2021.1.2,Win32,143.6988073,,,,,,,,,,,,,,,,,,,,,q,1,1.5036,40,FALSE,FALSE,9,3,39,2,1,,,,,,,
,,,,,,0,1.984000337,#a3d0fb,,right_blue.png,o,,,,,,o,right_blue.png,right_orange.png,p,left,610061b90293e0558628845b,001,2021-08-01_12h18.18.359,arrow_simon_norep,2021.1.2,Win32,143.6988073,,,,,,,,,,,,,,,,,,,,,o,1,1.4536,41,FALSE,FALSE,10,0,40,0,1,,,,,,,
,,,,,,0,1.629855494,#f3af84,,left_orange.png,q,,,,,,w,left_blue.png,left_orange.png,q,right,610061b90293e0558628845b,001,2021-08-01_12h18.18.359,arrow_simon_norep,2021.1.2,Win32,143.6988073,,,,,,,,,,,,,,,,,,,,,q,1,1.488,42,FALSE,FALSE,10,1,41,3,1,,,,,,,
,,,,,,1,2.217629487,#a3d0fb,,right_blue.png,o,,,,,,o,right_blue.png,right_orange.png,p,left,610061b90293e0558628845b,001,2021-08-01_12h18.18.359,arrow_simon_norep,2021.1.2,Win32,143.6988073,,,,,,,,,,,,,,,,,,,,,w,0,1.4875,43,FALSE,FALSE,10,2,42,0,1,,,,,,,
,,,,,,1,1.518259878,#f3af84,,left_orange.png,q,,,,,,w,left_blue.png,left_orange.png,q,right,610061b90293e0558628845b,001,2021-08-01_12h18.18.359,arrow_simon_norep,2021.1.2,Win32,143.6988073,,,,,,,,,,,,,,,,,,,,,q,1,1.041,44,FALSE,TRUE,10,3,43,3,1,,,,,,,
,,,,,,0,2.041512032,#a3d0fb,,right_blue.png,o,,,,,,o,right_blue.png,right_orange.png,p,left,610061b90293e0558628845b,001,2021-08-01_12h18.18.359,arrow_simon_norep,2021.1.2,Win32,143.6988073,,,,,,,,,,,,,,,,,,,,,o,1,1.5616,45,FALSE,FALSE,11,0,44,0,1,,,,,,,
,,,,,,0,2.334704367,#f3af84,,right_orange.png,p,,,,,,o,right_blue.png,right_orange.png,p,left,610061b90293e0558628845b,001,2021-08-01_12h18.18.359,arrow_simon_norep,2021.1.2,Win32,143.6988073,,,,,,,,,,,,,,,,,,,,,o,0,1.7719,46,TRUE,FALSE,11,1,45,0,1,,,,,,,
,,,,,,0,1.53259277,#a3d0fb,,right_blue.png,o,,,,,,o,right_blue.png,right_orange.png,p,left,610061b90293e0558628845b,001,2021-08-01_12h18.18.359,arrow_simon_norep,2021.1.2,Win32,143.6988073,,,,,,,,,,,,,,,,,,,,,o,1,1.1596,47,FALSE,TRUE,11,2,46,0,1,,,,,,,
,,,,,,0,1.775634291,#f3af84,,left_orange.png,q,,,,,,w,left_blue.png,left_orange.png,q,left,610061b90293e0558628845b,001,2021-08-01_12h18.18.359,arrow_simon_norep,2021.1.2,Win32,143.6988073,,,,,,,,,,,,,,,,,,,,,q,1,1.7782,48,TRUE,FALSE,11,3,47,2,1,,,,,,,
,,,,,,0,1.741431904,#a3d0fb,,left_blue.png,w,,,,,,w,left_blue.png,left_orange.png,q,left,610061b90293e0558628845b,001,2021-08-01_12h18.18.359,arrow_simon_norep,2021.1.2,Win32,143.6988073,,,,,,,,,,,,,,,,,,,,,w,1,1.5082,49,FALSE,FALSE,12,0,48,2,1,,,,,,,
,,,,,,0,1.785325423,#f3af84,,right_orange.png,p,,,,,,o,right_blue.png,right_orange.png,p,right,610061b90293e0558628845b,001,2021-08-01_12h18.18.359,arrow_simon_norep,2021.1.2,Win32,143.6988073,,,,,,,,,,,,,,,,,,,,,p,1,1.5663,50,FALSE,FALSE,12,1,49,1,1,,,,,,,
,,,,,,0,2.36783584,#a3d0fb,,right_blue.png,o,,,,,,o,right_blue.png,right_orange.png,p,right,610061b90293e0558628845b,001,2021-08-01_12h18.18.359,arrow_simon_norep,2021.1.2,Win32,143.6988073,,,,,,,,,,,,,,,,,,,,,o,1,1.7817,51,TRUE,FALSE,12,2,50,1,1,,,,,,,
,,,,,,0,1.837902633,#f3af84,,left_orange.png,q,,,,,,w,left_blue.png,left_orange.png,q,right,610061b90293e0558628845b,001,2021-08-01_12h18.18.359,arrow_simon_norep,2021.1.2,Win32,143.6988073,,,,,,,,,,,,,,,,,,,,,w,0,1.6516,52,TRUE,FALSE,12,3,51,3,1,,,,,,,
,,,,,,0,1.728423472,#a3d0fb,,right_blue.png,o,,,,,,o,right_blue.png,right_orange.png,p,right,610061b90293e0558628845b,001,2021-08-01_12h18.18.359,arrow_simon_norep,2021.1.2,Win32,143.6988073,,,,,,,,,,,,,,,,,,,,,o,1,1.5425,53,FALSE,FALSE,13,0,52,1,1,,,,,,,
,,,,,,0,2.175254456,#f3af84,,right_orange.png,p,,,,,,o,right_blue.png,right_orange.png,p,right,610061b90293e0558628845b,001,2021-08-01_12h18.18.359,arrow_simon_norep,2021.1.2,Win32,143.6988073,,,,,,,,,,,,,,,,,,,,,p,1,1.6532,54,TRUE,FALSE,13,1,53,1,1,,,,,,,
,,,,,,0,1.572979591,#a3d0fb,,right_blue.png,o,,,,,,o,right_blue.png,right_orange.png,p,right,610061b90293e0558628845b,001,2021-08-01_12h18.18.359,arrow_simon_norep,2021.1.2,Win32,143.6988073,,,,,,,,,,,,,,,,,,,,,o,1,1.533,55,FALSE,FALSE,13,2,54,1,1,,,,,,,
,,,,,,0,1.991844609,#f3af84,,left_orange.png,q,,,,,,w,left_blue.png,left_orange.png,q,left,610061b90293e0558628845b,001,2021-08-01_12h18.18.359,arrow_simon_norep,2021.1.2,Win32,143.6988073,,,,,,,,,,,,,,,,,,,,,q,1,1.5707,56,FALSE,FALSE,13,3,55,2,1,,,,,,,
,,,,,,0,1.592108162,#a3d0fb,,right_blue.png,o,,,,,,o,right_blue.png,right_orange.png,p,right,610061b90293e0558628845b,001,2021-08-01_12h18.18.359,arrow_simon_norep,2021.1.2,Win32,143.6988073,,,,,,,,,,,,,,,,,,,,,o,1,1.6249,57,TRUE,FALSE,14,0,56,1,1,,,,,,,
,,,,,,0,1.759393074,#f3af84,,left_orange.png,q,,,,,,w,left_blue.png,left_orange.png,q,right,610061b90293e0558628845b,001,2021-08-01_12h18.18.359,arrow_simon_norep,2021.1.2,Win32,143.6988073,,,,,,,,,,,,,,,,,,,,,q,1,1.5052,58,FALSE,FALSE,14,1,57,3,1,,,,,,,
,,,,,,0,1.985620955,#a3d0fb,,right_blue.png,o,,,,,,o,right_blue.png,right_orange.png,p,right,610061b90293e0558628845b,001,2021-08-01_12h18.18.359,arrow_simon_norep,2021.1.2,Win32,143.6988073,,,,,,,,,,,,,,,,,,,,,o,1,1.8097,59,TRUE,FALSE,14,2,58,1,1,,,,,,,
,,,,,,0,2.397781287,#f3af84,,left_orange.png,q,,,,,,w,left_blue.png,left_orange.png,q,right,610061b90293e0558628845b,001,2021-08-01_12h18.18.359,arrow_simon_norep,2021.1.2,Win32,143.6988073,,,,,,,,,,,,,,,,,,,,,q,1,1.7446,60,TRUE,FALSE,14,3,59,3,1,,,,,,,
,,,,,,,,,,,,,,,,,,,,,,610061b90293e0558628845b,001,2021-08-01_12h18.18.359,arrow_simon_norep,2021.1.2,Win32,143.6988073,,,,,,,,,,,,,,,,,,,,,,,,,,,,,,,,space,16.689,0,0,0,0,1
,,,,,,0,1.613135905,#a3d0fb,,left_blue.png,w,,,,,,w,left_blue.png,left_orange.png,q,left,610061b90293e0558628845b,001,2021-08-01_12h18.18.359,arrow_simon_norep,2021.1.2,Win32,143.6988073,,,,,,,,,,,,,,,,,,,,,w,1,1.556,1,FALSE,FALSE,0,0,0,2,1,,,,,,,
,,,,,,0,2.292916965,#f3af84,,right_orange.png,p,,,,,,o,right_blue.png,right_orange.png,p,left,610061b90293e0558628845b,001,2021-08-01_12h18.18.359,arrow_simon_norep,2021.1.2,Win32,143.6988073,,,,,,,,,,,,,,,,,,,,,p,1,1.6129,2,TRUE,FALSE,0,1,1,0,1,,,,,,,
,,,,,,0,2.40450513,#a3d0fb,,right_blue.png,o,,,,,,o,right_blue.png,right_orange.png,p,left,610061b90293e0558628845b,001,2021-08-01_12h18.18.359,arrow_simon_norep,2021.1.2,Win32,143.6988073,,,,,,,,,,,,,,,,,,,,,o,1,1.6674,3,TRUE,FALSE,0,2,2,0,1,,,,,,,
,,,,,,0,1.791941983,#f3af84,,left_orange.png,q,,,,,,w,left_blue.png,left_orange.png,q,right,610061b90293e0558628845b,001,2021-08-01_12h18.18.359,arrow_simon_norep,2021.1.2,Win32,143.6988073,,,,,,,,,,,,,,,,,,,,,q,1,1.0883,4,FALSE,TRUE,0,3,3,3,1,,,,,,,
,,,,,,0,1.884215537,#a3d0fb,,left_blue.png,w,,,,,,w,left_blue.png,left_orange.png,q,left,610061b90293e0558628845b,001,2021-08-01_12h18.18.359,arrow_simon_norep,2021.1.2,Win32,143.6988073,,,,,,,,,,,,,,,,,,,,,w,1,1.5488,5,FALSE,FALSE,1,0,4,2,1,,,,,,,
,,,,,,0,1.779113573,#f3af84,,right_orange.png,p,,,,,,o,right_blue.png,right_orange.png,p,right,610061b90293e0558628845b,001,2021-08-01_12h18.18.359,arrow_simon_norep,2021.1.2,Win32,143.6988073,,,,,,,,,,,,,,,,,,,,,p,1,1.5396,6,FALSE,FALSE,1,1,5,1,1,,,,,,,
,,,,,,0,1.641802318,#a3d0fb,,left_blue.png,w,,,,,,w,left_blue.png,left_orange.png,q,right,610061b90293e0558628845b,001,2021-08-01_12h18.18.359,arrow_simon_norep,2021.1.2,Win32,143.6988073,,,,,,,,,,,,,,,,,,,,,w,1,1.5047,7,FALSE,FALSE,1,2,6,3,1,,,,,,,
,,,,,,0,2.271573142,#f3af84,,left_orange.png,q,,,,,,w,left_blue.png,left_orange.png,q,left,610061b90293e0558628845b,001,2021-08-01_12h18.18.359,arrow_simon_norep,2021.1.2,Win32,143.6988073,,,,,,,,,,,,,,,,,,,,,q,1,1.5921,8,FALSE,FALSE,1,3,7,2,1,,,,,,,
,,,,,,0,2.121420997,#a3d0fb,,right_blue.png,o,,,,,,o,right_blue.png,right_orange.png,p,left,610061b90293e0558628845b,001,2021-08-01_12h18.18.359,arrow_simon_norep,2021.1.2,Win32,143.6988073,,,,,,,,,,,,,,,,,,,,,o,1,1.5796,9,FALSE,FALSE,2,0,8,0,1,,,,,,,
,,,,,,0,2.479304907,#f3af84,,left_orange.png,q,,,,,,w,left_blue.png,left_orange.png,q,right,610061b90293e0558628845b,001,2021-08-01_12h18.18.359,arrow_simon_norep,2021.1.2,Win32,143.6988073,,,,,,,,,,,,,,,,,,,,,q,1,1.8133,10,TRUE,FALSE,2,1,9,3,1,,,,,,,
,,,,,,0,1.994918166,#a3d0fb,,left_blue.png,w,,,,,,w,left_blue.png,left_orange.png,q,right,610061b90293e0558628845b,001,2021-08-01_12h18.18.359,arrow_simon_norep,2021.1.2,Win32,143.6988073,,,,,,,,,,,,,,,,,,,,,w,1,1.5696,11,FALSE,FALSE,2,2,10,3,1,,,,,,,
,,,,,,0,2.310800755,#f3af84,,right_orange.png,p,,,,,,o,right_blue.png,right_orange.png,p,left,610061b90293e0558628845b,001,2021-08-01_12h18.18.359,arrow_simon_norep,2021.1.2,Win32,143.6988073,,,,,,,,,,,,,,,,,,,,,p,1,1.6309,12,TRUE,FALSE,2,3,11,0,1,,,,,,,
,,,,,,0,2.327976172,#a3d0fb,,right_blue.png,o,,,,,,o,right_blue.png,right_orange.png,p,left,610061b90293e0558628845b,001,2021-08-01_12h18.18.359,arrow_simon_norep,2021.1.2,Win32,143.6988073,,,,,,,,,,,,,,,,,,,,,p,0,1.7097,13,TRUE,FALSE,3,0,12,0,1,,,,,,,
,,,,,,0,1.537400059,#f3af84,,right_orange.png,p,,,,,,o,right_blue.png,right_orange.png,p,left,610061b90293e0558628845b,001,2021-08-01_12h18.18.359,arrow_simon_norep,2021.1.2,Win32,143.6988073,,,,,,,,,,,,,,,,,,,,,p,1,1.5197,14,FALSE,FALSE,3,1,13,0,1,,,,,,,
,,,,,,0,2.46449231,#a3d0fb,,right_blue.png,o,,,,,,o,right_blue.png,right_orange.png,p,right,610061b90293e0558628845b,001,2021-08-01_12h18.18.359,arrow_simon_norep,2021.1.2,Win32,143.6988073,,,,,,,,,,,,,,,,,,,,,o,1,1.7943,15,TRUE,FALSE,3,2,14,1,1,,,,,,,
,,,,,,0,2.37698452,#f3af84,,left_orange.png,q,,,,,,w,left_blue.png,left_orange.png,q,left,610061b90293e0558628845b,001,2021-08-01_12h18.18.359,arrow_simon_norep,2021.1.2,Win32,143.6988073,,,,,,,,,,,,,,,,,,,,,p,0,1.6735,16,TRUE,FALSE,3,3,15,2,1,,,,,,,
,,,,,,0,1.612985571,#a3d0fb,,left_blue.png,w,,,,,,w,left_blue.png,left_orange.png,q,left,610061b90293e0558628845b,001,2021-08-01_12h18.18.359,arrow_simon_norep,2021.1.2,Win32,143.6988073,,,,,,,,,,,,,,,,,,,,,w,1,1.5474,17,FALSE,FALSE,4,0,16,2,1,,,,,,,
,,,,,,0,2.177295941,#f3af84,,left_orange.png,q,,,,,,w,left_blue.png,left_orange.png,q,right,610061b90293e0558628845b,001,2021-08-01_12h18.18.359,arrow_simon_norep,2021.1.2,Win32,143.6988073,,,,,,,,,,,,,,,,,,,,,q,1,1.7768,18,TRUE,FALSE,4,1,17,3,1,,,,,,,
,,,,,,1,1.596744775,#a3d0fb,,right_blue.png,o,,,,,,o,right_blue.png,right_orange.png,p,right,610061b90293e0558628845b,001,2021-08-01_12h18.18.359,arrow_simon_norep,2021.1.2,Win32,143.6988073,,,,,,,,,,,,,,,,,,,,,p,0,1.5285,19,FALSE,FALSE,4,2,18,1,1,,,,,,,
,,,,,,1,1.645172351,#f3af84,,left_orange.png,q,,,,,,w,left_blue.png,left_orange.png,q,right,610061b90293e0558628845b,001,2021-08-01_12h18.18.359,arrow_simon_norep,2021.1.2,Win32,143.6988073,,,,,,,,,,,,,,,,,,,,,q,1,1.6061,20,TRUE,FALSE,4,3,19,3,1,,,,,,,
,,,,,,0,1.75009771,#a3d0fb,,right_blue.png,o,,,,,,o,right_blue.png,right_orange.png,p,left,610061b90293e0558628845b,001,2021-08-01_12h18.18.359,arrow_simon_norep,2021.1.2,Win32,143.6988073,,,,,,,,,,,,,,,,,,,,,o,1,1.4957,21,FALSE,FALSE,5,0,20,0,1,,,,,,,
,,,,,,0,2.339850854,#f3af84,,right_orange.png,p,,,,,,o,right_blue.png,right_orange.png,p,right,610061b90293e0558628845b,001,2021-08-01_12h18.18.359,arrow_simon_norep,2021.1.2,Win32,143.6988073,,,,,,,,,,,,,,,,,,,,,p,1,1.6183,22,TRUE,FALSE,5,1,21,1,1,,,,,,,
,,,,,,0,2.06368138,#a3d0fb,,right_blue.png,o,,,,,,o,right_blue.png,right_orange.png,p,right,610061b90293e0558628845b,001,2021-08-01_12h18.18.359,arrow_simon_norep,2021.1.2,Win32,143.6988073,,,,,,,,,,,,,,,,,,,,,o,1,1.3692,23,FALSE,TRUE,5,2,22,1,1,,,,,,,
,,,,,,0,2.034950321,#f3af84,,left_orange.png,q,,,,,,w,left_blue.png,left_orange.png,q,right,610061b90293e0558628845b,001,2021-08-01_12h18.18.359,arrow_simon_norep,2021.1.2,Win32,143.6988073,,,,,,,,,,,,,,,,,,,,,q,1,1.5318,24,FALSE,FALSE,5,3,23,3,1,,,,,,,
,,,,,,0,2.461599277,#a3d0fb,,left_blue.png,w,,,,,,w,left_blue.png,left_orange.png,q,right,610061b90293e0558628845b,001,2021-08-01_12h18.18.359,arrow_simon_norep,2021.1.2,Win32,143.6988073,,,,,,,,,,,,,,,,,,,,,w,1,1.7187,25,TRUE,FALSE,6,0,24,3,1,,,,,,,
,,,,,,0,2.211272468,#f3af84,,left_orange.png,q,,,,,,w,left_blue.png,left_orange.png,q,right,610061b90293e0558628845b,001,2021-08-01_12h18.18.359,arrow_simon_norep,2021.1.2,Win32,143.6988073,,,,,,,,,,,,,,,,,,,,,q,1,1.7981,26,TRUE,FALSE,6,1,25,3,1,,,,,,,
,,,,,,0,2.15672919,#a3d0fb,,right_blue.png,o,,,,,,o,right_blue.png,right_orange.png,p,right,610061b90293e0558628845b,001,2021-08-01_12h18.18.359,arrow_simon_norep,2021.1.2,Win32,143.6988073,,,,,,,,,,,,,,,,,,,,,o,1,1.664,27,TRUE,FALSE,6,2,26,1,1,,,,,,,
,,,,,,0,1.8857977,#f3af84,,left_orange.png,q,,,,,,w,left_blue.png,left_orange.png,q,left,610061b90293e0558628845b,001,2021-08-01_12h18.18.359,arrow_simon_norep,2021.1.2,Win32,143.6988073,,,,,,,,,,,,,,,,,,,,,q,1,1.6032,28,TRUE,FALSE,6,3,27,2,1,,,,,,,
,,,,,,1,2.376059156,#a3d0fb,,left_blue.png,w,,,,,,w,left_blue.png,left_orange.png,q,right,610061b90293e0558628845b,001,2021-08-01_12h18.18.359,arrow_simon_norep,2021.1.2,Win32,143.6988073,,,,,,,,,,,,,,,,,,,,,o,0,1.52,29,FALSE,FALSE,7,0,28,3,1,,,,,,,
,,,,,,1,2.495051874,#f3af84,,right_orange.png,p,,,,,,o,right_blue.png,right_orange.png,p,left,610061b90293e0558628845b,001,2021-08-01_12h18.18.359,arrow_simon_norep,2021.1.2,Win32,143.6988073,,,,,,,,,,,,,,,,,,,,,p,1,1.7589,30,TRUE,FALSE,7,1,29,0,1,,,,,,,
,,,,,,0,2.17858347,#a3d0fb,,right_blue.png,o,,,,,,o,right_blue.png,right_orange.png,p,right,610061b90293e0558628845b,001,2021-08-01_12h18.18.359,arrow_simon_norep,2021.1.2,Win32,143.6988073,,,,,,,,,,,,,,,,,,,,,o,1,1.4993,31,FALSE,FALSE,7,2,30,1,1,,,,,,,
,,,,,,0,2.32896906,#f3af84,,left_orange.png,q,,,,,,w,left_blue.png,left_orange.png,q,left,610061b90293e0558628845b,001,2021-08-01_12h18.18.359,arrow_simon_norep,2021.1.2,Win32,143.6988073,,,,,,,,,,,,,,,,,,,,,q,1,1.4479,32,FALSE,FALSE,7,3,31,2,1,,,,,,,
,,,,,,0,1.776816695,#a3d0fb,,right_blue.png,o,,,,,,o,right_blue.png,right_orange.png,p,right,610061b90293e0558628845b,001,2021-08-01_12h18.18.359,arrow_simon_norep,2021.1.2,Win32,143.6988073,,,,,,,,,,,,,,,,,,,,,o,1,1.1855,33,FALSE,TRUE,8,0,32,1,1,,,,,,,
,,,,,,0,1.920993907,#f3af84,,right_orange.png,p,,,,,,o,right_blue.png,right_orange.png,p,left,610061b90293e0558628845b,001,2021-08-01_12h18.18.359,arrow_simon_norep,2021.1.2,Win32,143.6988073,,,,,,,,,,,,,,,,,,,,,p,1,1.537,34,FALSE,FALSE,8,1,33,0,1,,,,,,,
,,,,,,0,2.186772466,#a3d0fb,,right_blue.png,o,,,,,,o,right_blue.png,right_orange.png,p,left,610061b90293e0558628845b,001,2021-08-01_12h18.18.359,arrow_simon_norep,2021.1.2,Win32,143.6988073,,,,,,,,,,,,,,,,,,,,,o,1,1.4379,35,FALSE,FALSE,8,2,34,0,1,,,,,,,
,,,,,,0,2.16136776,#f3af84,,right_orange.png,p,,,,,,o,right_blue.png,right_orange.png,p,right,610061b90293e0558628845b,001,2021-08-01_12h18.18.359,arrow_simon_norep,2021.1.2,Win32,143.6988073,,,,,,,,,,,,,,,,,,,,,p,1,1.4584,36,FALSE,FALSE,8,3,35,1,1,,,,,,,
,,,,,,0,1.919900857,#a3d0fb,,left_blue.png,w,,,,,,w,left_blue.png,left_orange.png,q,left,610061b90293e0558628845b,001,2021-08-01_12h18.18.359,arrow_simon_norep,2021.1.2,Win32,143.6988073,,,,,,,,,,,,,,,,,,,,,w,1,1.4337,37,FALSE,FALSE,9,0,36,2,1,,,,,,,
,,,,,,0,2.495911143,#f3af84,,left_orange.png,q,,,,,,w,left_blue.png,left_orange.png,q,right,610061b90293e0558628845b,001,2021-08-01_12h18.18.359,arrow_simon_norep,2021.1.2,Win32,143.6988073,,,,,,,,,,,,,,,,,,,,,o,0,1.3741,38,FALSE,TRUE,9,1,37,3,1,,,,,,,
,,,,,,0,1.763175761,#a3d0fb,,right_blue.png,o,,,,,,o,right_blue.png,right_orange.png,p,right,610061b90293e0558628845b,001,2021-08-01_12h18.18.359,arrow_simon_norep,2021.1.2,Win32,143.6988073,,,,,,,,,,,,,,,,,,,,,o,1,1.3431,39,FALSE,TRUE,9,2,38,1,1,,,,,,,
,,,,,,0,2.414467915,#f3af84,,left_orange.png,q,,,,,,w,left_blue.png,left_orange.png,q,left,610061b90293e0558628845b,001,2021-08-01_12h18.18.359,arrow_simon_norep,2021.1.2,Win32,143.6988073,,,,,,,,,,,,,,,,,,,,,w,0,1.6931,40,TRUE,FALSE,9,3,39,2,1,,,,,,,
,,,,,,0,2.157603714,#a3d0fb,,left_blue.png,w,,,,,,w,left_blue.png,left_orange.png,q,left,610061b90293e0558628845b,001,2021-08-01_12h18.18.359,arrow_simon_norep,2021.1.2,Win32,143.6988073,,,,,,,,,,,,,,,,,,,,,w,1,1.4828,41,FALSE,FALSE,10,0,40,2,1,,,,,,,
,,,,,,1,1.756928579,#f3af84,,left_orange.png,q,,,,,,w,left_blue.png,left_orange.png,q,left,610061b90293e0558628845b,001,2021-08-01_12h18.18.359,arrow_simon_norep,2021.1.2,Win32,143.6988073,,,,,,,,,,,,,,,,,,,,,w,0,1.5457,42,FALSE,FALSE,10,1,41,2,1,,,,,,,
,,,,,,0,1.710126615,#a3d0fb,,right_blue.png,o,,,,,,o,right_blue.png,right_orange.png,p,left,610061b90293e0558628845b,001,2021-08-01_12h18.18.359,arrow_simon_norep,2021.1.2,Win32,143.6988073,,,,,,,,,,,,,,,,,,,,,o,1,1.5599,43,FALSE,FALSE,10,2,42,0,1,,,,,,,
,,,,,,0,1.586076968,#f3af84,,right_orange.png,p,,,,,,o,right_blue.png,right_orange.png,p,right,610061b90293e0558628845b,001,2021-08-01_12h18.18.359,arrow_simon_norep,2021.1.2,Win32,143.6988073,,,,,,,,,,,,,,,,,,,,,p,1,1.5285,44,FALSE,FALSE,10,3,43,1,1,,,,,,,
,,,,,,1,1.8464221,#a3d0fb,,right_blue.png,o,,,,,,o,right_blue.png,right_orange.png,p,right,610061b90293e0558628845b,001,2021-08-01_12h18.18.359,arrow_simon_norep,2021.1.2,Win32,143.6988073,,,,,,,,,,,,,,,,,,,,,p,0,1.4558,45,FALSE,FALSE,11,0,44,1,1,,,,,,,
,,,,,,0,2.0815313,#f3af84,,left_orange.png,q,,,,,,w,left_blue.png,left_orange.png,q,left,610061b90293e0558628845b,001,2021-08-01_12h18.18.359,arrow_simon_norep,2021.1.2,Win32,143.6988073,,,,,,,,,,,,,,,,,,,,,q,1,1.574,46,FALSE,FALSE,11,1,45,2,1,,,,,,,
,,,,,,0,2.491801333,#a3d0fb,,right_blue.png,o,,,,,,o,right_blue.png,right_orange.png,p,left,610061b90293e0558628845b,001,2021-08-01_12h18.18.359,arrow_simon_norep,2021.1.2,Win32,143.6988073,,,,,,,,,,,,,,,,,,,,,o,1,1.6132,47,TRUE,FALSE,11,2,46,0,1,,,,,,,
,,,,,,0,2.469378194,#f3af84,,left_orange.png,q,,,,,,w,left_blue.png,left_orange.png,q,left,610061b90293e0558628845b,001,2021-08-01_12h18.18.359,arrow_simon_norep,2021.1.2,Win32,143.6988073,,,,,,,,,,,,,,,,,,,,,q,1,1.7202,48,TRUE,FALSE,11,3,47,2,1,,,,,,,
,,,,,,0,2.236293228,#a3d0fb,,right_blue.png,o,,,,,,o,right_blue.png,right_orange.png,p,left,610061b90293e0558628845b,001,2021-08-01_12h18.18.359,arrow_simon_norep,2021.1.2,Win32,143.6988073,,,,,,,,,,,,,,,,,,,,,o,1,1.4995,49,FALSE,FALSE,12,0,48,0,1,,,,,,,
,,,,,,0,1.608969496,#f3af84,,right_orange.png,p,,,,,,o,right_blue.png,right_orange.png,p,left,610061b90293e0558628845b,001,2021-08-01_12h18.18.359,arrow_simon_norep,2021.1.2,Win32,143.6988073,,,,,,,,,,,,,,,,,,,,,p,1,1.5694,50,FALSE,FALSE,12,1,49,0,1,,,,,,,
,,,,,,0,2.358985645,#a3d0fb,,right_blue.png,o,,,,,,o,right_blue.png,right_orange.png,p,left,610061b90293e0558628845b,001,2021-08-01_12h18.18.359,arrow_simon_norep,2021.1.2,Win32,143.6988073,,,,,,,,,,,,,,,,,,,,,o,1,1.6729,51,TRUE,FALSE,12,2,50,0,1,,,,,,,
,,,,,,0,2.348783592,#f3af84,,left_orange.png,q,,,,,,w,left_blue.png,left_orange.png,q,right,610061b90293e0558628845b,001,2021-08-01_12h18.18.359,arrow_simon_norep,2021.1.2,Win32,143.6988073,,,,,,,,,,,,,,,,,,,,,q,1,1.6114,52,TRUE,FALSE,12,3,51,3,1,,,,,,,
,,,,,,0,2.416574731,#a3d0fb,,left_blue.png,w,,,,,,w,left_blue.png,left_orange.png,q,right,610061b90293e0558628845b,001,2021-08-01_12h18.18.359,arrow_simon_norep,2021.1.2,Win32,143.6988073,,,,,,,,,,,,,,,,,,,,,w,1,1.5394,53,FALSE,FALSE,13,0,52,3,1,,,,,,,
,,,,,,0,1.79401567,#f3af84,,right_orange.png,p,,,,,,o,right_blue.png,right_orange.png,p,right,610061b90293e0558628845b,001,2021-08-01_12h18.18.359,arrow_simon_norep,2021.1.2,Win32,143.6988073,,,,,,,,,,,,,,,,,,,,,p,1,1.4653,54,FALSE,FALSE,13,1,53,1,1,,,,,,,
,,,,,,0,2.243222581,#a3d0fb,,left_blue.png,w,,,,,,w,left_blue.png,left_orange.png,q,right,610061b90293e0558628845b,001,2021-08-01_12h18.18.359,arrow_simon_norep,2021.1.2,Win32,143.6988073,,,,,,,,,,,,,,,,,,,,,w,1,1.4676,55,FALSE,FALSE,13,2,54,3,1,,,,,,,
,,,,,,0,2.236911026,#f3af84,,right_orange.png,p,,,,,,o,right_blue.png,right_orange.png,p,right,610061b90293e0558628845b,001,2021-08-01_12h18.18.359,arrow_simon_norep,2021.1.2,Win32,143.6988073,,,,,,,,,,,,,,,,,,,,,p,1,1.5634,56,FALSE,FALSE,13,3,55,1,1,,,,,,,
,,,,,,0,1.982329715,#a3d0fb,,left_blue.png,w,,,,,,w,left_blue.png,left_orange.png,q,left,610061b90293e0558628845b,001,2021-08-01_12h18.18.359,arrow_simon_norep,2021.1.2,Win32,143.6988073,,,,,,,,,,,,,,,,,,,,,w,1,1.4397,57,FALSE,FALSE,14,0,56,2,1,,,,,,,
,,,,,,0,2.188242159,#f3af84,,left_orange.png,q,,,,,,w,left_blue.png,left_orange.png,q,left,610061b90293e0558628845b,001,2021-08-01_12h18.18.359,arrow_simon_norep,2021.1.2,Win32,143.6988073,,,,,,,,,,,,,,,,,,,,,q,1,1.5337,58,FALSE,FALSE,14,1,57,2,1,,,,,,,
,,,,,,0,1.948067918,#a3d0fb,,right_blue.png,o,,,,,,o,right_blue.png,right_orange.png,p,right,610061b90293e0558628845b,001,2021-08-01_12h18.18.359,arrow_simon_norep,2021.1.2,Win32,143.6988073,,,,,,,,,,,,,,,,,,,,,o,1,1.561,59,FALSE,FALSE,14,2,58,1,1,,,,,,,
,,,,,,0,1.753606371,#f3af84,,left_orange.png,q,,,,,,w,left_blue.png,left_orange.png,q,right,610061b90293e0558628845b,001,2021-08-01_12h18.18.359,arrow_simon_norep,2021.1.2,Win32,143.6988073,,,,,,,,,,,,,,,,,,,,,q,1,1.5209,60,FALSE,FALSE,14,3,59,3,1,,,,,,,
,,,,,,,,,,,,,,,,,,,,,,610061b90293e0558628845b,001,2021-08-01_12h18.18.359,arrow_simon_norep,2021.1.2,Win32,143.6988073,,,,,,,,,,,,,,,,,,,,,,,,,,,,,,,,space,18.1919,1,0,1,0,1
,,,,,,0,2.302487564,#a3d0fb,,right_blue.png,o,,,,,,o,right_blue.png,right_orange.png,p,right,610061b90293e0558628845b,001,2021-08-01_12h18.18.359,arrow_simon_norep,2021.1.2,Win32,143.6988073,,,,,,,,,,,,,,,,,,,,,o,1,1.6443,1,TRUE,FALSE,0,0,0,1,1,,,,,,,
,,,,,,0,1.97573592,#f3af84,,left_orange.png,q,,,,,,w,left_blue.png,left_orange.png,q,left,610061b90293e0558628845b,001,2021-08-01_12h18.18.359,arrow_simon_norep,2021.1.2,Win32,143.6988073,,,,,,,,,,,,,,,,,,,,,q,1,1.5146,2,FALSE,FALSE,0,1,1,2,1,,,,,,,
,,,,,,0,2.097543519,#a3d0fb,,left_blue.png,w,,,,,,w,left_blue.png,left_orange.png,q,left,610061b90293e0558628845b,001,2021-08-01_12h18.18.359,arrow_simon_norep,2021.1.2,Win32,143.6988073,,,,,,,,,,,,,,,,,,,,,w,1,1.3429,3,FALSE,TRUE,0,2,2,2,1,,,,,,,
,,,,,,0,2.041277356,#f3af84,,left_orange.png,q,,,,,,w,left_blue.png,left_orange.png,q,left,610061b90293e0558628845b,001,2021-08-01_12h18.18.359,arrow_simon_norep,2021.1.2,Win32,143.6988073,,,,,,,,,,,,,,,,,,,,,q,1,1.5316,4,FALSE,FALSE,0,3,3,2,1,,,,,,,
,,,,,,0,1.759608928,#a3d0fb,,right_blue.png,o,,,,,,o,right_blue.png,right_orange.png,p,left,610061b90293e0558628845b,001,2021-08-01_12h18.18.359,arrow_simon_norep,2021.1.2,Win32,143.6988073,,,,,,,,,,,,,,,,,,,,,o,1,1.7747,5,TRUE,FALSE,1,0,4,0,1,,,,,,,
,,,,,,0,2.140783731,#f3af84,,left_orange.png,q,,,,,,w,left_blue.png,left_orange.png,q,right,610061b90293e0558628845b,001,2021-08-01_12h18.18.359,arrow_simon_norep,2021.1.2,Win32,143.6988073,,,,,,,,,,,,,,,,,,,,,p,0,1.3967,6,FALSE,TRUE,1,1,5,3,1,,,,,,,
,,,,,,0,1.893618067,#a3d0fb,,left_blue.png,w,,,,,,w,left_blue.png,left_orange.png,q,left,610061b90293e0558628845b,001,2021-08-01_12h18.18.359,arrow_simon_norep,2021.1.2,Win32,143.6988073,,,,,,,,,,,,,,,,,,,,,w,1,1.5816,7,FALSE,FALSE,1,2,6,2,1,,,,,,,
,,,,,,0,1.621715125,#f3af84,,left_orange.png,q,,,,,,w,left_blue.png,left_orange.png,q,right,610061b90293e0558628845b,001,2021-08-01_12h18.18.359,arrow_simon_norep,2021.1.2,Win32,143.6988073,,,,,,,,,,,,,,,,,,,,,q,1,1.582,8,FALSE,FALSE,1,3,7,3,1,,,,,,,
,,,,,,0,2.047971783,#a3d0fb,,right_blue.png,o,,,,,,o,right_blue.png,right_orange.png,p,right,610061b90293e0558628845b,001,2021-08-01_12h18.18.359,arrow_simon_norep,2021.1.2,Win32,143.6988073,,,,,,,,,,,,,,,,,,,,,o,1,1.4872,9,FALSE,FALSE,2,0,8,1,1,,,,,,,
,,,,,,0,1.773263055,#f3af84,,left_orange.png,q,,,,,,w,left_blue.png,left_orange.png,q,right,610061b90293e0558628845b,001,2021-08-01_12h18.18.359,arrow_simon_norep,2021.1.2,Win32,143.6988073,,,,,,,,,,,,,,,,,,,,,q,1,1.3685,10,FALSE,TRUE,2,1,9,3,1,,,,,,,
,,,,,,0,1.798181994,#a3d0fb,,left_blue.png,w,,,,,,w,left_blue.png,left_orange.png,q,left,610061b90293e0558628845b,001,2021-08-01_12h18.18.359,arrow_simon_norep,2021.1.2,Win32,143.6988073,,,,,,,,,,,,,,,,,,,,,w,1,1.4246,11,FALSE,FALSE,2,2,10,2,1,,,,,,,
,,,,,,0,2.080613136,#f3af84,,right_orange.png,p,,,,,,o,right_blue.png,right_orange.png,p,left,610061b90293e0558628845b,001,2021-08-01_12h18.18.359,arrow_simon_norep,2021.1.2,Win32,143.6988073,,,,,,,,,,,,,,,,,,,,,p,1,1.453,12,FALSE,FALSE,2,3,11,0,1,,,,,,,
,,,,,,0,2.067741524,#a3d0fb,,left_blue.png,w,,,,,,w,left_blue.png,left_orange.png,q,right,610061b90293e0558628845b,001,2021-08-01_12h18.18.359,arrow_simon_norep,2021.1.2,Win32,143.6988073,,,,,,,,,,,,,,,,,,,,,w,1,1.3582,13,FALSE,TRUE,3,0,12,3,1,,,,,,,
,,,,,,0,1.998205784,#f3af84,,right_orange.png,p,,,,,,o,right_blue.png,right_orange.png,p,left,610061b90293e0558628845b,001,2021-08-01_12h18.18.359,arrow_simon_norep,2021.1.2,Win32,143.6988073,,,,,,,,,,,,,,,,,,,,,p,1,1.5344,14,FALSE,FALSE,3,1,13,0,1,,,,,,,
,,,,,,1,2.348432775,#a3d0fb,,right_blue.png,o,,,,,,o,right_blue.png,right_orange.png,p,left,610061b90293e0558628845b,001,2021-08-01_12h18.18.359,arrow_simon_norep,2021.1.2,Win32,143.6988073,,,,,,,,,,,,,,,,,,,,,w,0,1.5636,15,FALSE,FALSE,3,2,14,0,1,,,,,,,
,,,,,,0,1.773105004,#f3af84,,left_orange.png,q,,,,,,w,left_blue.png,left_orange.png,q,left,610061b90293e0558628845b,001,2021-08-01_12h18.18.359,arrow_simon_norep,2021.1.2,Win32,143.6988073,,,,,,,,,,,,,,,,,,,,,q,1,1.4375,16,FALSE,FALSE,3,3,15,2,1,,,,,,,
,,,,,,0,2.230900262,#a3d0fb,,left_blue.png,w,,,,,,w,left_blue.png,left_orange.png,q,left,610061b90293e0558628845b,001,2021-08-01_12h18.18.359,arrow_simon_norep,2021.1.2,Win32,143.6988073,,,,,,,,,,,,,,,,,,,,,w,1,1.5644,17,FALSE,FALSE,4,0,16,2,1,,,,,,,
,,,,,,0,1.742572993,#f3af84,,right_orange.png,p,,,,,,o,right_blue.png,right_orange.png,p,right,610061b90293e0558628845b,001,2021-08-01_12h18.18.359,arrow_simon_norep,2021.1.2,Win32,143.6988073,,,,,,,,,,,,,,,,,,,,,p,1,1.4487,18,FALSE,FALSE,4,1,17,1,1,,,,,,,
,,,,,,0,2.489308101,#a3d0fb,,left_blue.png,w,,,,,,w,left_blue.png,left_orange.png,q,right,610061b90293e0558628845b,001,2021-08-01_12h18.18.359,arrow_simon_norep,2021.1.2,Win32,143.6988073,,,,,,,,,,,,,,,,,,,,,w,1,1.8066,19,TRUE,FALSE,4,2,18,3,1,,,,,,,
,,,,,,1,2.313254507,#f3af84,,right_orange.png,p,,,,,,o,right_blue.png,right_orange.png,p,left,610061b90293e0558628845b,001,2021-08-01_12h18.18.359,arrow_simon_norep,2021.1.2,Win32,143.6988073,,,,,,,,,,,,,,,,,,,,,q,0,1.5054,20,FALSE,FALSE,4,3,19,0,1,,,,,,,
,,,,,,0,2.162346047,#a3d0fb,,right_blue.png,o,,,,,,o,right_blue.png,right_orange.png,p,left,610061b90293e0558628845b,001,2021-08-01_12h18.18.359,arrow_simon_norep,2021.1.2,Win32,143.6988073,,,,,,,,,,,,,,,,,,,,,o,1,1.5361,21,FALSE,FALSE,5,0,20,0,1,,,,,,,
,,,,,,0,1.613734074,#f3af84,,right_orange.png,p,,,,,,o,right_blue.png,right_orange.png,p,left,610061b90293e0558628845b,001,2021-08-01_12h18.18.359,arrow_simon_norep,2021.1.2,Win32,143.6988073,,,,,,,,,,,,,,,,,,,,,p,1,1.4983,22,FALSE,FALSE,5,1,21,0,1,,,,,,,
,,,,,,1,2.187130517,#a3d0fb,,right_blue.png,o,,,,,,o,right_blue.png,right_orange.png,p,right,610061b90293e0558628845b,001,2021-08-01_12h18.18.359,arrow_simon_norep,2021.1.2,Win32,143.6988073,,,,,,,,,,,,,,,,,,,,,w,0,1.5285,23,FALSE,FALSE,5,2,22,1,1,,,,,,,
,,,,,,0,1.727954361,#f3af84,,left_orange.png,q,,,,,,w,left_blue.png,left_orange.png,q,left,610061b90293e0558628845b,001,2021-08-01_12h18.18.359,arrow_simon_norep,2021.1.2,Win32,143.6988073,,,,,,,,,,,,,,,,,,,,,q,1,1.4956,24,FALSE,FALSE,5,3,23,2,1,,,,,,,
,,,,,,1,2.045065774,#a3d0fb,,left_blue.png,w,,,,,,w,left_blue.png,left_orange.png,q,left,610061b90293e0558628845b,001,2021-08-01_12h18.18.359,arrow_simon_norep,2021.1.2,Win32,143.6988073,,,,,,,,,,,,,,,,,,,,,q,0,1.5901,25,FALSE,FALSE,6,0,24,2,1,,,,,,,
,,,,,,0,2.322083281,#f3af84,,right_orange.png,p,,,,,,o,right_blue.png,right_orange.png,p,left,610061b90293e0558628845b,001,2021-08-01_12h18.18.359,arrow_simon_norep,2021.1.2,Win32,143.6988073,,,,,,,,,,,,,,,,,,,,,p,1,1.5674,26,FALSE,FALSE,6,1,25,0,1,,,,,,,
,,,,,,0,2.498793483,#a3d0fb,,left_blue.png,w,,,,,,w,left_blue.png,left_orange.png,q,right,610061b90293e0558628845b,001,2021-08-01_12h18.18.359,arrow_simon_norep,2021.1.2,Win32,143.6988073,,,,,,,,,,,,,,,,,,,,,w,1,1.7589,27,TRUE,FALSE,6,2,26,3,1,,,,,,,
,,,,,,0,2.22046671,#f3af84,,right_orange.png,p,,,,,,o,right_blue.png,right_orange.png,p,left,610061b90293e0558628845b,001,2021-08-01_12h18.18.359,arrow_simon_norep,2021.1.2,Win32,143.6988073,,,,,,,,,,,,,,,,,,,,,p,1,1.7185,28,TRUE,FALSE,6,3,27,0,1,,,,,,,
,,,,,,0,2.393644372,#a3d0fb,,left_blue.png,w,,,,,,w,left_blue.png,left_orange.png,q,left,610061b90293e0558628845b,001,2021-08-01_12h18.18.359,arrow_simon_norep,2021.1.2,Win32,143.6988073,,,,,,,,,,,,,,,,,,,,,w,1,1.5633,29,FALSE,FALSE,7,0,28,2,1,,,,,,,
,,,,,,0,1.658906727,#f3af84,,right_orange.png,p,,,,,,o,right_blue.png,right_orange.png,p,left,610061b90293e0558628845b,001,2021-08-01_12h18.18.359,arrow_simon_norep,2021.1.2,Win32,143.6988073,,,,,,,,,,,,,,,,,,,,,p,1,1.5185,30,FALSE,FALSE,7,1,29,0,1,,,,,,,
,,,,,,0,1.829607132,#a3d0fb,,right_blue.png,o,,,,,,o,right_blue.png,right_orange.png,p,right,610061b90293e0558628845b,001,2021-08-01_12h18.18.359,arrow_simon_norep,2021.1.2,Win32,143.6988073,,,,,,,,,,,,,,,,,,,,,o,1,1.4661,31,FALSE,FALSE,7,2,30,1,1,,,,,,,
,,,,,,0,1.612515045,#f3af84,,left_orange.png,q,,,,,,w,left_blue.png,left_orange.png,q,right,610061b90293e0558628845b,001,2021-08-01_12h18.18.359,arrow_simon_norep,2021.1.2,Win32,143.6988073,,,,,,,,,,,,,,,,,,,,,q,1,1.4621,32,FALSE,FALSE,7,3,31,3,1,,,,,,,
,,,,,,0,2.057944804,#a3d0fb,,right_blue.png,o,,,,,,o,right_blue.png,right_orange.png,p,right,610061b90293e0558628845b,001,2021-08-01_12h18.18.359,arrow_simon_norep,2021.1.2,Win32,143.6988073,,,,,,,,,,,,,,,,,,,,,o,1,1.7585,33,TRUE,FALSE,8,0,32,1,1,,,,,,,
,,,,,,1,2.456617932,#f3af84,,right_orange.png,p,,,,,,o,right_blue.png,right_orange.png,p,left,610061b90293e0558628845b,001,2021-08-01_12h18.18.359,arrow_simon_norep,2021.1.2,Win32,143.6988073,,,,,,,,,,,,,,,,,,,,,q,0,1.5159,34,FALSE,FALSE,8,1,33,0,1,,,,,,,
,,,,,,0,1.641581367,#a3d0fb,,right_blue.png,o,,,,,,o,right_blue.png,right_orange.png,p,right,610061b90293e0558628845b,001,2021-08-01_12h18.18.359,arrow_simon_norep,2021.1.2,Win32,143.6988073,,,,,,,,,,,,,,,,,,,,,o,1,1.5267,35,FALSE,FALSE,8,2,34,1,1,,,,,,,
,,,,,,0,2.055207488,#f3af84,,right_orange.png,p,,,,,,o,right_blue.png,right_orange.png,p,right,610061b90293e0558628845b,001,2021-08-01_12h18.18.359,arrow_simon_norep,2021.1.2,Win32,143.6988073,,,,,,,,,,,,,,,,,,,,,p,1,1.4352,36,FALSE,FALSE,8,3,35,1,1,,,,,,,
,,,,,,0,1.780534023,#a3d0fb,,left_blue.png,w,,,,,,w,left_blue.png,left_orange.png,q,right,610061b90293e0558628845b,001,2021-08-01_12h18.18.359,arrow_simon_norep,2021.1.2,Win32,143.6988073,,,,,,,,,,,,,,,,,,,,,w,1,1.4985,37,FALSE,FALSE,9,0,36,3,1,,,,,,,
,,,,,,0,1.783752019,#f3af84,,left_orange.png,q,,,,,,w,left_blue.png,left_orange.png,q,right,610061b90293e0558628845b,001,2021-08-01_12h18.18.359,arrow_simon_norep,2021.1.2,Win32,143.6988073,,,,,,,,,,,,,,,,,,,,,q,1,1.4423,38,FALSE,FALSE,9,1,37,3,1,,,,,,,
,,,,,,0,2.047070422,#a3d0fb,,left_blue.png,w,,,,,,w,left_blue.png,left_orange.png,q,right,610061b90293e0558628845b,001,2021-08-01_12h18.18.359,arrow_simon_norep,2021.1.2,Win32,143.6988073,,,,,,,,,,,,,,,,,,,,,w,1,1.5307,39,FALSE,FALSE,9,2,38,3,1,,,,,,,
,,,,,,0,2.22550654,#f3af84,,right_orange.png,p,,,,,,o,right_blue.png,right_orange.png,p,left,610061b90293e0558628845b,001,2021-08-01_12h18.18.359,arrow_simon_norep,2021.1.2,Win32,143.6988073,,,,,,,,,,,,,,,,,,,,,p,1,1.6029,40,TRUE,FALSE,9,3,39,0,1,,,,,,,
,,,,,,0,2.033656319,#a3d0fb,,left_blue.png,w,,,,,,w,left_blue.png,left_orange.png,q,right,610061b90293e0558628845b,001,2021-08-01_12h18.18.359,arrow_simon_norep,2021.1.2,Win32,143.6988073,,,,,,,,,,,,,,,,,,,,,w,1,1.3984,41,FALSE,TRUE,10,0,40,3,1,,,,,,,
,,,,,,0,2.342294355,#f3af84,,right_orange.png,p,,,,,,o,right_blue.png,right_orange.png,p,left,610061b90293e0558628845b,001,2021-08-01_12h18.18.359,arrow_simon_norep,2021.1.2,Win32,143.6988073,,,,,,,,,,,,,,,,,,,,,p,1,1.6273,42,TRUE,FALSE,10,1,41,0,1,,,,,,,
,,,,,,0,1.52827379,#a3d0fb,,left_blue.png,w,,,,,,w,left_blue.png,left_orange.png,q,left,610061b90293e0558628845b,001,2021-08-01_12h18.18.359,arrow_simon_norep,2021.1.2,Win32,143.6988073,,,,,,,,,,,,,,,,,,,,,w,1,1.4606,43,FALSE,FALSE,10,2,42,2,1,,,,,,,
,,,,,,0,1.832973546,#f3af84,,left_orange.png,q,,,,,,w,left_blue.png,left_orange.png,q,left,610061b90293e0558628845b,001,2021-08-01_12h18.18.359,arrow_simon_norep,2021.1.2,Win32,143.6988073,,,,,,,,,,,,,,,,,,,,,q,1,1.7056,44,TRUE,FALSE,10,3,43,2,1,,,,,,,
,,,,,,0,2.324995382,#a3d0fb,,left_blue.png,w,,,,,,w,left_blue.png,left_orange.png,q,left,610061b90293e0558628845b,001,2021-08-01_12h18.18.359,arrow_simon_norep,2021.1.2,Win32,143.6988073,,,,,,,,,,,,,,,,,,,,,w,1,1.6279,45,TRUE,FALSE,11,0,44,2,1,,,,,,,
,,,,,,0,1.95743347,#f3af84,,right_orange.png,p,,,,,,o,right_blue.png,right_orange.png,p,right,610061b90293e0558628845b,001,2021-08-01_12h18.18.359,arrow_simon_norep,2021.1.2,Win32,143.6988073,,,,,,,,,,,,,,,,,,,,,p,1,1.5554,46,FALSE,FALSE,11,1,45,1,1,,,,,,,
,,,,,,0,2.488302873,#a3d0fb,,right_blue.png,o,,,,,,o,right_blue.png,right_orange.png,p,left,610061b90293e0558628845b,001,2021-08-01_12h18.18.359,arrow_simon_norep,2021.1.2,Win32,143.6988073,,,,,,,,,,,,,,,,,,,,,w,0,1.6483,47,TRUE,FALSE,11,2,46,0,1,,,,,,,
,,,,,,0,2.020161907,#f3af84,,left_orange.png,q,,,,,,w,left_blue.png,left_orange.png,q,right,610061b90293e0558628845b,001,2021-08-01_12h18.18.359,arrow_simon_norep,2021.1.2,Win32,143.6988073,,,,,,,,,,,,,,,,,,,,,q,1,1.6737,48,TRUE,FALSE,11,3,47,3,1,,,,,,,
,,,,,,1,1.808430081,#a3d0fb,,right_blue.png,o,,,,,,o,right_blue.png,right_orange.png,p,right,610061b90293e0558628845b,001,2021-08-01_12h18.18.359,arrow_simon_norep,2021.1.2,Win32,143.6988073,,,,,,,,,,,,,,,,,,,,,p,0,1.5529,49,FALSE,FALSE,12,0,48,1,1,,,,,,,
,,,,,,1,2.281330642,#f3af84,,right_orange.png,p,,,,,,o,right_blue.png,right_orange.png,p,left,610061b90293e0558628845b,001,2021-08-01_12h18.18.359,arrow_simon_norep,2021.1.2,Win32,143.6988073,,,,,,,,,,,,,,,,,,,,,p,1,1.6162,50,TRUE,FALSE,12,1,49,0,1,,,,,,,
,,,,,,1,2.287995894,#a3d0fb,,right_blue.png,o,,,,,,o,right_blue.png,right_orange.png,p,right,610061b90293e0558628845b,001,2021-08-01_12h18.18.359,arrow_simon_norep,2021.1.2,Win32,143.6988073,,,,,,,,,,,,,,,,,,,,,o,1,1.6089,51,TRUE,FALSE,12,2,50,1,1,,,,,,,
,,,,,,1,2.10893578,#f3af84,,left_orange.png,q,,,,,,w,left_blue.png,left_orange.png,q,right,610061b90293e0558628845b,001,2021-08-01_12h18.18.359,arrow_simon_norep,2021.1.2,Win32,143.6988073,,,,,,,,,,,,,,,,,,,,,q,1,1.3972,52,FALSE,TRUE,12,3,51,3,1,,,,,,,
,,,,,,1,2.393461149,#a3d0fb,,left_blue.png,w,,,,,,w,left_blue.png,left_orange.png,q,left,610061b90293e0558628845b,001,2021-08-01_12h18.18.359,arrow_simon_norep,2021.1.2,Win32,143.6988073,,,,,,,,,,,,,,,,,,,,,w,1,1.6867,53,TRUE,FALSE,13,0,52,2,1,,,,,,,
,,,,,,1,2.436596802,#f3af84,,left_orange.png,q,,,,,,w,left_blue.png,left_orange.png,q,right,610061b90293e0558628845b,001,2021-08-01_12h18.18.359,arrow_simon_norep,2021.1.2,Win32,143.6988073,,,,,,,,,,,,,,,,,,,,,p,0,1.6269,54,TRUE,FALSE,13,1,53,3,1,,,,,,,
,,,,,,0,1.655130087,#a3d0fb,,left_blue.png,w,,,,,,w,left_blue.png,left_orange.png,q,right,610061b90293e0558628845b,001,2021-08-01_12h18.18.359,arrow_simon_norep,2021.1.2,Win32,143.6988073,,,,,,,,,,,,,,,,,,,,,w,1,1.5842,55,FALSE,FALSE,13,2,54,3,1,,,,,,,
,,,,,,0,2.031331241,#f3af84,,left_orange.png,q,,,,,,w,left_blue.png,left_orange.png,q,left,610061b90293e0558628845b,001,2021-08-01_12h18.18.359,arrow_simon_norep,2021.1.2,Win32,143.6988073,,,,,,,,,,,,,,,,,,,,,q,1,1.4417,56,FALSE,FALSE,13,3,55,2,1,,,,,,,
,,,,,,0,1.639617054,#a3d0fb,,right_blue.png,o,,,,,,o,right_blue.png,right_orange.png,p,right,610061b90293e0558628845b,001,2021-08-01_12h18.18.359,arrow_simon_norep,2021.1.2,Win32,143.6988073,,,,,,,,,,,,,,,,,,,,,o,1,1.1732,57,FALSE,TRUE,14,0,56,1,1,,,,,,,
,,,,,,0,2.266177852,#f3af84,,right_orange.png,p,,,,,,o,right_blue.png,right_orange.png,p,right,610061b90293e0558628845b,001,2021-08-01_12h18.18.359,arrow_simon_norep,2021.1.2,Win32,143.6988073,,,,,,,,,,,,,,,,,,,,,p,1,1.54,58,FALSE,FALSE,14,1,57,1,1,,,,,,,
,,,,,,0,1.849872902,#a3d0fb,,right_blue.png,o,,,,,,o,right_blue.png,right_orange.png,p,right,610061b90293e0558628845b,001,2021-08-01_12h18.18.359,arrow_simon_norep,2021.1.2,Win32,143.6988073,,,,,,,,,,,,,,,,,,,,,o,1,1.5269,59,FALSE,FALSE,14,2,58,1,1,,,,,,,
,,,,,,0,2.085277487,#f3af84,,right_orange.png,p,,,,,,o,right_blue.png,right_orange.png,p,right,610061b90293e0558628845b,001,2021-08-01_12h18.18.359,arrow_simon_norep,2021.1.2,Win32,143.6988073,,,,,,,,,,,,,,,,,,,,,p,1,1.5089,60,FALSE,FALSE,14,3,59,1,1,,,,,,,
,,,,,,,,,,,,,,,,,,,,,,610061b90293e0558628845b,001,2021-08-01_12h18.18.359,arrow_simon_norep,2021.1.2,Win32,143.6988073,,,,,,,,,,,,,,,,,,,,,,,,,,,,,,,,space,6.4043,2,0,2,0,1
,,,,,,0,2.357435474,#a3d0fb,,left_blue.png,w,,,,,,w,left_blue.png,left_orange.png,q,right,610061b90293e0558628845b,001,2021-08-01_12h18.18.359,arrow_simon_norep,2021.1.2,Win32,143.6988073,,,,,,,,,,,,,,,,,,,,,q,0,1.6778,1,TRUE,FALSE,0,0,0,3,1,,,,,,,
,,,,,,0,2.039626145,#f3af84,,left_orange.png,q,,,,,,w,left_blue.png,left_orange.png,q,left,610061b90293e0558628845b,001,2021-08-01_12h18.18.359,arrow_simon_norep,2021.1.2,Win32,143.6988073,,,,,,,,,,,,,,,,,,,,,q,1,1.5496,2,FALSE,FALSE,0,1,1,2,1,,,,,,,
,,,,,,0,2.242779243,#a3d0fb,,left_blue.png,w,,,,,,w,left_blue.png,left_orange.png,q,left,610061b90293e0558628845b,001,2021-08-01_12h18.18.359,arrow_simon_norep,2021.1.2,Win32,143.6988073,,,,,,,,,,,,,,,,,,,,,w,1,1.4973,3,FALSE,FALSE,0,2,2,2,1,,,,,,,
,,,,,,0,1.682102835,#f3af84,,left_orange.png,q,,,,,,w,left_blue.png,left_orange.png,q,right,610061b90293e0558628845b,001,2021-08-01_12h18.18.359,arrow_simon_norep,2021.1.2,Win32,143.6988073,,,,,,,,,,,,,,,,,,,,,q,1,1.4892,4,FALSE,FALSE,0,3,3,3,1,,,,,,,
,,,,,,0,2.482473079,#a3d0fb,,left_blue.png,w,,,,,,w,left_blue.png,left_orange.png,q,right,610061b90293e0558628845b,001,2021-08-01_12h18.18.359,arrow_simon_norep,2021.1.2,Win32,143.6988073,,,,,,,,,,,,,,,,,,,,,w,1,1.9221,5,TRUE,FALSE,1,0,4,3,1,,,,,,,
,,,,,,0,1.504752519,#f3af84,,left_orange.png,q,,,,,,w,left_blue.png,left_orange.png,q,left,610061b90293e0558628845b,001,2021-08-01_12h18.18.359,arrow_simon_norep,2021.1.2,Win32,143.6988073,,,,,,,,,,,,,,,,,,,,,q,1,1.7646,6,TRUE,FALSE,1,1,5,2,1,,,,,,,
,,,,,,0,1.517516295,#a3d0fb,,left_blue.png,w,,,,,,w,left_blue.png,left_orange.png,q,right,610061b90293e0558628845b,001,2021-08-01_12h18.18.359,arrow_simon_norep,2021.1.2,Win32,143.6988073,,,,,,,,,,,,,,,,,,,,,w,1,1.5372,7,FALSE,FALSE,1,2,6,3,1,,,,,,,
,,,,,,0,2.320654565,#f3af84,,left_orange.png,q,,,,,,w,left_blue.png,left_orange.png,q,right,610061b90293e0558628845b,001,2021-08-01_12h18.18.359,arrow_simon_norep,2021.1.2,Win32,143.6988073,,,,,,,,,,,,,,,,,,,,,q,1,1.5749,8,FALSE,FALSE,1,3,7,3,1,,,,,,,
,,,,,,0,2.336849913,#a3d0fb,,right_blue.png,o,,,,,,o,right_blue.png,right_orange.png,p,left,610061b90293e0558628845b,001,2021-08-01_12h18.18.359,arrow_simon_norep,2021.1.2,Win32,143.6988073,,,,,,,,,,,,,,,,,,,,,o,1,1.5989,9,FALSE,FALSE,2,0,8,0,1,,,,,,,
,,,,,,0,2.435670387,#f3af84,,right_orange.png,p,,,,,,o,right_blue.png,right_orange.png,p,left,610061b90293e0558628845b,001,2021-08-01_12h18.18.359,arrow_simon_norep,2021.1.2,Win32,143.6988073,,,,,,,,,,,,,,,,,,,,,p,1,1.7069,10,TRUE,FALSE,2,1,9,0,1,,,,,,,
,,,,,,0,1.62102132,#a3d0fb,,left_blue.png,w,,,,,,w,left_blue.png,left_orange.png,q,right,610061b90293e0558628845b,001,2021-08-01_12h18.18.359,arrow_simon_norep,2021.1.2,Win32,143.6988073,,,,,,,,,,,,,,,,,,,,,w,1,1.5027,11,FALSE,FALSE,2,2,10,3,1,,,,,,,
,,,,,,0,2.047089595,#f3af84,,right_orange.png,p,,,,,,o,right_blue.png,right_orange.png,p,right,610061b90293e0558628845b,001,2021-08-01_12h18.18.359,arrow_simon_norep,2021.1.2,Win32,143.6988073,,,,,,,,,,,,,,,,,,,,,p,1,1.5167,12,FALSE,FALSE,2,3,11,1,1,,,,,,,
,,,,,,0,2.40348936,#a3d0fb,,right_blue.png,o,,,,,,o,right_blue.png,right_orange.png,p,right,610061b90293e0558628845b,001,2021-08-01_12h18.18.359,arrow_simon_norep,2021.1.2,Win32,143.6988073,,,,,,,,,,,,,,,,,,,,,w,0,1.7311,13,TRUE,FALSE,3,0,12,1,1,,,,,,,
,,,,,,0,1.556110938,#f3af84,,right_orange.png,p,,,,,,o,right_blue.png,right_orange.png,p,right,610061b90293e0558628845b,001,2021-08-01_12h18.18.359,arrow_simon_norep,2021.1.2,Win32,143.6988073,,,,,,,,,,,,,,,,,,,,,p,1,1.4986,14,FALSE,FALSE,3,1,13,1,1,,,,,,,
,,,,,,0,2.072513831,#a3d0fb,,right_blue.png,o,,,,,,o,right_blue.png,right_orange.png,p,right,610061b90293e0558628845b,001,2021-08-01_12h18.18.359,arrow_simon_norep,2021.1.2,Win32,143.6988073,,,,,,,,,,,,,,,,,,,,,o,1,1.6711,15,TRUE,FALSE,3,2,14,1,1,,,,,,,
,,,,,,1,2.344367622,#f3af84,,left_orange.png,q,,,,,,w,left_blue.png,left_orange.png,q,right,610061b90293e0558628845b,001,2021-08-01_12h18.18.359,arrow_simon_norep,2021.1.2,Win32,143.6988073,,,,,,,,,,,,,,,,,,,,,p,0,1.5617,16,FALSE,FALSE,3,3,15,3,1,,,,,,,
,,,,,,0,2.249913947,#a3d0fb,,right_blue.png,o,,,,,,o,right_blue.png,right_orange.png,p,left,610061b90293e0558628845b,001,2021-08-01_12h18.18.359,arrow_simon_norep,2021.1.2,Win32,143.6988073,,,,,,,,,,,,,,,,,,,,,o,1,1.5837,17,FALSE,FALSE,4,0,16,0,1,,,,,,,
,,,,,,0,2.191773694,#f3af84,,right_orange.png,p,,,,,,o,right_blue.png,right_orange.png,p,right,610061b90293e0558628845b,001,2021-08-01_12h18.18.359,arrow_simon_norep,2021.1.2,Win32,143.6988073,,,,,,,,,,,,,,,,,,,,,p,1,1.5379,18,FALSE,FALSE,4,1,17,1,1,,,,,,,
,,,,,,0,2.486586996,#a3d0fb,,left_blue.png,w,,,,,,w,left_blue.png,left_orange.png,q,left,610061b90293e0558628845b,001,2021-08-01_12h18.18.359,arrow_simon_norep,2021.1.2,Win32,143.6988073,,,,,,,,,,,,,,,,,,,,,w,1,1.6861,19,TRUE,FALSE,4,2,18,2,1,,,,,,,
,,,,,,0,1.572912553,#f3af84,,right_orange.png,p,,,,,,o,right_blue.png,right_orange.png,p,left,610061b90293e0558628845b,001,2021-08-01_12h18.18.359,arrow_simon_norep,2021.1.2,Win32,143.6988073,,,,,,,,,,,,,,,,,,,,,p,1,1.5837,20,FALSE,FALSE,4,3,19,0,1,,,,,,,
,,,,,,0,1.927320552,#a3d0fb,,left_blue.png,w,,,,,,w,left_blue.png,left_orange.png,q,right,610061b90293e0558628845b,001,2021-08-01_12h18.18.359,arrow_simon_norep,2021.1.2,Win32,143.6988073,,,,,,,,,,,,,,,,,,,,,w,1,1.2002,21,FALSE,TRUE,5,0,20,3,1,,,,,,,
,,,,,,1,1.887977085,#f3af84,,left_orange.png,q,,,,,,w,left_blue.png,left_orange.png,q,right,610061b90293e0558628845b,001,2021-08-01_12h18.18.359,arrow_simon_norep,2021.1.2,Win32,143.6988073,,,,,,,,,,,,,,,,,,,,,w,0,1.5214,22,FALSE,FALSE,5,1,21,3,1,,,,,,,
,,,,,,0,2.232328844,#a3d0fb,,right_blue.png,o,,,,,,o,right_blue.png,right_orange.png,p,right,610061b90293e0558628845b,001,2021-08-01_12h18.18.359,arrow_simon_norep,2021.1.2,Win32,143.6988073,,,,,,,,,,,,,,,,,,,,,o,1,1.5218,23,FALSE,FALSE,5,2,22,1,1,,,,,,,
,,,,,,0,2.00521582,#f3af84,,right_orange.png,p,,,,,,o,right_blue.png,right_orange.png,p,left,610061b90293e0558628845b,001,2021-08-01_12h18.18.359,arrow_simon_norep,2021.1.2,Win32,143.6988073,,,,,,,,,,,,,,,,,,,,,p,1,1.5499,24,FALSE,FALSE,5,3,23,0,1,,,,,,,
,,,,,,0,1.988029407,#a3d0fb,,right_blue.png,o,,,,,,o,right_blue.png,right_orange.png,p,left,610061b90293e0558628845b,001,2021-08-01_12h18.18.359,arrow_simon_norep,2021.1.2,Win32,143.6988073,,,,,,,,,,,,,,,,,,,,,o,1,1.5439,25,FALSE,FALSE,6,0,24,0,1,,,,,,,
,,,,,,0,2.097058025,#f3af84,,right_orange.png,p,,,,,,o,right_blue.png,right_orange.png,p,left,610061b90293e0558628845b,001,2021-08-01_12h18.18.359,arrow_simon_norep,2021.1.2,Win32,143.6988073,,,,,,,,,,,,,,,,,,,,,p,1,1.5796,26,FALSE,FALSE,6,1,25,0,1,,,,,,,
,,,,,,0,1.590285368,#a3d0fb,,right_blue.png,o,,,,,,o,right_blue.png,right_orange.png,p,left,610061b90293e0558628845b,001,2021-08-01_12h18.18.359,arrow_simon_norep,2021.1.2,Win32,143.6988073,,,,,,,,,,,,,,,,,,,,,o,1,1.4878,27,FALSE,FALSE,6,2,26,0,1,,,,,,,
,,,,,,0,1.648323746,#f3af84,,right_orange.png,p,,,,,,o,right_blue.png,right_orange.png,p,right,610061b90293e0558628845b,001,2021-08-01_12h18.18.359,arrow_simon_norep,2021.1.2,Win32,143.6988073,,,,,,,,,,,,,,,,,,,,,p,1,1.5029,28,FALSE,FALSE,6,3,27,1,1,,,,,,,
,,,,,,0,2.458789748,#a3d0fb,,left_blue.png,w,,,,,,w,left_blue.png,left_orange.png,q,left,610061b90293e0558628845b,001,2021-08-01_12h18.18.359,arrow_simon_norep,2021.1.2,Win32,143.6988073,,,,,,,,,,,,,,,,,,,,,w,1,1.671,29,TRUE,FALSE,7,0,28,2,1,,,,,,,
,,,,,,0,2.083814724,#f3af84,,left_orange.png,q,,,,,,w,left_blue.png,left_orange.png,q,left,610061b90293e0558628845b,001,2021-08-01_12h18.18.359,arrow_simon_norep,2021.1.2,Win32,143.6988073,,,,,,,,,,,,,,,,,,,,,q,1,1.4895,30,FALSE,FALSE,7,1,29,2,1,,,,,,,
,,,,,,0,2.217109101,#a3d0fb,,right_blue.png,o,,,,,,o,right_blue.png,right_orange.png,p,right,610061b90293e0558628845b,001,2021-08-01_12h18.18.359,arrow_simon_norep,2021.1.2,Win32,143.6988073,,,,,,,,,,,,,,,,,,,,,o,1,1.4876,31,FALSE,FALSE,7,2,30,1,1,,,,,,,
,,,,,,0,1.85360186,#f3af84,,right_orange.png,p,,,,,,o,right_blue.png,right_orange.png,p,left,610061b90293e0558628845b,001,2021-08-01_12h18.18.359,arrow_simon_norep,2021.1.2,Win32,143.6988073,,,,,,,,,,,,,,,,,,,,,p,1,1.5238,32,FALSE,FALSE,7,3,31,0,1,,,,,,,
,,,,,,0,2.356630727,#a3d0fb,,right_blue.png,o,,,,,,o,right_blue.png,right_orange.png,p,right,610061b90293e0558628845b,001,2021-08-01_12h18.18.359,arrow_simon_norep,2021.1.2,Win32,143.6988073,,,,,,,,,,,,,,,,,,,,,o,1,1.6126,33,TRUE,FALSE,8,0,32,1,1,,,,,,,
,,,,,,0,2.431418679,#f3af84,,right_orange.png,p,,,,,,o,right_blue.png,right_orange.png,p,left,610061b90293e0558628845b,001,2021-08-01_12h18.18.359,arrow_simon_norep,2021.1.2,Win32,143.6988073,,,,,,,,,,,,,,,,,,,,,p,1,1.7814,34,TRUE,FALSE,8,1,33,0,1,,,,,,,
,,,,,,0,1.820550407,#a3d0fb,,right_blue.png,o,,,,,,o,right_blue.png,right_orange.png,p,right,610061b90293e0558628845b,001,2021-08-01_12h18.18.359,arrow_simon_norep,2021.1.2,Win32,143.6988073,,,,,,,,,,,,,,,,,,,,,o,1,1.3117,35,FALSE,TRUE,8,2,34,1,1,,,,,,,
,,,,,,0,1.592089611,#f3af84,,right_orange.png,p,,,,,,o,right_blue.png,right_orange.png,p,right,610061b90293e0558628845b,001,2021-08-01_12h18.18.359,arrow_simon_norep,2021.1.2,Win32,143.6988073,,,,,,,,,,,,,,,,,,,,,p,1,1.5881,36,FALSE,FALSE,8,3,35,1,1,,,,,,,
,,,,,,0,1.665925935,#a3d0fb,,right_blue.png,o,,,,,,o,right_blue.png,right_orange.png,p,left,610061b90293e0558628845b,001,2021-08-01_12h18.18.359,arrow_simon_norep,2021.1.2,Win32,143.6988073,,,,,,,,,,,,,,,,,,,,,o,1,1.4794,37,FALSE,FALSE,9,0,36,0,1,,,,,,,
,,,,,,1,1.966195381,#f3af84,,left_orange.png,q,,,,,,w,left_blue.png,left_orange.png,q,left,610061b90293e0558628845b,001,2021-08-01_12h18.18.359,arrow_simon_norep,2021.1.2,Win32,143.6988073,,,,,,,,,,,,,,,,,,,,,w,0,1.5946,38,FALSE,FALSE,9,1,37,2,1,,,,,,,
,,,,,,0,1.515930354,#a3d0fb,,left_blue.png,w,,,,,,w,left_blue.png,left_orange.png,q,right,610061b90293e0558628845b,001,2021-08-01_12h18.18.359,arrow_simon_norep,2021.1.2,Win32,143.6988073,,,,,,,,,,,,,,,,,,,,,w,1,1.54,39,FALSE,FALSE,9,2,38,3,1,,,,,,,
,,,,,,0,2.040289736,#f3af84,,left_orange.png,q,,,,,,w,left_blue.png,left_orange.png,q,right,610061b90293e0558628845b,001,2021-08-01_12h18.18.359,arrow_simon_norep,2021.1.2,Win32,143.6988073,,,,,,,,,,,,,,,,,,,,,q,1,1.532,40,FALSE,FALSE,9,3,39,3,1,,,,,,,
,,,,,,0,2.463806052,#a3d0fb,,left_blue.png,w,,,,,,w,left_blue.png,left_orange.png,q,left,610061b90293e0558628845b,001,2021-08-01_12h18.18.359,arrow_simon_norep,2021.1.2,Win32,143.6988073,,,,,,,,,,,,,,,,,,,,,w,1,1.7851,41,TRUE,FALSE,10,0,40,2,1,,,,,,,
,,,,,,0,2.36369422,#f3af84,,left_orange.png,q,,,,,,w,left_blue.png,left_orange.png,q,right,610061b90293e0558628845b,001,2021-08-01_12h18.18.359,arrow_simon_norep,2021.1.2,Win32,143.6988073,,,,,,,,,,,,,,,,,,,,,q,1,1.6753,42,TRUE,FALSE,10,1,41,3,1,,,,,,,
,,,,,,0,2.28934459,#a3d0fb,,left_blue.png,w,,,,,,w,left_blue.png,left_orange.png,q,right,610061b90293e0558628845b,001,2021-08-01_12h18.18.359,arrow_simon_norep,2021.1.2,Win32,143.6988073,,,,,,,,,,,,,,,,,,,,,w,1,1.5877,43,FALSE,FALSE,10,2,42,3,1,,,,,,,
,,,,,,0,1.730204414,#f3af84,,left_orange.png,q,,,,,,w,left_blue.png,left_orange.png,q,left,610061b90293e0558628845b,001,2021-08-01_12h18.18.359,arrow_simon_norep,2021.1.2,Win32,143.6988073,,,,,,,,,,,,,,,,,,,,,q,1,1.4437,44,FALSE,FALSE,10,3,43,2,1,,,,,,,
,,,,,,0,2.113689631,#a3d0fb,,left_blue.png,w,,,,,,w,left_blue.png,left_orange.png,q,right,610061b90293e0558628845b,001,2021-08-01_12h18.18.359,arrow_simon_norep,2021.1.2,Win32,143.6988073,,,,,,,,,,,,,,,,,,,,,w,1,1.5389,45,FALSE,FALSE,11,0,44,3,1,,,,,,,
,,,,,,0,2.090746424,#f3af84,,left_orange.png,q,,,,,,w,left_blue.png,left_orange.png,q,left,610061b90293e0558628845b,001,2021-08-01_12h18.18.359,arrow_simon_norep,2021.1.2,Win32,143.6988073,,,,,,,,,,,,,,,,,,,,,q,1,1.4857,46,FALSE,FALSE,11,1,45,2,1,,,,,,,
,,,,,,0,1.660232063,#a3d0fb,,right_blue.png,o,,,,,,o,right_blue.png,right_orange.png,p,right,610061b90293e0558628845b,001,2021-08-01_12h18.18.359,arrow_simon_norep,2021.1.2,Win32,143.6988073,,,,,,,,,,,,,,,,,,,,,o,1,1.5676,47,FALSE,FALSE,11,2,46,1,1,,,,,,,
,,,,,,0,1.567588596,#f3af84,,left_orange.png,q,,,,,,w,left_blue.png,left_orange.png,q,right,610061b90293e0558628845b,001,2021-08-01_12h18.18.359,arrow_simon_norep,2021.1.2,Win32,143.6988073,,,,,,,,,,,,,,,,,,,,,q,1,1.4279,48,FALSE,FALSE,11,3,47,3,1,,,,,,,
,,,,,,0,2.17567744,#a3d0fb,,left_blue.png,w,,,,,,w,left_blue.png,left_orange.png,q,left,610061b90293e0558628845b,001,2021-08-01_12h18.18.359,arrow_simon_norep,2021.1.2,Win32,143.6988073,,,,,,,,,,,,,,,,,,,,,w,1,1.5891,49,FALSE,FALSE,12,0,48,2,1,,,,,,,
,,,,,,0,1.53747391,#f3af84,,right_orange.png,p,,,,,,o,right_blue.png,right_orange.png,p,left,610061b90293e0558628845b,001,2021-08-01_12h18.18.359,arrow_simon_norep,2021.1.2,Win32,143.6988073,,,,,,,,,,,,,,,,,,,,,p,1,1.4833,50,FALSE,FALSE,12,1,49,0,1,,,,,,,
,,,,,,0,1.907773078,#a3d0fb,,left_blue.png,w,,,,,,w,left_blue.png,left_orange.png,q,left,610061b90293e0558628845b,001,2021-08-01_12h18.18.359,arrow_simon_norep,2021.1.2,Win32,143.6988073,,,,,,,,,,,,,,,,,,,,,w,1,1.3915,51,FALSE,TRUE,12,2,50,2,1,,,,,,,
