instruct_resp_simon.keys,instruct_resp_simon.corr,instruct_resp_simon.rt,trial_resp_simon.keys,trial_resp_simon.corr,trial_resp_simon.rt,kerr,target_onset,target_color,target_pos,target_file,target_resp,trials_train_simon.thisRepN,trials_train_simon.thisTrialN,trials_train_simon.thisN,trials_train_simon.thisIndex,trials_train_simon.ran,odd_target_resp,odd_target_file,even_target_file,even_target_resp,target_side,participant,session,date,expName,psychopyVersion,OS,frameRate,train_block_note_resp.keys,train_block_note_resp.rt,blocks_train.thisRepN,blocks_train.thisTrialN,blocks_train.thisN,blocks_train.thisIndex,blocks_train.ran,instruct_resp_timing.keys,instruct_resp_timing.corr,instruct_resp_timing.rt,trial_resp_timing.keys,trial_resp_timing.rt,trials_train_timing.thisRepN,trials_train_timing.thisTrialN,trials_train_timing.thisN,trials_train_timing.thisIndex,trials_train_timing.ran,instruct_resp.keys,instruct_resp.corr,instruct_resp.rt,trial_resp.keys,trial_resp.corr,trial_resp.rt,trial_num,too_slow,too_soon,trials.thisRepN,trials.thisTrialN,trials.thisN,trials.thisIndex,trials.ran,block_note_resp.keys,block_note_resp.rt,blocks.thisRepN,blocks.thisTrialN,blocks.thisN,blocks.thisIndex,blocks.ran
space,0,73.422665,w,1,3.445969999,0,0.073671791,#a3d0fb,,left_blue.png,w,0,0,0,2,1,w,left_blue.png,left_orange.png,q,left,6102feaf4f6002b3dbc4cdab,001,2021-08-01_12h30.45.680,arrow_simon_norep,2021.1.2,Win32,60.2300789,,,,,,,,,,,,,,,,,,,,,,,,,,,,,,,,,,,,,,
,,,p,1,1.637385,0,0.598882335,#f3af84,,right_orange.png,p,0,1,1,1,1,o,right_blue.png,right_orange.png,p,right,6102feaf4f6002b3dbc4cdab,001,2021-08-01_12h30.45.680,arrow_simon_norep,2021.1.2,Win32,60.2300789,,,,,,,,,,,,,,,,,,,,,,,,,,,,,,,,,,,,,,
,,,w,0,1.3683,1,0.657862289,#a3d0fb,,right_blue.png,o,0,2,2,0,1,o,right_blue.png,right_orange.png,p,left,6102feaf4f6002b3dbc4cdab,001,2021-08-01_12h30.45.680,arrow_simon_norep,2021.1.2,Win32,60.2300789,,,,,,,,,,,,,,,,,,,,,,,,,,,,,,,,,,,,,,
,,,p,1,2.367185,0,0.861868598,#f3af84,,right_orange.png,p,0,3,3,1,1,o,right_blue.png,right_orange.png,p,right,6102feaf4f6002b3dbc4cdab,001,2021-08-01_12h30.45.680,arrow_simon_norep,2021.1.2,Win32,60.2300789,,,,,,,,,,,,,,,,,,,,,,,,,,,,,,,,,,,,,,
,,,o,1,1.375994999,0,0.266938417,#a3d0fb,,right_blue.png,o,1,0,4,1,1,o,right_blue.png,right_orange.png,p,right,6102feaf4f6002b3dbc4cdab,001,2021-08-01_12h30.45.680,arrow_simon_norep,2021.1.2,Win32,60.2300789,,,,,,,,,,,,,,,,,,,,,,,,,,,,,,,,,,,,,,
,,,q,1,2.383155001,0,0.108604739,#f3af84,,left_orange.png,q,1,1,5,3,1,w,left_blue.png,left_orange.png,q,right,6102feaf4f6002b3dbc4cdab,001,2021-08-01_12h30.45.680,arrow_simon_norep,2021.1.2,Win32,60.2300789,,,,,,,,,,,,,,,,,,,,,,,,,,,,,,,,,,,,,,
,,,o,0,1.860919999,1,0.949795305,#a3d0fb,,left_blue.png,w,1,2,6,3,1,w,left_blue.png,left_orange.png,q,right,6102feaf4f6002b3dbc4cdab,001,2021-08-01_12h30.45.680,arrow_simon_norep,2021.1.2,Win32,60.2300789,,,,,,,,,,,,,,,,,,,,,,,,,,,,,,,,,,,,,,
,,,q,1,1.845205,0,0.192976294,#f3af84,,left_orange.png,q,1,3,7,3,1,w,left_blue.png,left_orange.png,q,right,6102feaf4f6002b3dbc4cdab,001,2021-08-01_12h30.45.680,arrow_simon_norep,2021.1.2,Win32,60.2300789,,,,,,,,,,,,,,,,,,,,,,,,,,,,,,,,,,,,,,
,,,w,1,1.277480001,0,0.445543646,#a3d0fb,,left_blue.png,w,2,0,8,2,1,w,left_blue.png,left_orange.png,q,left,6102feaf4f6002b3dbc4cdab,001,2021-08-01_12h30.45.680,arrow_simon_norep,2021.1.2,Win32,60.2300789,,,,,,,,,,,,,,,,,,,,,,,,,,,,,,,,,,,,,,
,,,q,1,2.018615,0,0.909309449,#f3af84,,left_orange.png,q,2,1,9,2,1,w,left_blue.png,left_orange.png,q,left,6102feaf4f6002b3dbc4cdab,001,2021-08-01_12h30.45.680,arrow_simon_norep,2021.1.2,Win32,60.2300789,,,,,,,,,,,,,,,,,,,,,,,,,,,,,,,,,,,,,,
,,,o,1,1.37761,0,0.339009359,#a3d0fb,,right_blue.png,o,2,2,10,0,1,o,right_blue.png,right_orange.png,p,left,6102feaf4f6002b3dbc4cdab,001,2021-08-01_12h30.45.680,arrow_simon_norep,2021.1.2,Win32,60.2300789,,,,,,,,,,,,,,,,,,,,,,,,,,,,,,,,,,,,,,
,,,p,1,2.72466,0,0.658902282,#f3af84,,right_orange.png,p,2,3,11,1,1,o,right_blue.png,right_orange.png,p,right,6102feaf4f6002b3dbc4cdab,001,2021-08-01_12h30.45.680,arrow_simon_norep,2021.1.2,Win32,60.2300789,,,,,,,,,,,,,,,,,,,,,,,,,,,,,,,,,,,,,,
,,,o,1,0.884894999,0,0.071858217,#a3d0fb,,right_blue.png,o,3,0,12,1,1,o,right_blue.png,right_orange.png,p,right,6102feaf4f6002b3dbc4cdab,001,2021-08-01_12h30.45.680,arrow_simon_norep,2021.1.2,Win32,60.2300789,,,,,,,,,,,,,,,,,,,,,,,,,,,,,,,,,,,,,,
,,,w,0,1.88518,1,0.94441064,#f3af84,,right_orange.png,p,3,1,13,0,1,o,right_blue.png,right_orange.png,p,left,6102feaf4f6002b3dbc4cdab,001,2021-08-01_12h30.45.680,arrow_simon_norep,2021.1.2,Win32,60.2300789,,,,,,,,,,,,,,,,,,,,,,,,,,,,,,,,,,,,,,
,,,q,0,2.435725,1,0.580892382,#a3d0fb,,left_blue.png,w,3,2,14,2,1,w,left_blue.png,left_orange.png,q,left,6102feaf4f6002b3dbc4cdab,001,2021-08-01_12h30.45.680,arrow_simon_norep,2021.1.2,Win32,60.2300789,,,,,,,,,,,,,,,,,,,,,,,,,,,,,,,,,,,,,,
,,,p,1,2.976729998,0,0.553555542,#f3af84,,right_orange.png,p,3,3,15,1,1,o,right_blue.png,right_orange.png,p,right,6102feaf4f6002b3dbc4cdab,001,2021-08-01_12h30.45.680,arrow_simon_norep,2021.1.2,Win32,60.2300789,,,,,,,,,,,,,,,,,,,,,,,,,,,,,,,,,,,,,,
,,,w,0,2.435245,1,0.920475656,#a3d0fb,,right_blue.png,o,4,0,16,0,1,o,right_blue.png,right_orange.png,p,left,6102feaf4f6002b3dbc4cdab,001,2021-08-01_12h30.45.680,arrow_simon_norep,2021.1.2,Win32,60.2300789,,,,,,,,,,,,,,,,,,,,,,,,,,,,,,,,,,,,,,
,,,q,1,2.457295001,0,0.745443892,#f3af84,,left_orange.png,q,4,1,17,3,1,w,left_blue.png,left_orange.png,q,right,6102feaf4f6002b3dbc4cdab,001,2021-08-01_12h30.45.680,arrow_simon_norep,2021.1.2,Win32,60.2300789,,,,,,,,,,,,,,,,,,,,,,,,,,,,,,,,,,,,,,
,,,o,1,3.101650001,0,0.024316247,#a3d0fb,,right_blue.png,o,4,2,18,1,1,o,right_blue.png,right_orange.png,p,right,6102feaf4f6002b3dbc4cdab,001,2021-08-01_12h30.45.680,arrow_simon_norep,2021.1.2,Win32,60.2300789,,,,,,,,,,,,,,,,,,,,,,,,,,,,,,,,,,,,,,
,,,q,1,2.742790001,0,0.864907176,#f3af84,,left_orange.png,q,4,3,19,2,1,w,left_blue.png,left_orange.png,q,left,6102feaf4f6002b3dbc4cdab,001,2021-08-01_12h30.45.680,arrow_simon_norep,2021.1.2,Win32,60.2300789,,,,,,,,,,,,,,,,,,,,,,,,,,,,,,,,,,,,,,
,,,w,1,1.807505,0,0.903696933,#a3d0fb,,left_blue.png,w,5,0,20,2,1,w,left_blue.png,left_orange.png,q,left,6102feaf4f6002b3dbc4cdab,001,2021-08-01_12h30.45.680,arrow_simon_norep,2021.1.2,Win32,60.2300789,,,,,,,,,,,,,,,,,,,,,,,,,,,,,,,,,,,,,,
,,,p,1,1.59292,0,0.229062147,#f3af84,,right_orange.png,p,5,1,21,1,1,o,right_blue.png,right_orange.png,p,right,6102feaf4f6002b3dbc4cdab,001,2021-08-01_12h30.45.680,arrow_simon_norep,2021.1.2,Win32,60.2300789,,,,,,,,,,,,,,,,,,,,,,,,,,,,,,,,,,,,,,
,,,w,1,1.58488,0,0.312801923,#a3d0fb,,left_blue.png,w,5,2,22,3,1,w,left_blue.png,left_orange.png,q,right,6102feaf4f6002b3dbc4cdab,001,2021-08-01_12h30.45.680,arrow_simon_norep,2021.1.2,Win32,60.2300789,,,,,,,,,,,,,,,,,,,,,,,,,,,,,,,,,,,,,,
,,,q,1,1.968289999,0,0.091080023,#f3af84,,left_orange.png,q,5,3,23,2,1,w,left_blue.png,left_orange.png,q,left,6102feaf4f6002b3dbc4cdab,001,2021-08-01_12h30.45.680,arrow_simon_norep,2021.1.2,Win32,60.2300789,,,,,,,,,,,,,,,,,,,,,,,,,,,,,,,,,,,,,,
,,,o,0,1.71838,1,0.603341066,#a3d0fb,,left_blue.png,w,6,0,24,3,1,w,left_blue.png,left_orange.png,q,right,6102feaf4f6002b3dbc4cdab,001,2021-08-01_12h30.45.680,arrow_simon_norep,2021.1.2,Win32,60.2300789,,,,,,,,,,,,,,,,,,,,,,,,,,,,,,,,,,,,,,
,,,p,1,2.001475001,0,0.415505617,#f3af84,,right_orange.png,p,6,1,25,0,1,o,right_blue.png,right_orange.png,p,left,6102feaf4f6002b3dbc4cdab,001,2021-08-01_12h30.45.680,arrow_simon_norep,2021.1.2,Win32,60.2300789,,,,,,,,,,,,,,,,,,,,,,,,,,,,,,,,,,,,,,
,,,o,1,1.651210001,0,0.6041345,#a3d0fb,,right_blue.png,o,6,2,26,0,1,o,right_blue.png,right_orange.png,p,left,6102feaf4f6002b3dbc4cdab,001,2021-08-01_12h30.45.680,arrow_simon_norep,2021.1.2,Win32,60.2300789,,,,,,,,,,,,,,,,,,,,,,,,,,,,,,,,,,,,,,
,,,p,1,1.667795001,0,0.612315899,#f3af84,,right_orange.png,p,6,3,27,1,1,o,right_blue.png,right_orange.png,p,right,6102feaf4f6002b3dbc4cdab,001,2021-08-01_12h30.45.680,arrow_simon_norep,2021.1.2,Win32,60.2300789,,,,,,,,,,,,,,,,,,,,,,,,,,,,,,,,,,,,,,
,,,o,1,0.976094998,0,0.398009126,#a3d0fb,,right_blue.png,o,7,0,28,1,1,o,right_blue.png,right_orange.png,p,right,6102feaf4f6002b3dbc4cdab,001,2021-08-01_12h30.45.680,arrow_simon_norep,2021.1.2,Win32,60.2300789,,,,,,,,,,,,,,,,,,,,,,,,,,,,,,,,,,,,,,
,,,p,1,1.528685002,0,0.595723642,#f3af84,,right_orange.png,p,7,1,29,1,1,o,right_blue.png,right_orange.png,p,right,6102feaf4f6002b3dbc4cdab,001,2021-08-01_12h30.45.680,arrow_simon_norep,2021.1.2,Win32,60.2300789,,,,,,,,,,,,,,,,,,,,,,,,,,,,,,,,,,,,,,
,,,p,0,1.851635,1,0.925781396,#a3d0fb,,right_blue.png,o,7,2,30,0,1,o,right_blue.png,right_orange.png,p,left,6102feaf4f6002b3dbc4cdab,001,2021-08-01_12h30.45.680,arrow_simon_norep,2021.1.2,Win32,60.2300789,,,,,,,,,,,,,,,,,,,,,,,,,,,,,,,,,,,,,,
,,,p,1,1.617784999,0,0.981820961,#f3af84,,right_orange.png,p,7,3,31,1,1,o,right_blue.png,right_orange.png,p,right,6102feaf4f6002b3dbc4cdab,001,2021-08-01_12h30.45.680,arrow_simon_norep,2021.1.2,Win32,60.2300789,,,,,,,,,,,,,,,,,,,,,,,,,,,,,,,,,,,,,,
,,,w,1,1.451335,0,0.424529937,#a3d0fb,,left_blue.png,w,8,0,32,3,1,w,left_blue.png,left_orange.png,q,right,6102feaf4f6002b3dbc4cdab,001,2021-08-01_12h30.45.680,arrow_simon_norep,2021.1.2,Win32,60.2300789,,,,,,,,,,,,,,,,,,,,,,,,,,,,,,,,,,,,,,
,,,q,1,1.21724,0,0.267060307,#f3af84,,left_orange.png,q,8,1,33,3,1,w,left_blue.png,left_orange.png,q,right,6102feaf4f6002b3dbc4cdab,001,2021-08-01_12h30.45.680,arrow_simon_norep,2021.1.2,Win32,60.2300789,,,,,,,,,,,,,,,,,,,,,,,,,,,,,,,,,,,,,,
,,,w,0,0.976284999,1,0.107206631,#a3d0fb,,right_blue.png,o,8,2,34,0,1,o,right_blue.png,right_orange.png,p,left,6102feaf4f6002b3dbc4cdab,001,2021-08-01_12h30.45.680,arrow_simon_norep,2021.1.2,Win32,60.2300789,,,,,,,,,,,,,,,,,,,,,,,,,,,,,,,,,,,,,,
,,,p,1,2.270880001,0,0.506463407,#f3af84,,right_orange.png,p,8,3,35,1,1,o,right_blue.png,right_orange.png,p,right,6102feaf4f6002b3dbc4cdab,001,2021-08-01_12h30.45.680,arrow_simon_norep,2021.1.2,Win32,60.2300789,,,,,,,,,,,,,,,,,,,,,,,,,,,,,,,,,,,,,,
,,,w,1,1.70259,0,0.435403852,#a3d0fb,,left_blue.png,w,9,0,36,3,1,w,left_blue.png,left_orange.png,q,right,6102feaf4f6002b3dbc4cdab,001,2021-08-01_12h30.45.680,arrow_simon_norep,2021.1.2,Win32,60.2300789,,,,,,,,,,,,,,,,,,,,,,,,,,,,,,,,,,,,,,
,,,p,1,1.852770001,0,0.418911994,#f3af84,,right_orange.png,p,9,1,37,0,1,o,right_blue.png,right_orange.png,p,left,6102feaf4f6002b3dbc4cdab,001,2021-08-01_12h30.45.680,arrow_simon_norep,2021.1.2,Win32,60.2300789,,,,,,,,,,,,,,,,,,,,,,,,,,,,,,,,,,,,,,
,,,w,1,2.725325,0,0.884742976,#a3d0fb,,left_blue.png,w,9,2,38,2,1,w,left_blue.png,left_orange.png,q,left,6102feaf4f6002b3dbc4cdab,001,2021-08-01_12h30.45.680,arrow_simon_norep,2021.1.2,Win32,60.2300789,,,,,,,,,,,,,,,,,,,,,,,,,,,,,,,,,,,,,,
,,,p,1,1.385775002,0,0.177502032,#f3af84,,right_orange.png,p,9,3,39,1,1,o,right_blue.png,right_orange.png,p,right,6102feaf4f6002b3dbc4cdab,001,2021-08-01_12h30.45.680,arrow_simon_norep,2021.1.2,Win32,60.2300789,,,,,,,,,,,,,,,,,,,,,,,,,,,,,,,,,,,,,,
,,,w,1,4.667790001,0,0.654271609,#a3d0fb,,left_blue.png,w,10,0,40,2,1,w,left_blue.png,left_orange.png,q,left,6102feaf4f6002b3dbc4cdab,001,2021-08-01_12h30.45.680,arrow_simon_norep,2021.1.2,Win32,60.2300789,,,,,,,,,,,,,,,,,,,,,,,,,,,,,,,,,,,,,,
,,,q,1,1.20363,0,0.114820444,#f3af84,,left_orange.png,q,10,1,41,3,1,w,left_blue.png,left_orange.png,q,right,6102feaf4f6002b3dbc4cdab,001,2021-08-01_12h30.45.680,arrow_simon_norep,2021.1.2,Win32,60.2300789,,,,,,,,,,,,,,,,,,,,,,,,,,,,,,,,,,,,,,
,,,o,1,2.25897,0,0.467668321,#a3d0fb,,right_blue.png,o,10,2,42,0,1,o,right_blue.png,right_orange.png,p,left,6102feaf4f6002b3dbc4cdab,001,2021-08-01_12h30.45.680,arrow_simon_norep,2021.1.2,Win32,60.2300789,,,,,,,,,,,,,,,,,,,,,,,,,,,,,,,,,,,,,,
,,,q,1,2.009679999,0,0.185702484,#f3af84,,left_orange.png,q,10,3,43,3,1,w,left_blue.png,left_orange.png,q,right,6102feaf4f6002b3dbc4cdab,001,2021-08-01_12h30.45.680,arrow_simon_norep,2021.1.2,Win32,60.2300789,,,,,,,,,,,,,,,,,,,,,,,,,,,,,,,,,,,,,,
,,,o,1,2.017519999,0,0.975094519,#a3d0fb,,right_blue.png,o,11,0,44,0,1,o,right_blue.png,right_orange.png,p,left,6102feaf4f6002b3dbc4cdab,001,2021-08-01_12h30.45.680,arrow_simon_norep,2021.1.2,Win32,60.2300789,,,,,,,,,,,,,,,,,,,,,,,,,,,,,,,,,,,,,,
,,,p,1,3.251805,0,0.835724038,#f3af84,,right_orange.png,p,11,1,45,0,1,o,right_blue.png,right_orange.png,p,left,6102feaf4f6002b3dbc4cdab,001,2021-08-01_12h30.45.680,arrow_simon_norep,2021.1.2,Win32,60.2300789,,,,,,,,,,,,,,,,,,,,,,,,,,,,,,,,,,,,,,
,,,w,1,2.619355001,0,0.397337861,#a3d0fb,,left_blue.png,w,11,2,46,3,1,w,left_blue.png,left_orange.png,q,right,6102feaf4f6002b3dbc4cdab,001,2021-08-01_12h30.45.680,arrow_simon_norep,2021.1.2,Win32,60.2300789,,,,,,,,,,,,,,,,,,,,,,,,,,,,,,,,,,,,,,
,,,q,1,1.006349999,0,0.213959481,#f3af84,,left_orange.png,q,11,3,47,3,1,w,left_blue.png,left_orange.png,q,right,6102feaf4f6002b3dbc4cdab,001,2021-08-01_12h30.45.680,arrow_simon_norep,2021.1.2,Win32,60.2300789,,,,,,,,,,,,,,,,,,,,,,,,,,,,,,,,,,,,,,
,,,o,1,1.569855001,0,0.119099669,#a3d0fb,,right_blue.png,o,12,0,48,0,1,o,right_blue.png,right_orange.png,p,left,6102feaf4f6002b3dbc4cdab,001,2021-08-01_12h30.45.680,arrow_simon_norep,2021.1.2,Win32,60.2300789,,,,,,,,,,,,,,,,,,,,,,,,,,,,,,,,,,,,,,
,,,q,1,1.403685,0,0.119803957,#f3af84,,left_orange.png,q,12,1,49,2,1,w,left_blue.png,left_orange.png,q,left,6102feaf4f6002b3dbc4cdab,001,2021-08-01_12h30.45.680,arrow_simon_norep,2021.1.2,Win32,60.2300789,,,,,,,,,,,,,,,,,,,,,,,,,,,,,,,,,,,,,,
,,,w,1,1.535540001,0,0.816453096,#a3d0fb,,left_blue.png,w,12,2,50,2,1,w,left_blue.png,left_orange.png,q,left,6102feaf4f6002b3dbc4cdab,001,2021-08-01_12h30.45.680,arrow_simon_norep,2021.1.2,Win32,60.2300789,,,,,,,,,,,,,,,,,,,,,,,,,,,,,,,,,,,,,,
,,,q,1,1.385389999,0,0.599983977,#f3af84,,left_orange.png,q,12,3,51,2,1,w,left_blue.png,left_orange.png,q,left,6102feaf4f6002b3dbc4cdab,001,2021-08-01_12h30.45.680,arrow_simon_norep,2021.1.2,Win32,60.2300789,,,,,,,,,,,,,,,,,,,,,,,,,,,,,,,,,,,,,,
,,,w,1,1.225895001,0,0.520146218,#a3d0fb,,left_blue.png,w,13,0,52,2,1,w,left_blue.png,left_orange.png,q,left,6102feaf4f6002b3dbc4cdab,001,2021-08-01_12h30.45.680,arrow_simon_norep,2021.1.2,Win32,60.2300789,,,,,,,,,,,,,,,,,,,,,,,,,,,,,,,,,,,,,,
,,,q,1,1.270375,0,0.377146065,#f3af84,,left_orange.png,q,13,1,53,3,1,w,left_blue.png,left_orange.png,q,right,6102feaf4f6002b3dbc4cdab,001,2021-08-01_12h30.45.680,arrow_simon_norep,2021.1.2,Win32,60.2300789,,,,,,,,,,,,,,,,,,,,,,,,,,,,,,,,,,,,,,
,,,w,1,1.939610001,0,0.495294271,#a3d0fb,,left_blue.png,w,13,2,54,3,1,w,left_blue.png,left_orange.png,q,right,6102feaf4f6002b3dbc4cdab,001,2021-08-01_12h30.45.680,arrow_simon_norep,2021.1.2,Win32,60.2300789,,,,,,,,,,,,,,,,,,,,,,,,,,,,,,,,,,,,,,
,,,p,1,1.5331,0,0.075865637,#f3af84,,right_orange.png,p,13,3,55,0,1,o,right_blue.png,right_orange.png,p,left,6102feaf4f6002b3dbc4cdab,001,2021-08-01_12h30.45.680,arrow_simon_norep,2021.1.2,Win32,60.2300789,,,,,,,,,,,,,,,,,,,,,,,,,,,,,,,,,,,,,,
,,,w,1,2.587335,0,0.992649778,#a3d0fb,,left_blue.png,w,14,0,56,2,1,w,left_blue.png,left_orange.png,q,left,6102feaf4f6002b3dbc4cdab,001,2021-08-01_12h30.45.680,arrow_simon_norep,2021.1.2,Win32,60.2300789,,,,,,,,,,,,,,,,,,,,,,,,,,,,,,,,,,,,,,
,,,q,1,2.067425,0,0.902070198,#f3af84,,left_orange.png,q,14,1,57,2,1,w,left_blue.png,left_orange.png,q,left,6102feaf4f6002b3dbc4cdab,001,2021-08-01_12h30.45.680,arrow_simon_norep,2021.1.2,Win32,60.2300789,,,,,,,,,,,,,,,,,,,,,,,,,,,,,,,,,,,,,,
,,,o,1,4.301554998,0,0.054318737,#a3d0fb,,right_blue.png,o,14,2,58,1,1,o,right_blue.png,right_orange.png,p,right,6102feaf4f6002b3dbc4cdab,001,2021-08-01_12h30.45.680,arrow_simon_norep,2021.1.2,Win32,60.2300789,,,,,,,,,,,,,,,,,,,,,,,,,,,,,,,,,,,,,,
,,,p,1,2.100879999,0,0.893882718,#f3af84,,right_orange.png,p,14,3,59,0,1,o,right_blue.png,right_orange.png,p,left,6102feaf4f6002b3dbc4cdab,001,2021-08-01_12h30.45.680,arrow_simon_norep,2021.1.2,Win32,60.2300789,,,,,,,,,,,,,,,,,,,,,,,,,,,,,,,,,,,,,,
,,,,,,,,,,,,,,,,,,,,,,6102feaf4f6002b3dbc4cdab,001,2021-08-01_12h30.45.680,arrow_simon_norep,2021.1.2,Win32,60.2300789,space,17.77305,0,0,0,0,1,,,,,,,,,,,,,,,,,,,,,,,,,,,,,,,
,,,w,1,2.404269999,0,0.93782678,#a3d0fb,,left_blue.png,w,0,0,0,2,1,w,left_blue.png,left_orange.png,q,left,6102feaf4f6002b3dbc4cdab,001,2021-08-01_12h30.45.680,arrow_simon_norep,2021.1.2,Win32,60.2300789,,,,,,,,,,,,,,,,,,,,,,,,,,,,,,,,,,,,,,
,,,q,1,1.477665,0,0.660691959,#f3af84,,left_orange.png,q,0,1,1,2,1,w,left_blue.png,left_orange.png,q,left,6102feaf4f6002b3dbc4cdab,001,2021-08-01_12h30.45.680,arrow_simon_norep,2021.1.2,Win32,60.2300789,,,,,,,,,,,,,,,,,,,,,,,,,,,,,,,,,,,,,,
,,,w,1,1.11861,0,0.255686999,#a3d0fb,,left_blue.png,w,0,2,2,2,1,w,left_blue.png,left_orange.png,q,left,6102feaf4f6002b3dbc4cdab,001,2021-08-01_12h30.45.680,arrow_simon_norep,2021.1.2,Win32,60.2300789,,,,,,,,,,,,,,,,,,,,,,,,,,,,,,,,,,,,,,
,,,p,1,1.868454998,0,0.585979102,#f3af84,,right_orange.png,p,0,3,3,0,1,o,right_blue.png,right_orange.png,p,left,6102feaf4f6002b3dbc4cdab,001,2021-08-01_12h30.45.680,arrow_simon_norep,2021.1.2,Win32,60.2300789,,,,,,,,,,,,,,,,,,,,,,,,,,,,,,,,,,,,,,
,,,o,1,1.800975,0,0.738717724,#a3d0fb,,right_blue.png,o,1,0,4,0,1,o,right_blue.png,right_orange.png,p,left,6102feaf4f6002b3dbc4cdab,001,2021-08-01_12h30.45.680,arrow_simon_norep,2021.1.2,Win32,60.2300789,,,,,,,,,,,,,,,,,,,,,,,,,,,,,,,,,,,,,,
,,,p,1,1.03496,0,0.237988879,#f3af84,,right_orange.png,p,1,1,5,1,1,o,right_blue.png,right_orange.png,p,right,6102feaf4f6002b3dbc4cdab,001,2021-08-01_12h30.45.680,arrow_simon_norep,2021.1.2,Win32,60.2300789,,,,,,,,,,,,,,,,,,,,,,,,,,,,,,,,,,,,,,
,,,w,1,1.46133,0,0.43046688,#a3d0fb,,left_blue.png,w,1,2,6,2,1,w,left_blue.png,left_orange.png,q,left,6102feaf4f6002b3dbc4cdab,001,2021-08-01_12h30.45.680,arrow_simon_norep,2021.1.2,Win32,60.2300789,,,,,,,,,,,,,,,,,,,,,,,,,,,,,,,,,,,,,,
,,,p,1,1.320215,0,0.209215813,#f3af84,,right_orange.png,p,1,3,7,0,1,o,right_blue.png,right_orange.png,p,left,6102feaf4f6002b3dbc4cdab,001,2021-08-01_12h30.45.680,arrow_simon_norep,2021.1.2,Win32,60.2300789,,,,,,,,,,,,,,,,,,,,,,,,,,,,,,,,,,,,,,
,,,w,1,1.208795,0,0.094444191,#a3d0fb,,left_blue.png,w,2,0,8,3,1,w,left_blue.png,left_orange.png,q,right,6102feaf4f6002b3dbc4cdab,001,2021-08-01_12h30.45.680,arrow_simon_norep,2021.1.2,Win32,60.2300789,,,,,,,,,,,,,,,,,,,,,,,,,,,,,,,,,,,,,,
,,,p,1,1.867795,0,0.878711233,#f3af84,,right_orange.png,p,2,1,9,0,1,o,right_blue.png,right_orange.png,p,left,6102feaf4f6002b3dbc4cdab,001,2021-08-01_12h30.45.680,arrow_simon_norep,2021.1.2,Win32,60.2300789,,,,,,,,,,,,,,,,,,,,,,,,,,,,,,,,,,,,,,
,,,o,1,0.796755001,0,0.043251568,#a3d0fb,,right_blue.png,o,2,2,10,0,1,o,right_blue.png,right_orange.png,p,left,6102feaf4f6002b3dbc4cdab,001,2021-08-01_12h30.45.680,arrow_simon_norep,2021.1.2,Win32,60.2300789,,,,,,,,,,,,,,,,,,,,,,,,,,,,,,,,,,,,,,
,,,p,1,1.655224999,0,0.869115134,#f3af84,,right_orange.png,p,2,3,11,1,1,o,right_blue.png,right_orange.png,p,right,6102feaf4f6002b3dbc4cdab,001,2021-08-01_12h30.45.680,arrow_simon_norep,2021.1.2,Win32,60.2300789,,,,,,,,,,,,,,,,,,,,,,,,,,,,,,,,,,,,,,
,,,w,1,1.919545,0,0.916985537,#a3d0fb,,left_blue.png,w,3,0,12,3,1,w,left_blue.png,left_orange.png,q,right,6102feaf4f6002b3dbc4cdab,001,2021-08-01_12h30.45.680,arrow_simon_norep,2021.1.2,Win32,60.2300789,,,,,,,,,,,,,,,,,,,,,,,,,,,,,,,,,,,,,,
,,,q,1,0.909669999,0,0.020525734,#f3af84,,left_orange.png,q,3,1,13,2,1,w,left_blue.png,left_orange.png,q,left,6102feaf4f6002b3dbc4cdab,001,2021-08-01_12h30.45.680,arrow_simon_norep,2021.1.2,Win32,60.2300789,,,,,,,,,,,,,,,,,,,,,,,,,,,,,,,,,,,,,,
,,,p,0,1.459234999,1,0.700204364,#a3d0fb,,right_blue.png,o,3,2,14,1,1,o,right_blue.png,right_orange.png,p,right,6102feaf4f6002b3dbc4cdab,001,2021-08-01_12h30.45.680,arrow_simon_norep,2021.1.2,Win32,60.2300789,,,,,,,,,,,,,,,,,,,,,,,,,,,,,,,,,,,,,,
,,,p,1,1.228050001,0,0.548472393,#f3af84,,right_orange.png,p,3,3,15,1,1,o,right_blue.png,right_orange.png,p,right,6102feaf4f6002b3dbc4cdab,001,2021-08-01_12h30.45.680,arrow_simon_norep,2021.1.2,Win32,60.2300789,,,,,,,,,,,,,,,,,,,,,,,,,,,,,,,,,,,,,,
,,,w,1,0.843940001,0,0.147577808,#a3d0fb,,left_blue.png,w,4,0,16,2,1,w,left_blue.png,left_orange.png,q,left,6102feaf4f6002b3dbc4cdab,001,2021-08-01_12h30.45.680,arrow_simon_norep,2021.1.2,Win32,60.2300789,,,,,,,,,,,,,,,,,,,,,,,,,,,,,,,,,,,,,,
,,,p,1,1.868969999,0,0.583314704,#f3af84,,right_orange.png,p,4,1,17,1,1,o,right_blue.png,right_orange.png,p,right,6102feaf4f6002b3dbc4cdab,001,2021-08-01_12h30.45.680,arrow_simon_norep,2021.1.2,Win32,60.2300789,,,,,,,,,,,,,,,,,,,,,,,,,,,,,,,,,,,,,,
,,,o,1,0.995285001,0,0.427771207,#a3d0fb,,right_blue.png,o,4,2,18,1,1,o,right_blue.png,right_orange.png,p,right,6102feaf4f6002b3dbc4cdab,001,2021-08-01_12h30.45.680,arrow_simon_norep,2021.1.2,Win32,60.2300789,,,,,,,,,,,,,,,,,,,,,,,,,,,,,,,,,,,,,,
,,,q,1,1.1425,0,0.205196264,#f3af84,,left_orange.png,q,4,3,19,2,1,w,left_blue.png,left_orange.png,q,left,6102feaf4f6002b3dbc4cdab,001,2021-08-01_12h30.45.680,arrow_simon_norep,2021.1.2,Win32,60.2300789,,,,,,,,,,,,,,,,,,,,,,,,,,,,,,,,,,,,,,
,,,o,0,0.86809,1,0.04411629,#a3d0fb,,left_blue.png,w,5,0,20,3,1,w,left_blue.png,left_orange.png,q,right,6102feaf4f6002b3dbc4cdab,001,2021-08-01_12h30.45.680,arrow_simon_norep,2021.1.2,Win32,60.2300789,,,,,,,,,,,,,,,,,,,,,,,,,,,,,,,,,,,,,,
,,,q,1,1.534809999,0,0.434473406,#f3af84,,left_orange.png,q,5,1,21,3,1,w,left_blue.png,left_orange.png,q,right,6102feaf4f6002b3dbc4cdab,001,2021-08-01_12h30.45.680,arrow_simon_norep,2021.1.2,Win32,60.2300789,,,,,,,,,,,,,,,,,,,,,,,,,,,,,,,,,,,,,,
,,,o,1,1.974309999,0,0.82177682,#a3d0fb,,right_blue.png,o,5,2,22,0,1,o,right_blue.png,right_orange.png,p,left,6102feaf4f6002b3dbc4cdab,001,2021-08-01_12h30.45.680,arrow_simon_norep,2021.1.2,Win32,60.2300789,,,,,,,,,,,,,,,,,,,,,,,,,,,,,,,,,,,,,,
,,,p,1,1.59248,0,0.74313399,#f3af84,,right_orange.png,p,5,3,23,0,1,o,right_blue.png,right_orange.png,p,left,6102feaf4f6002b3dbc4cdab,001,2021-08-01_12h30.45.680,arrow_simon_norep,2021.1.2,Win32,60.2300789,,,,,,,,,,,,,,,,,,,,,,,,,,,,,,,,,,,,,,
,,,o,1,1.37737,0,0.287173307,#a3d0fb,,right_blue.png,o,6,0,24,0,1,o,right_blue.png,right_orange.png,p,left,6102feaf4f6002b3dbc4cdab,001,2021-08-01_12h30.45.680,arrow_simon_norep,2021.1.2,Win32,60.2300789,,,,,,,,,,,,,,,,,,,,,,,,,,,,,,,,,,,,,,
,,,q,1,1.123580001,0,0.249313775,#f3af84,,left_orange.png,q,6,1,25,2,1,w,left_blue.png,left_orange.png,q,left,6102feaf4f6002b3dbc4cdab,001,2021-08-01_12h30.45.680,arrow_simon_norep,2021.1.2,Win32,60.2300789,,,,,,,,,,,,,,,,,,,,,,,,,,,,,,,,,,,,,,
,,,o,0,1.501209999,1,0.795553905,#a3d0fb,,left_blue.png,w,6,2,26,3,1,w,left_blue.png,left_orange.png,q,right,6102feaf4f6002b3dbc4cdab,001,2021-08-01_12h30.45.680,arrow_simon_norep,2021.1.2,Win32,60.2300789,,,,,,,,,,,,,,,,,,,,,,,,,,,,,,,,,,,,,,
,,,p,1,1.627774999,0,0.463538833,#f3af84,,right_orange.png,p,6,3,27,0,1,o,right_blue.png,right_orange.png,p,left,6102feaf4f6002b3dbc4cdab,001,2021-08-01_12h30.45.680,arrow_simon_norep,2021.1.2,Win32,60.2300789,,,,,,,,,,,,,,,,,,,,,,,,,,,,,,,,,,,,,,
,,,q,0,1.15167,1,0.170046016,#a3d0fb,,left_blue.png,w,7,0,28,3,1,w,left_blue.png,left_orange.png,q,right,6102feaf4f6002b3dbc4cdab,001,2021-08-01_12h30.45.680,arrow_simon_norep,2021.1.2,Win32,60.2300789,,,,,,,,,,,,,,,,,,,,,,,,,,,,,,,,,,,,,,
,,,p,1,1.88521,0,0.453081669,#f3af84,,right_orange.png,p,7,1,29,0,1,o,right_blue.png,right_orange.png,p,left,6102feaf4f6002b3dbc4cdab,001,2021-08-01_12h30.45.680,arrow_simon_norep,2021.1.2,Win32,60.2300789,,,,,,,,,,,,,,,,,,,,,,,,,,,,,,,,,,,,,,
,,,o,0,1.818344999,1,0.744648611,#a3d0fb,,left_blue.png,w,7,2,30,3,1,w,left_blue.png,left_orange.png,q,right,6102feaf4f6002b3dbc4cdab,001,2021-08-01_12h30.45.680,arrow_simon_norep,2021.1.2,Win32,60.2300789,,,,,,,,,,,,,,,,,,,,,,,,,,,,,,,,,,,,,,
,,,q,1,1.701989999,0,0.385024372,#f3af84,,left_orange.png,q,7,3,31,2,1,w,left_blue.png,left_orange.png,q,left,6102feaf4f6002b3dbc4cdab,001,2021-08-01_12h30.45.680,arrow_simon_norep,2021.1.2,Win32,60.2300789,,,,,,,,,,,,,,,,,,,,,,,,,,,,,,,,,,,,,,
,,,w,1,2.166510001,0,0.939921513,#a3d0fb,,left_blue.png,w,8,0,32,2,1,w,left_blue.png,left_orange.png,q,left,6102feaf4f6002b3dbc4cdab,001,2021-08-01_12h30.45.680,arrow_simon_norep,2021.1.2,Win32,60.2300789,,,,,,,,,,,,,,,,,,,,,,,,,,,,,,,,,,,,,,
,,,p,1,2.086970001,0,0.493529582,#f3af84,,right_orange.png,p,8,1,33,1,1,o,right_blue.png,right_orange.png,p,right,6102feaf4f6002b3dbc4cdab,001,2021-08-01_12h30.45.680,arrow_simon_norep,2021.1.2,Win32,60.2300789,,,,,,,,,,,,,,,,,,,,,,,,,,,,,,,,,,,,,,
,,,o,1,0.592005,0,0.019644149,#a3d0fb,,right_blue.png,o,8,2,34,1,1,o,right_blue.png,right_orange.png,p,right,6102feaf4f6002b3dbc4cdab,001,2021-08-01_12h30.45.680,arrow_simon_norep,2021.1.2,Win32,60.2300789,,,,,,,,,,,,,,,,,,,,,,,,,,,,,,,,,,,,,,
,,,q,1,1.91773,0,0.779207712,#f3af84,,left_orange.png,q,8,3,35,3,1,w,left_blue.png,left_orange.png,q,right,6102feaf4f6002b3dbc4cdab,001,2021-08-01_12h30.45.680,arrow_simon_norep,2021.1.2,Win32,60.2300789,,,,,,,,,,,,,,,,,,,,,,,,,,,,,,,,,,,,,,
,,,p,0,1.445079999,1,0.597925136,#a3d0fb,,right_blue.png,o,9,0,36,1,1,o,right_blue.png,right_orange.png,p,right,6102feaf4f6002b3dbc4cdab,001,2021-08-01_12h30.45.680,arrow_simon_norep,2021.1.2,Win32,60.2300789,,,,,,,,,,,,,,,,,,,,,,,,,,,,,,,,,,,,,,
,,,q,1,2.375445001,0,0.925563544,#f3af84,,left_orange.png,q,9,1,37,3,1,w,left_blue.png,left_orange.png,q,right,6102feaf4f6002b3dbc4cdab,001,2021-08-01_12h30.45.680,arrow_simon_norep,2021.1.2,Win32,60.2300789,,,,,,,,,,,,,,,,,,,,,,,,,,,,,,,,,,,,,,
,,,w,1,1.318244999,0,0.409674934,#a3d0fb,,left_blue.png,w,9,2,38,3,1,w,left_blue.png,left_orange.png,q,right,6102feaf4f6002b3dbc4cdab,001,2021-08-01_12h30.45.680,arrow_simon_norep,2021.1.2,Win32,60.2300789,,,,,,,,,,,,,,,,,,,,,,,,,,,,,,,,,,,,,,
,,,q,1,1.668695001,0,0.74827408,#f3af84,,left_orange.png,q,9,3,39,2,1,w,left_blue.png,left_orange.png,q,left,6102feaf4f6002b3dbc4cdab,001,2021-08-01_12h30.45.680,arrow_simon_norep,2021.1.2,Win32,60.2300789,,,,,,,,,,,,,,,,,,,,,,,,,,,,,,,,,,,,,,
,,,o,1,2.001695,0,0.354873557,#a3d0fb,,right_blue.png,o,10,0,40,1,1,o,right_blue.png,right_orange.png,p,right,6102feaf4f6002b3dbc4cdab,001,2021-08-01_12h30.45.680,arrow_simon_norep,2021.1.2,Win32,60.2300789,,,,,,,,,,,,,,,,,,,,,,,,,,,,,,,,,,,,,,
,,,q,1,1.21744,0,0.496812339,#f3af84,,left_orange.png,q,10,1,41,2,1,w,left_blue.png,left_orange.png,q,left,6102feaf4f6002b3dbc4cdab,001,2021-08-01_12h30.45.680,arrow_simon_norep,2021.1.2,Win32,60.2300789,,,,,,,,,,,,,,,,,,,,,,,,,,,,,,,,,,,,,,
,,,o,1,0.95142,0,0.036850267,#a3d0fb,,right_blue.png,o,10,2,42,1,1,o,right_blue.png,right_orange.png,p,right,6102feaf4f6002b3dbc4cdab,001,2021-08-01_12h30.45.680,arrow_simon_norep,2021.1.2,Win32,60.2300789,,,,,,,,,,,,,,,,,,,,,,,,,,,,,,,,,,,,,,
,,,q,1,1.101545,0,0.240469781,#f3af84,,left_orange.png,q,10,3,43,3,1,w,left_blue.png,left_orange.png,q,right,6102feaf4f6002b3dbc4cdab,001,2021-08-01_12h30.45.680,arrow_simon_norep,2021.1.2,Win32,60.2300789,,,,,,,,,,,,,,,,,,,,,,,,,,,,,,,,,,,,,,
,,,w,1,1.321450001,0,0.422191152,#a3d0fb,,left_blue.png,w,11,0,44,3,1,w,left_blue.png,left_orange.png,q,right,6102feaf4f6002b3dbc4cdab,001,2021-08-01_12h30.45.680,arrow_simon_norep,2021.1.2,Win32,60.2300789,,,,,,,,,,,,,,,,,,,,,,,,,,,,,,,,,,,,,,
,,,p,1,1.318314999,0,0.436375918,#f3af84,,right_orange.png,p,11,1,45,0,1,o,right_blue.png,right_orange.png,p,left,6102feaf4f6002b3dbc4cdab,001,2021-08-01_12h30.45.680,arrow_simon_norep,2021.1.2,Win32,60.2300789,,,,,,,,,,,,,,,,,,,,,,,,,,,,,,,,,,,,,,
,,,o,1,1.67708,0,0.66361658,#a3d0fb,,right_blue.png,o,11,2,46,1,1,o,right_blue.png,right_orange.png,p,right,6102feaf4f6002b3dbc4cdab,001,2021-08-01_12h30.45.680,arrow_simon_norep,2021.1.2,Win32,60.2300789,,,,,,,,,,,,,,,,,,,,,,,,,,,,,,,,,,,,,,
,,,w,0,1.501235001,1,0.668361407,#f3af84,,left_orange.png,q,11,3,47,2,1,w,left_blue.png,left_orange.png,q,left,6102feaf4f6002b3dbc4cdab,001,2021-08-01_12h30.45.680,arrow_simon_norep,2021.1.2,Win32,60.2300789,,,,,,,,,,,,,,,,,,,,,,,,,,,,,,,,,,,,,,
,,,o,1,2.430144999,0,0.939235419,#a3d0fb,,right_blue.png,o,12,0,48,0,1,o,right_blue.png,right_orange.png,p,left,6102feaf4f6002b3dbc4cdab,001,2021-08-01_12h30.45.680,arrow_simon_norep,2021.1.2,Win32,60.2300789,,,,,,,,,,,,,,,,,,,,,,,,,,,,,,,,,,,,,,
,,,q,1,1.622964999,0,0.849549002,#f3af84,,left_orange.png,q,12,1,49,2,1,w,left_blue.png,left_orange.png,q,left,6102feaf4f6002b3dbc4cdab,001,2021-08-01_12h30.45.680,arrow_simon_norep,2021.1.2,Win32,60.2300789,,,,,,,,,,,,,,,,,,,,,,,,,,,,,,,,,,,,,,
,,,w,1,0.85585,0,0.12286484,#a3d0fb,,left_blue.png,w,12,2,50,2,1,w,left_blue.png,left_orange.png,q,left,6102feaf4f6002b3dbc4cdab,001,2021-08-01_12h30.45.680,arrow_simon_norep,2021.1.2,Win32,60.2300789,,,,,,,,,,,,,,,,,,,,,,,,,,,,,,,,,,,,,,
,,,p,0,1.867839999,1,0.964142767,#f3af84,,left_orange.png,q,12,3,51,3,1,w,left_blue.png,left_orange.png,q,right,6102feaf4f6002b3dbc4cdab,001,2021-08-01_12h30.45.680,arrow_simon_norep,2021.1.2,Win32,60.2300789,,,,,,,,,,,,,,,,,,,,,,,,,,,,,,,,,,,,,,
,,,o,1,2.124330001,0,0.907969744,#a3d0fb,,right_blue.png,o,13,0,52,0,1,o,right_blue.png,right_orange.png,p,left,6102feaf4f6002b3dbc4cdab,001,2021-08-01_12h30.45.680,arrow_simon_norep,2021.1.2,Win32,60.2300789,,,,,,,,,,,,,,,,,,,,,,,,,,,,,,,,,,,,,,
,,,p,1,0.891279999,0,0.185913118,#f3af84,,right_orange.png,p,13,1,53,1,1,o,right_blue.png,right_orange.png,p,right,6102feaf4f6002b3dbc4cdab,001,2021-08-01_12h30.45.680,arrow_simon_norep,2021.1.2,Win32,60.2300789,,,,,,,,,,,,,,,,,,,,,,,,,,,,,,,,,,,,,,
,,,o,1,1.772585001,0,0.391739089,#a3d0fb,,right_blue.png,o,13,2,54,0,1,o,right_blue.png,right_orange.png,p,left,6102feaf4f6002b3dbc4cdab,001,2021-08-01_12h30.45.680,arrow_simon_norep,2021.1.2,Win32,60.2300789,,,,,,,,,,,,,,,,,,,,,,,,,,,,,,,,,,,,,,
,,,q,1,1.326915,0,0.20923523,#f3af84,,left_orange.png,q,13,3,55,3,1,w,left_blue.png,left_orange.png,q,right,6102feaf4f6002b3dbc4cdab,001,2021-08-01_12h30.45.680,arrow_simon_norep,2021.1.2,Win32,60.2300789,,,,,,,,,,,,,,,,,,,,,,,,,,,,,,,,,,,,,,
,,,w,1,1.077559998,0,0.234090858,#a3d0fb,,left_blue.png,w,14,0,56,3,1,w,left_blue.png,left_orange.png,q,right,6102feaf4f6002b3dbc4cdab,001,2021-08-01_12h30.45.680,arrow_simon_norep,2021.1.2,Win32,60.2300789,,,,,,,,,,,,,,,,,,,,,,,,,,,,,,,,,,,,,,
,,,p,1,1.134584999,0,0.037212393,#f3af84,,right_orange.png,p,14,1,57,1,1,o,right_blue.png,right_orange.png,p,right,6102feaf4f6002b3dbc4cdab,001,2021-08-01_12h30.45.680,arrow_simon_norep,2021.1.2,Win32,60.2300789,,,,,,,,,,,,,,,,,,,,,,,,,,,,,,,,,,,,,,
,,,o,1,1.5348,0,0.308431154,#a3d0fb,,right_blue.png,o,14,2,58,0,1,o,right_blue.png,right_orange.png,p,left,6102feaf4f6002b3dbc4cdab,001,2021-08-01_12h30.45.680,arrow_simon_norep,2021.1.2,Win32,60.2300789,,,,,,,,,,,,,,,,,,,,,,,,,,,,,,,,,,,,,,
,,,p,1,0.987775,0,0.203585262,#f3af84,,right_orange.png,p,14,3,59,1,1,o,right_blue.png,right_orange.png,p,right,6102feaf4f6002b3dbc4cdab,001,2021-08-01_12h30.45.680,arrow_simon_norep,2021.1.2,Win32,60.2300789,,,,,,,,,,,,,,,,,,,,,,,,,,,,,,,,,,,,,,
,,,,,,,,,,,,,,,,,,,,,,6102feaf4f6002b3dbc4cdab,001,2021-08-01_12h30.45.680,arrow_simon_norep,2021.1.2,Win32,60.2300789,space,4.06099,1,0,1,0,1,,,,,,,,,,,,,,,,,,,,,,,,,,,,,,,
,,,,,,,,,,,,,,,,,,,,,,6102feaf4f6002b3dbc4cdab,001,2021-08-01_12h30.45.680,arrow_simon_norep,2021.1.2,Win32,60.2300789,,,,,,,,space,0,65.76948,o,2.75505,0,0,0,0,1,,,,,,,,,,,,,,,,,,,,,
,,,,,,,,,,,,,,,,,,,,,,6102feaf4f6002b3dbc4cdab,001,2021-08-01_12h30.45.680,arrow_simon_norep,2021.1.2,Win32,60.2300789,,,,,,,,,,,p,2.066909999,1,0,1,0,1,,,,,,,,,,,,,,,,,,,,,
,,,,,,,,,,,,,,,,,,,,,,6102feaf4f6002b3dbc4cdab,001,2021-08-01_12h30.45.680,arrow_simon_norep,2021.1.2,Win32,60.2300789,,,,,,,,,,,p,2.377305001,2,0,2,0,1,,,,,,,,,,,,,,,,,,,,,
,,,,,,,,,,,,,,,,,,,,,,6102feaf4f6002b3dbc4cdab,001,2021-08-01_12h30.45.680,arrow_simon_norep,2021.1.2,Win32,60.2300789,,,,,,,,,,,p,2.588784998,3,0,3,0,1,,,,,,,,,,,,,,,,,,,,,
,,,,,,,,,,,,,,,,,,,,,,6102feaf4f6002b3dbc4cdab,001,2021-08-01_12h30.45.680,arrow_simon_norep,2021.1.2,Win32,60.2300789,,,,,,,,,,,p,2.468390001,4,0,4,0,1,,,,,,,,,,,,,,,,,,,,,
,,,,,,,,,,,,,,,,,,,,,,6102feaf4f6002b3dbc4cdab,001,2021-08-01_12h30.45.680,arrow_simon_norep,2021.1.2,Win32,60.2300789,,,,,,,,,,,p,2.660180001,5,0,5,0,1,,,,,,,,,,,,,,,,,,,,,
,,,,,,,,,,,,,,,,,,,,,,6102feaf4f6002b3dbc4cdab,001,2021-08-01_12h30.45.680,arrow_simon_norep,2021.1.2,Win32,60.2300789,,,,,,,,,,,p,2.599655,6,0,6,0,1,,,,,,,,,,,,,,,,,,,,,
,,,,,,,,,,,,,,,,,,,,,,6102feaf4f6002b3dbc4cdab,001,2021-08-01_12h30.45.680,arrow_simon_norep,2021.1.2,Win32,60.2300789,,,,,,,,,,,p,2.459504999,7,0,7,0,1,,,,,,,,,,,,,,,,,,,,,
,,,,,,,,,,,,,,,,,,,,,,6102feaf4f6002b3dbc4cdab,001,2021-08-01_12h30.45.680,arrow_simon_norep,2021.1.2,Win32,60.2300789,,,,,,,,,,,p,2.668285001,8,0,8,0,1,,,,,,,,,,,,,,,,,,,,,
,,,,,,,,,,,,,,,,,,,,,,6102feaf4f6002b3dbc4cdab,001,2021-08-01_12h30.45.680,arrow_simon_norep,2021.1.2,Win32,60.2300789,,,,,,,,,,,p,2.453159999,9,0,9,0,1,,,,,,,,,,,,,,,,,,,,,
,,,,,,,,,,,,,,,,,,,,,,6102feaf4f6002b3dbc4cdab,001,2021-08-01_12h30.45.680,arrow_simon_norep,2021.1.2,Win32,60.2300789,,,,,,,,,,,p,2.450110001,10,0,10,0,1,,,,,,,,,,,,,,,,,,,,,
,,,,,,,,,,,,,,,,,,,,,,6102feaf4f6002b3dbc4cdab,001,2021-08-01_12h30.45.680,arrow_simon_norep,2021.1.2,Win32,60.2300789,,,,,,,,,,,o,2.435190002,11,0,11,0,1,,,,,,,,,,,,,,,,,,,,,
,,,,,,,,,,,,,,,,,,,,,,6102feaf4f6002b3dbc4cdab,001,2021-08-01_12h30.45.680,arrow_simon_norep,2021.1.2,Win32,60.2300789,,,,,,,,,,,o,2.40312,12,0,12,0,1,,,,,,,,,,,,,,,,,,,,,
,,,,,,,,,,,,,,,,,,,,,,6102feaf4f6002b3dbc4cdab,001,2021-08-01_12h30.45.680,arrow_simon_norep,2021.1.2,Win32,60.2300789,,,,,,,,,,,o,2.438855,13,0,13,0,1,,,,,,,,,,,,,,,,,,,,,
,,,,,,,,,,,,,,,,,,,,,,6102feaf4f6002b3dbc4cdab,001,2021-08-01_12h30.45.680,arrow_simon_norep,2021.1.2,Win32,60.2300789,,,,,,,,,,,o,2.484494999,14,0,14,0,1,,,,,,,,,,,,,,,,,,,,,
,,,,,,,,,,,,,,,,,,,,,,6102feaf4f6002b3dbc4cdab,001,2021-08-01_12h30.45.680,arrow_simon_norep,2021.1.2,Win32,60.2300789,,,,,,,,,,,p,2.358604999,15,0,15,0,1,,,,,,,,,,,,,,,,,,,,,
,,,,,,,,,,,,,,,,,,,,,,6102feaf4f6002b3dbc4cdab,001,2021-08-01_12h30.45.680,arrow_simon_norep,2021.1.2,Win32,60.2300789,,,,,,,,,,,o,2.360845,16,0,16,0,1,,,,,,,,,,,,,,,,,,,,,
,,,,,,,,,,,,,,,,,,,,,,6102feaf4f6002b3dbc4cdab,001,2021-08-01_12h30.45.680,arrow_simon_norep,2021.1.2,Win32,60.2300789,,,,,,,,,,,o,2.422499999,17,0,17,0,1,,,,,,,,,,,,,,,,,,,,,
,,,,,,,,,,,,,,,,,,,,,,6102feaf4f6002b3dbc4cdab,001,2021-08-01_12h30.45.680,arrow_simon_norep,2021.1.2,Win32,60.2300789,,,,,,,,,,,o,2.70401,18,0,18,0,1,,,,,,,,,,,,,,,,,,,,,
,,,,,,,,,,,,,,,,,,,,,,6102feaf4f6002b3dbc4cdab,001,2021-08-01_12h30.45.680,arrow_simon_norep,2021.1.2,Win32,60.2300789,,,,,,,,,,,o,2.451040002,19,0,19,0,1,,,,,,,,,,,,,,,,,,,,,
,,,,,,,,,,,,,,,,,,,,,,6102feaf4f6002b3dbc4cdab,001,2021-08-01_12h30.45.680,arrow_simon_norep,2021.1.2,Win32,60.2300789,,,,,,,,,,,o,2.601050001,20,0,20,0,1,,,,,,,,,,,,,,,,,,,,,
,,,,,,,,,,,,,,,,,,,,,,6102feaf4f6002b3dbc4cdab,001,2021-08-01_12h30.45.680,arrow_simon_norep,2021.1.2,Win32,60.2300789,,,,,,,,,,,p,2.301649999,21,0,21,0,1,,,,,,,,,,,,,,,,,,,,,
,,,,,,,,,,,,,,,,,,,,,,6102feaf4f6002b3dbc4cdab,001,2021-08-01_12h30.45.680,arrow_simon_norep,2021.1.2,Win32,60.2300789,,,,,,,,,,,o,2.067245001,22,0,22,0,1,,,,,,,,,,,,,,,,,,,,,
,,,,,,,,,,,,,,,,,,,,,,6102feaf4f6002b3dbc4cdab,001,2021-08-01_12h30.45.680,arrow_simon_norep,2021.1.2,Win32,60.2300789,,,,,,,,,,,o,2.434294999,23,0,23,0,1,,,,,,,,,,,,,,,,,,,,,
,,,,,,,,,,,,,,,,,,,,,,6102feaf4f6002b3dbc4cdab,001,2021-08-01_12h30.45.680,arrow_simon_norep,2021.1.2,Win32,60.2300789,,,,,,,,,,,o,2.310190002,24,0,24,0,1,,,,,,,,,,,,,,,,,,,,,
,,,,,,,,,,,,,,,,,,,,,,6102feaf4f6002b3dbc4cdab,001,2021-08-01_12h30.45.680,arrow_simon_norep,2021.1.2,Win32,60.2300789,,,,,,,,,,,o,2.510775,25,0,25,0,1,,,,,,,,,,,,,,,,,,,,,
,,,,,,,,,,,,,,,,,,,,,,6102feaf4f6002b3dbc4cdab,001,2021-08-01_12h30.45.680,arrow_simon_norep,2021.1.2,Win32,60.2300789,,,,,,,,,,,o,2.644270001,26,0,26,0,1,,,,,,,,,,,,,,,,,,,,,
,,,,,,,,,,,,,,,,,,,,,,6102feaf4f6002b3dbc4cdab,001,2021-08-01_12h30.45.680,arrow_simon_norep,2021.1.2,Win32,60.2300789,,,,,,,,,,,o,2.45126,27,0,27,0,1,,,,,,,,,,,,,,,,,,,,,
,,,,,,,,,,,,,,,,,,,,,,6102feaf4f6002b3dbc4cdab,001,2021-08-01_12h30.45.680,arrow_simon_norep,2021.1.2,Win32,60.2300789,,,,,,,,,,,o,2.517595001,28,0,28,0,1,,,,,,,,,,,,,,,,,,,,,
,,,,,,,,,,,,,,,,,,,,,,6102feaf4f6002b3dbc4cdab,001,2021-08-01_12h30.45.680,arrow_simon_norep,2021.1.2,Win32,60.2300789,,,,,,,,,,,o,2.38964,29,0,29,0,1,,,,,,,,,,,,,,,,,,,,,
,,,,,,,,,,,,,,,,,,,,,,6102feaf4f6002b3dbc4cdab,001,2021-08-01_12h30.45.680,arrow_simon_norep,2021.1.2,Win32,60.2300789,,,,,,,,,,,o,2.275245,30,0,30,0,1,,,,,,,,,,,,,,,,,,,,,
,,,,,,,,,,,,,,,,,,,,,,6102feaf4f6002b3dbc4cdab,001,2021-08-01_12h30.45.680,arrow_simon_norep,2021.1.2,Win32,60.2300789,,,,,,,,,,,o,1.74185,31,0,31,0,1,,,,,,,,,,,,,,,,,,,,,
,,,,,,,,,,,,,,,,,,,,,,6102feaf4f6002b3dbc4cdab,001,2021-08-01_12h30.45.680,arrow_simon_norep,2021.1.2,Win32,60.2300789,,,,,,,,,,,o,2.75718,32,0,32,0,1,,,,,,,,,,,,,,,,,,,,,
,,,,,,,,,,,,,,,,,,,,,,6102feaf4f6002b3dbc4cdab,001,2021-08-01_12h30.45.680,arrow_simon_norep,2021.1.2,Win32,60.2300789,,,,,,,,,,,o,2.419585001,33,0,33,0,1,,,,,,,,,,,,,,,,,,,,,
,,,,,,,,,,,,,,,,,,,,,,6102feaf4f6002b3dbc4cdab,001,2021-08-01_12h30.45.680,arrow_simon_norep,2021.1.2,Win32,60.2300789,,,,,,,,,,,o,2.39395,34,0,34,0,1,,,,,,,,,,,,,,,,,,,,,
,,,,,,,,,,,,,,,,,,,,,,6102feaf4f6002b3dbc4cdab,001,2021-08-01_12h30.45.680,arrow_simon_norep,2021.1.2,Win32,60.2300789,,,,,,,,,,,o,2.418029999,35,0,35,0,1,,,,,,,,,,,,,,,,,,,,,
,,,,,,,,,,,,,,,,,,,,,,6102feaf4f6002b3dbc4cdab,001,2021-08-01_12h30.45.680,arrow_simon_norep,2021.1.2,Win32,60.2300789,,,,,,,,,,,o,2.426194999,36,0,36,0,1,,,,,,,,,,,,,,,,,,,,,
,,,,,,,,,,,,,,,,,,,,,,6102feaf4f6002b3dbc4cdab,001,2021-08-01_12h30.45.680,arrow_simon_norep,2021.1.2,Win32,60.2300789,,,,,,,,,,,o,2.450479999,37,0,37,0,1,,,,,,,,,,,,,,,,,,,,,
,,,,,,,,,,,,,,,,,,,,,,6102feaf4f6002b3dbc4cdab,001,2021-08-01_12h30.45.680,arrow_simon_norep,2021.1.2,Win32,60.2300789,,,,,,,,,,,o,2.372,38,0,38,0,1,,,,,,,,,,,,,,,,,,,,,
,,,,,,,,,,,,,,,,,,,,,,6102feaf4f6002b3dbc4cdab,001,2021-08-01_12h30.45.680,arrow_simon_norep,2021.1.2,Win32,60.2300789,,,,,,,,,,,o,2.179084999,39,0,39,0,1,,,,,,,,,,,,,,,,,,,,,
,,,,,,,,,,,,,,,,,,,,,,6102feaf4f6002b3dbc4cdab,001,2021-08-01_12h30.45.680,arrow_simon_norep,2021.1.2,Win32,60.2300789,,,,,,,,,,,o,2.361564999,40,0,40,0,1,,,,,,,,,,,,,,,,,,,,,
,,,,,,,,,,,,,,,,,,,,,,6102feaf4f6002b3dbc4cdab,001,2021-08-01_12h30.45.680,arrow_simon_norep,2021.1.2,Win32,60.2300789,,,,,,,,,,,p,4.165625,41,0,41,0,1,,,,,,,,,,,,,,,,,,,,,
,,,,,,,,,,,,,,,,,,,,,,6102feaf4f6002b3dbc4cdab,001,2021-08-01_12h30.45.680,arrow_simon_norep,2021.1.2,Win32,60.2300789,,,,,,,,,,,o,2.484919999,42,0,42,0,1,,,,,,,,,,,,,,,,,,,,,
,,,,,,,,,,,,,,,,,,,,,,6102feaf4f6002b3dbc4cdab,001,2021-08-01_12h30.45.680,arrow_simon_norep,2021.1.2,Win32,60.2300789,,,,,,,,,,,o,2.649110001,43,0,43,0,1,,,,,,,,,,,,,,,,,,,,,
,,,,,,,,,,,,,,,,,,,,,,6102feaf4f6002b3dbc4cdab,001,2021-08-01_12h30.45.680,arrow_simon_norep,2021.1.2,Win32,60.2300789,,,,,,,,,,,o,2.317469999,44,0,44,0,1,,,,,,,,,,,,,,,,,,,,,
,,,,,,,,,,,,,,,,,,,,,,6102feaf4f6002b3dbc4cdab,001,2021-08-01_12h30.45.680,arrow_simon_norep,2021.1.2,Win32,60.2300789,,,,,,,,,,,o,2.35626,45,0,45,0,1,,,,,,,,,,,,,,,,,,,,,
,,,,,,,,,,,,,,,,,,,,,,6102feaf4f6002b3dbc4cdab,001,2021-08-01_12h30.45.680,arrow_simon_norep,2021.1.2,Win32,60.2300789,,,,,,,,,,,o,2.42454,46,0,46,0,1,,,,,,,,,,,,,,,,,,,,,
,,,,,,,,,,,,,,,,,,,,,,6102feaf4f6002b3dbc4cdab,001,2021-08-01_12h30.45.680,arrow_simon_norep,2021.1.2,Win32,60.2300789,,,,,,,,,,,o,2.425395001,47,0,47,0,1,,,,,,,,,,,,,,,,,,,,,
,,,,,,,,,,,,,,,,,,,,,,6102feaf4f6002b3dbc4cdab,001,2021-08-01_12h30.45.680,arrow_simon_norep,2021.1.2,Win32,60.2300789,,,,,,,,,,,o,2.40584,48,0,48,0,1,,,,,,,,,,,,,,,,,,,,,
,,,,,,,,,,,,,,,,,,,,,,6102feaf4f6002b3dbc4cdab,001,2021-08-01_12h30.45.680,arrow_simon_norep,2021.1.2,Win32,60.2300789,,,,,,,,,,,o,2.363445001,49,0,49,0,1,,,,,,,,,,,,,,,,,,,,,
,,,,,,,,,,,,,,,,,,,,,,6102feaf4f6002b3dbc4cdab,001,2021-08-01_12h30.45.680,arrow_simon_norep,2021.1.2,Win32,60.2300789,,,,,,,,,,,o,2.346915001,50,0,50,0,1,,,,,,,,,,,,,,,,,,,,,
,,,,,,,,,,,,,,,,,,,,,,6102feaf4f6002b3dbc4cdab,001,2021-08-01_12h30.45.680,arrow_simon_norep,2021.1.2,Win32,60.2300789,,,,,,,,,,,p,2.35874,51,0,51,0,1,,,,,,,,,,,,,,,,,,,,,
,,,,,,,,,,,,,,,,,,,,,,6102feaf4f6002b3dbc4cdab,001,2021-08-01_12h30.45.680,arrow_simon_norep,2021.1.2,Win32,60.2300789,,,,,,,,,,,o,2.45277,52,0,52,0,1,,,,,,,,,,,,,,,,,,,,,
,,,,,,,,,,,,,,,,,,,,,,6102feaf4f6002b3dbc4cdab,001,2021-08-01_12h30.45.680,arrow_simon_norep,2021.1.2,Win32,60.2300789,,,,,,,,,,,o,2.32766,53,0,53,0,1,,,,,,,,,,,,,,,,,,,,,
,,,,,,,,,,,,,,,,,,,,,,6102feaf4f6002b3dbc4cdab,001,2021-08-01_12h30.45.680,arrow_simon_norep,2021.1.2,Win32,60.2300789,,,,,,,,,,,o,2.385155,54,0,54,0,1,,,,,,,,,,,,,,,,,,,,,
,,,,,,,,,,,,,,,,,,,,,,6102feaf4f6002b3dbc4cdab,001,2021-08-01_12h30.45.680,arrow_simon_norep,2021.1.2,Win32,60.2300789,,,,,,,,,,,p,2.18359,55,0,55,0,1,,,,,,,,,,,,,,,,,,,,,
,,,,,,,,,,,,,,,,,,,,,,6102feaf4f6002b3dbc4cdab,001,2021-08-01_12h30.45.680,arrow_simon_norep,2021.1.2,Win32,60.2300789,,,,,,,,,,,o,2.44551,56,0,56,0,1,,,,,,,,,,,,,,,,,,,,,
,,,,,,,,,,,,,,,,,,,,,,6102feaf4f6002b3dbc4cdab,001,2021-08-01_12h30.45.680,arrow_simon_norep,2021.1.2,Win32,60.2300789,,,,,,,,,,,o,2.40013,57,0,57,0,1,,,,,,,,,,,,,,,,,,,,,
,,,,,,,,,,,,,,,,,,,,,,6102feaf4f6002b3dbc4cdab,001,2021-08-01_12h30.45.680,arrow_simon_norep,2021.1.2,Win32,60.2300789,,,,,,,,,,,o,2.174785001,58,0,58,0,1,,,,,,,,,,,,,,,,,,,,,
,,,,,,,,,,,,,,,,,,,,,,6102feaf4f6002b3dbc4cdab,001,2021-08-01_12h30.45.680,arrow_simon_norep,2021.1.2,Win32,60.2300789,,,,,,,,,,,o,2.418445,59,0,59,0,1,,,,,,,,,,,,,,,,,,,,,
,,,,,,1,2.199914261,#a3d0fb,,right_blue.png,o,,,,,,o,right_blue.png,right_orange.png,p,right,6102feaf4f6002b3dbc4cdab,001,2021-08-01_12h30.45.680,arrow_simon_norep,2021.1.2,Win32,60.2300789,,,,,,,,,,,,,,,,,,space,0,69.95583,p,0,1.563169999,1,FALSE,FALSE,0,0,0,1,1,,,,,,,
,,,,,,1,1.788464344,#f3af84,,right_orange.png,p,,,,,,o,right_blue.png,right_orange.png,p,right,6102feaf4f6002b3dbc4cdab,001,2021-08-01_12h30.45.680,arrow_simon_norep,2021.1.2,Win32,60.2300789,,,,,,,,,,,,,,,,,,,,,p,1,1.18455,2,FALSE,TRUE,0,1,1,1,1,,,,,,,
,,,,,,1,1.589709354,#a3d0fb,,left_blue.png,w,,,,,,w,left_blue.png,left_orange.png,q,left,6102feaf4f6002b3dbc4cdab,001,2021-08-01_12h30.45.680,arrow_simon_norep,2021.1.2,Win32,60.2300789,,,,,,,,,,,,,,,,,,,,,q,0,1.151224999,3,FALSE,TRUE,0,2,2,2,1,,,,,,,
,,,,,,1,2.113378434,#f3af84,,left_orange.png,q,,,,,,w,left_blue.png,left_orange.png,q,right,6102feaf4f6002b3dbc4cdab,001,2021-08-01_12h30.45.680,arrow_simon_norep,2021.1.2,Win32,60.2300789,,,,,,,,,,,,,,,,,,,,,o,0,1.596484998,4,FALSE,FALSE,0,3,3,3,1,,,,,,,
,,,,,,1,2.400860797,#a3d0fb,,right_blue.png,o,,,,,,o,right_blue.png,right_orange.png,p,left,6102feaf4f6002b3dbc4cdab,001,2021-08-01_12h30.45.680,arrow_simon_norep,2021.1.2,Win32,60.2300789,,,,,,,,,,,,,,,,,,,,,w,0,1.833985001,5,TRUE,FALSE,1,0,4,0,1,,,,,,,
,,,,,,1,1.969489409,#f3af84,,right_orange.png,p,,,,,,o,right_blue.png,right_orange.png,p,left,6102feaf4f6002b3dbc4cdab,001,2021-08-01_12h30.45.680,arrow_simon_norep,2021.1.2,Win32,60.2300789,,,,,,,,,,,,,,,,,,,,,o,0,1.58588,6,FALSE,FALSE,1,1,5,0,1,,,,,,,
,,,,,,1,1.562758118,#a3d0fb,,left_blue.png,w,,,,,,w,left_blue.png,left_orange.png,q,right,6102feaf4f6002b3dbc4cdab,001,2021-08-01_12h30.45.680,arrow_simon_norep,2021.1.2,Win32,60.2300789,,,,,,,,,,,,,,,,,,,,,o,0,1.500985,7,FALSE,FALSE,1,2,6,3,1,,,,,,,
,,,,,,0,1.664586128,#f3af84,,right_orange.png,p,,,,,,o,right_blue.png,right_orange.png,p,right,6102feaf4f6002b3dbc4cdab,001,2021-08-01_12h30.45.680,arrow_simon_norep,2021.1.2,Win32,60.2300789,,,,,,,,,,,,,,,,,,,,,p,1,1.437580001,8,FALSE,FALSE,1,3,7,1,1,,,,,,,
,,,,,,0,2.258630238,#a3d0fb,,left_blue.png,w,,,,,,w,left_blue.png,left_orange.png,q,left,6102feaf4f6002b3dbc4cdab,001,2021-08-01_12h30.45.680,arrow_simon_norep,2021.1.2,Win32,60.2300789,,,,,,,,,,,,,,,,,,,,,w,1,1.785045,9,TRUE,FALSE,2,0,8,2,1,,,,,,,
,,,,,,0,1.805054981,#f3af84,,right_orange.png,p,,,,,,o,right_blue.png,right_orange.png,p,right,6102feaf4f6002b3dbc4cdab,001,2021-08-01_12h30.45.680,arrow_simon_norep,2021.1.2,Win32,60.2300789,,,,,,,,,,,,,,,,,,,,,p,1,1.47428,10,FALSE,FALSE,2,1,9,1,1,,,,,,,
,,,,,,0,1.748807919,#a3d0fb,,right_blue.png,o,,,,,,o,right_blue.png,right_orange.png,p,right,6102feaf4f6002b3dbc4cdab,001,2021-08-01_12h30.45.680,arrow_simon_norep,2021.1.2,Win32,60.2300789,,,,,,,,,,,,,,,,,,,,,o,1,1.362465,11,FALSE,TRUE,2,2,10,1,1,,,,,,,
,,,,,,0,1.657524363,#f3af84,,right_orange.png,p,,,,,,o,right_blue.png,right_orange.png,p,left,6102feaf4f6002b3dbc4cdab,001,2021-08-01_12h30.45.680,arrow_simon_norep,2021.1.2,Win32,60.2300789,,,,,,,,,,,,,,,,,,,,,p,1,1.376,12,FALSE,TRUE,2,3,11,0,1,,,,,,,
,,,,,,0,1.932538178,#a3d0fb,,left_blue.png,w,,,,,,w,left_blue.png,left_orange.png,q,right,6102feaf4f6002b3dbc4cdab,001,2021-08-01_12h30.45.680,arrow_simon_norep,2021.1.2,Win32,60.2300789,,,,,,,,,,,,,,,,,,,,,w,1,1.568435,13,FALSE,FALSE,3,0,12,3,1,,,,,,,
,,,,,,0,1.583344077,#f3af84,,right_orange.png,p,,,,,,o,right_blue.png,right_orange.png,p,left,6102feaf4f6002b3dbc4cdab,001,2021-08-01_12h30.45.680,arrow_simon_norep,2021.1.2,Win32,60.2300789,,,,,,,,,,,,,,,,,,,,,p,1,1.418104999,14,FALSE,FALSE,3,1,13,0,1,,,,,,,
,,,,,,0,1.748449609,#a3d0fb,,left_blue.png,w,,,,,,w,left_blue.png,left_orange.png,q,left,6102feaf4f6002b3dbc4cdab,001,2021-08-01_12h30.45.680,arrow_simon_norep,2021.1.2,Win32,60.2300789,,,,,,,,,,,,,,,,,,,,,w,1,1.354080001,15,FALSE,TRUE,3,2,14,2,1,,,,,,,
,,,,,,0,1.761266193,#f3af84,,left_orange.png,q,,,,,,w,left_blue.png,left_orange.png,q,right,6102feaf4f6002b3dbc4cdab,001,2021-08-01_12h30.45.680,arrow_simon_norep,2021.1.2,Win32,60.2300789,,,,,,,,,,,,,,,,,,,,,q,1,1.7005,16,TRUE,FALSE,3,3,15,3,1,,,,,,,
,,,,,,0,2.347107799,#a3d0fb,,left_blue.png,w,,,,,,w,left_blue.png,left_orange.png,q,left,6102feaf4f6002b3dbc4cdab,001,2021-08-01_12h30.45.680,arrow_simon_norep,2021.1.2,Win32,60.2300789,,,,,,,,,,,,,,,,,,,,,w,1,1.65992,17,TRUE,FALSE,4,0,16,2,1,,,,,,,
,,,,,,0,1.621499587,#f3af84,,right_orange.png,p,,,,,,o,right_blue.png,right_orange.png,p,left,6102feaf4f6002b3dbc4cdab,001,2021-08-01_12h30.45.680,arrow_simon_norep,2021.1.2,Win32,60.2300789,,,,,,,,,,,,,,,,,,,,,p,1,1.422515001,18,FALSE,FALSE,4,1,17,0,1,,,,,,,
,,,,,,1,2.164055377,#a3d0fb,,right_blue.png,o,,,,,,o,right_blue.png,right_orange.png,p,right,6102feaf4f6002b3dbc4cdab,001,2021-08-01_12h30.45.680,arrow_simon_norep,2021.1.2,Win32,60.2300789,,,,,,,,,,,,,,,,,,,,,p,0,1.580015,19,FALSE,FALSE,4,2,18,1,1,,,,,,,
,,,,,,1,2.278766095,#f3af84,,right_orange.png,p,,,,,,o,right_blue.png,right_orange.png,p,left,6102feaf4f6002b3dbc4cdab,001,2021-08-01_12h30.45.680,arrow_simon_norep,2021.1.2,Win32,60.2300789,,,,,,,,,,,,,,,,,,,,,w,0,1.570700001,20,FALSE,FALSE,4,3,19,0,1,,,,,,,
,,,,,,1,2.233740358,#a3d0fb,,left_blue.png,w,,,,,,w,left_blue.png,left_orange.png,q,left,6102feaf4f6002b3dbc4cdab,001,2021-08-01_12h30.45.680,arrow_simon_norep,2021.1.2,Win32,60.2300789,,,,,,,,,,,,,,,,,,,,,w,1,1.796249999,21,TRUE,FALSE,5,0,20,2,1,,,,,,,
,,,,,,1,1.918025153,#f3af84,,right_orange.png,p,,,,,,o,right_blue.png,right_orange.png,p,right,6102feaf4f6002b3dbc4cdab,001,2021-08-01_12h30.45.680,arrow_simon_norep,2021.1.2,Win32,60.2300789,,,,,,,,,,,,,,,,,,,,,p,1,1.285814999,22,FALSE,TRUE,5,1,21,1,1,,,,,,,
,,,,,,1,2.026363553,#a3d0fb,,right_blue.png,o,,,,,,o,right_blue.png,right_orange.png,p,left,6102feaf4f6002b3dbc4cdab,001,2021-08-01_12h30.45.680,arrow_simon_norep,2021.1.2,Win32,60.2300789,,,,,,,,,,,,,,,,,,,,,o,1,1.71321,23,TRUE,FALSE,5,2,22,0,1,,,,,,,
,,,,,,1,1.812922135,#f3af84,,left_orange.png,q,,,,,,w,left_blue.png,left_orange.png,q,right,6102feaf4f6002b3dbc4cdab,001,2021-08-01_12h30.45.680,arrow_simon_norep,2021.1.2,Win32,60.2300789,,,,,,,,,,,,,,,,,,,,,w,0,1.453635002,24,FALSE,FALSE,5,3,23,3,1,,,,,,,
,,,,,,1,2.210132689,#a3d0fb,,right_blue.png,o,,,,,,o,right_blue.png,right_orange.png,p,right,6102feaf4f6002b3dbc4cdab,001,2021-08-01_12h30.45.680,arrow_simon_norep,2021.1.2,Win32,60.2300789,,,,,,,,,,,,,,,,,,,,,p,0,1.543579999,25,FALSE,FALSE,6,0,24,1,1,,,,,,,
,,,,,,1,2.421627685,#f3af84,,left_orange.png,q,,,,,,w,left_blue.png,left_orange.png,q,right,6102feaf4f6002b3dbc4cdab,001,2021-08-01_12h30.45.680,arrow_simon_norep,2021.1.2,Win32,60.2300789,,,,,,,,,,,,,,,,,,,,,w,0,1.921515001,26,TRUE,FALSE,6,1,25,3,1,,,,,,,
,,,,,,1,1.675552821,#a3d0fb,,right_blue.png,o,,,,,,o,right_blue.png,right_orange.png,p,right,6102feaf4f6002b3dbc4cdab,001,2021-08-01_12h30.45.680,arrow_simon_norep,2021.1.2,Win32,60.2300789,,,,,,,,,,,,,,,,,,,,,o,1,1.364405001,27,FALSE,TRUE,6,2,26,1,1,,,,,,,
,,,,,,1,2.392480797,#f3af84,,left_orange.png,q,,,,,,w,left_blue.png,left_orange.png,q,left,6102feaf4f6002b3dbc4cdab,001,2021-08-01_12h30.45.680,arrow_simon_norep,2021.1.2,Win32,60.2300789,,,,,,,,,,,,,,,,,,,,,q,1,1.775905,28,TRUE,FALSE,6,3,27,2,1,,,,,,,
,,,,,,1,2.194663145,#a3d0fb,,left_blue.png,w,,,,,,w,left_blue.png,left_orange.png,q,right,6102feaf4f6002b3dbc4cdab,001,2021-08-01_12h30.45.680,arrow_simon_norep,2021.1.2,Win32,60.2300789,,,,,,,,,,,,,,,,,,,,,o,0,1.49649,29,FALSE,FALSE,7,0,28,3,1,,,,,,,
,,,,,,1,2.283662772,#f3af84,,right_orange.png,p,,,,,,o,right_blue.png,right_orange.png,p,left,6102feaf4f6002b3dbc4cdab,001,2021-08-01_12h30.45.680,arrow_simon_norep,2021.1.2,Win32,60.2300789,,,,,,,,,,,,,,,,,,,,,p,1,1.81037,30,TRUE,FALSE,7,1,29,0,1,,,,,,,
,,,,,,1,2.360584619,#a3d0fb,,right_blue.png,o,,,,,,o,right_blue.png,right_orange.png,p,right,6102feaf4f6002b3dbc4cdab,001,2021-08-01_12h30.45.680,arrow_simon_norep,2021.1.2,Win32,60.2300789,,,,,,,,,,,,,,,,,,,,,o,1,1.88868,31,TRUE,FALSE,7,2,30,1,1,,,,,,,
,,,,,,1,2.292589546,#f3af84,,left_orange.png,q,,,,,,w,left_blue.png,left_orange.png,q,left,6102feaf4f6002b3dbc4cdab,001,2021-08-01_12h30.45.680,arrow_simon_norep,2021.1.2,Win32,60.2300789,,,,,,,,,,,,,,,,,,,,,w,0,1.61328,32,TRUE,FALSE,7,3,31,2,1,,,,,,,
,,,,,,1,1.555888708,#a3d0fb,,left_blue.png,w,,,,,,w,left_blue.png,left_orange.png,q,left,6102feaf4f6002b3dbc4cdab,001,2021-08-01_12h30.45.680,arrow_simon_norep,2021.1.2,Win32,60.2300789,,,,,,,,,,,,,,,,,,,,,w,1,1.353600001,33,FALSE,TRUE,8,0,32,2,1,,,,,,,
,,,,,,1,1.85194941,#f3af84,,right_orange.png,p,,,,,,o,right_blue.png,right_orange.png,p,left,6102feaf4f6002b3dbc4cdab,001,2021-08-01_12h30.45.680,arrow_simon_norep,2021.1.2,Win32,60.2300789,,,,,,,,,,,,,,,,,,,,,p,1,1.395135,34,FALSE,TRUE,8,1,33,0,1,,,,,,,
,,,,,,1,1.820631988,#a3d0fb,,left_blue.png,w,,,,,,w,left_blue.png,left_orange.png,q,left,6102feaf4f6002b3dbc4cdab,001,2021-08-01_12h30.45.680,arrow_simon_norep,2021.1.2,Win32,60.2300789,,,,,,,,,,,,,,,,,,,,,w,1,1.701889999,35,TRUE,FALSE,8,2,34,2,1,,,,,,,
,,,,,,1,2.219841862,#f3af84,,right_orange.png,p,,,,,,o,right_blue.png,right_orange.png,p,left,6102feaf4f6002b3dbc4cdab,001,2021-08-01_12h30.45.680,arrow_simon_norep,2021.1.2,Win32,60.2300789,,,,,,,,,,,,,,,,,,,,,p,1,1.727050001,36,TRUE,FALSE,8,3,35,0,1,,,,,,,
,,,,,,0,2.118599205,#a3d0fb,,right_blue.png,o,,,,,,o,right_blue.png,right_orange.png,p,right,6102feaf4f6002b3dbc4cdab,001,2021-08-01_12h30.45.680,arrow_simon_norep,2021.1.2,Win32,60.2300789,,,,,,,,,,,,,,,,,,,,,o,1,1.4012,37,FALSE,FALSE,9,0,36,1,1,,,,,,,
,,,,,,0,1.576377483,#f3af84,,right_orange.png,p,,,,,,o,right_blue.png,right_orange.png,p,left,6102feaf4f6002b3dbc4cdab,001,2021-08-01_12h30.45.680,arrow_simon_norep,2021.1.2,Win32,60.2300789,,,,,,,,,,,,,,,,,,,,,p,1,1.351624999,38,FALSE,TRUE,9,1,37,0,1,,,,,,,
,,,,,,0,1.855468025,#a3d0fb,,left_blue.png,w,,,,,,w,left_blue.png,left_orange.png,q,right,6102feaf4f6002b3dbc4cdab,001,2021-08-01_12h30.45.680,arrow_simon_norep,2021.1.2,Win32,60.2300789,,,,,,,,,,,,,,,,,,,,,w,1,1.417269999,39,FALSE,FALSE,9,2,38,3,1,,,,,,,
,,,,,,0,1.820376133,#f3af84,,left_orange.png,q,,,,,,w,left_blue.png,left_orange.png,q,right,6102feaf4f6002b3dbc4cdab,001,2021-08-01_12h30.45.680,arrow_simon_norep,2021.1.2,Win32,60.2300789,,,,,,,,,,,,,,,,,,,,,q,1,1.351225,40,FALSE,TRUE,9,3,39,3,1,,,,,,,
,,,,,,0,1.573756428,#a3d0fb,,right_blue.png,o,,,,,,o,right_blue.png,right_orange.png,p,right,6102feaf4f6002b3dbc4cdab,001,2021-08-01_12h30.45.680,arrow_simon_norep,2021.1.2,Win32,60.2300789,,,,,,,,,,,,,,,,,,,,,p,0,1.362214999,41,FALSE,TRUE,10,0,40,1,1,,,,,,,
,,,,,,0,2.158538785,#f3af84,,right_orange.png,p,,,,,,o,right_blue.png,right_orange.png,p,left,6102feaf4f6002b3dbc4cdab,001,2021-08-01_12h30.45.680,arrow_simon_norep,2021.1.2,Win32,60.2300789,,,,,,,,,,,,,,,,,,,,,p,1,1.655165,42,TRUE,FALSE,10,1,41,0,1,,,,,,,
,,,,,,0,2.277129316,#a3d0fb,,left_blue.png,w,,,,,,w,left_blue.png,left_orange.png,q,right,6102feaf4f6002b3dbc4cdab,001,2021-08-01_12h30.45.680,arrow_simon_norep,2021.1.2,Win32,60.2300789,,,,,,,,,,,,,,,,,,,,,w,1,1.572064999,43,FALSE,FALSE,10,2,42,3,1,,,,,,,
,,,,,,0,2.301493096,#f3af84,,left_orange.png,q,,,,,,w,left_blue.png,left_orange.png,q,right,6102feaf4f6002b3dbc4cdab,001,2021-08-01_12h30.45.680,arrow_simon_norep,2021.1.2,Win32,60.2300789,,,,,,,,,,,,,,,,,,,,,q,1,1.809390001,44,TRUE,FALSE,10,3,43,3,1,,,,,,,
,,,,,,0,2.016027323,#a3d0fb,,right_blue.png,o,,,,,,o,right_blue.png,right_orange.png,p,right,6102feaf4f6002b3dbc4cdab,001,2021-08-01_12h30.45.680,arrow_simon_norep,2021.1.2,Win32,60.2300789,,,,,,,,,,,,,,,,,,,,,o,1,1.40392,45,FALSE,FALSE,11,0,44,1,1,,,,,,,
,,,,,,0,1.725395034,#f3af84,,left_orange.png,q,,,,,,w,left_blue.png,left_orange.png,q,left,6102feaf4f6002b3dbc4cdab,001,2021-08-01_12h30.45.680,arrow_simon_norep,2021.1.2,Win32,60.2300789,,,,,,,,,,,,,,,,,,,,,q,1,1.25096,46,FALSE,TRUE,11,1,45,2,1,,,,,,,
,,,,,,0,2.383831405,#a3d0fb,,left_blue.png,w,,,,,,w,left_blue.png,left_orange.png,q,right,6102feaf4f6002b3dbc4cdab,001,2021-08-01_12h30.45.680,arrow_simon_norep,2021.1.2,Win32,60.2300789,,,,,,,,,,,,,,,,,,,,,o,0,1.787905,47,TRUE,FALSE,11,2,46,3,1,,,,,,,
,,,,,,0,2.315288801,#f3af84,,left_orange.png,q,,,,,,w,left_blue.png,left_orange.png,q,right,6102feaf4f6002b3dbc4cdab,001,2021-08-01_12h30.45.680,arrow_simon_norep,2021.1.2,Win32,60.2300789,,,,,,,,,,,,,,,,,,,,,p,0,1.657665001,48,TRUE,FALSE,11,3,47,3,1,,,,,,,
,,,,,,0,1.895197977,#a3d0fb,,left_blue.png,w,,,,,,w,left_blue.png,left_orange.png,q,left,6102feaf4f6002b3dbc4cdab,001,2021-08-01_12h30.45.680,arrow_simon_norep,2021.1.2,Win32,60.2300789,,,,,,,,,,,,,,,,,,,,,w,1,1.485000001,49,FALSE,FALSE,12,0,48,2,1,,,,,,,
,,,,,,0,2.265449694,#f3af84,,right_orange.png,p,,,,,,o,right_blue.png,right_orange.png,p,right,6102feaf4f6002b3dbc4cdab,001,2021-08-01_12h30.45.680,arrow_simon_norep,2021.1.2,Win32,60.2300789,,,,,,,,,,,,,,,,,,,,,p,1,1.601500001,50,TRUE,FALSE,12,1,49,1,1,,,,,,,
,,,,,,1,2.258166301,#a3d0fb,,right_blue.png,o,,,,,,o,right_blue.png,right_orange.png,p,left,6102feaf4f6002b3dbc4cdab,001,2021-08-01_12h30.45.680,arrow_simon_norep,2021.1.2,Win32,60.2300789,,,,,,,,,,,,,,,,,,,,,w,0,1.521709999,51,FALSE,FALSE,12,2,50,0,1,,,,,,,
,,,,,,1,1.909858658,#f3af84,,left_orange.png,q,,,,,,w,left_blue.png,left_orange.png,q,right,6102feaf4f6002b3dbc4cdab,001,2021-08-01_12h30.45.680,arrow_simon_norep,2021.1.2,Win32,60.2300789,,,,,,,,,,,,,,,,,,,,,w,0,1.438749999,52,FALSE,FALSE,12,3,51,3,1,,,,,,,
,,,,,,0,2.28014336,#a3d0fb,,left_blue.png,w,,,,,,w,left_blue.png,left_orange.png,q,left,6102feaf4f6002b3dbc4cdab,001,2021-08-01_12h30.45.680,arrow_simon_norep,2021.1.2,Win32,60.2300789,,,,,,,,,,,,,,,,,,,,,w,1,1.570064999,53,FALSE,FALSE,13,0,52,2,1,,,,,,,
,,,,,,0,2.017141633,#f3af84,,left_orange.png,q,,,,,,w,left_blue.png,left_orange.png,q,right,6102feaf4f6002b3dbc4cdab,001,2021-08-01_12h30.45.680,arrow_simon_norep,2021.1.2,Win32,60.2300789,,,,,,,,,,,,,,,,,,,,,p,0,1.62473,54,TRUE,FALSE,13,1,53,3,1,,,,,,,
,,,,,,1,2.193361436,#a3d0fb,,right_blue.png,o,,,,,,o,right_blue.png,right_orange.png,p,left,6102feaf4f6002b3dbc4cdab,001,2021-08-01_12h30.45.680,arrow_simon_norep,2021.1.2,Win32,60.2300789,,,,,,,,,,,,,,,,,,,,,w,0,1.597040001,55,FALSE,FALSE,13,2,54,0,1,,,,,,,
,,,,,,1,2.268033918,#f3af84,,left_orange.png,q,,,,,,w,left_blue.png,left_orange.png,q,left,6102feaf4f6002b3dbc4cdab,001,2021-08-01_12h30.45.680,arrow_simon_norep,2021.1.2,Win32,60.2300789,,,,,,,,,,,,,,,,,,,,,q,1,1.709294999,56,TRUE,FALSE,13,3,55,2,1,,,,,,,
,,,,,,1,1.717975389,#a3d0fb,,right_blue.png,o,,,,,,o,right_blue.png,right_orange.png,p,right,6102feaf4f6002b3dbc4cdab,001,2021-08-01_12h30.45.680,arrow_simon_norep,2021.1.2,Win32,60.2300789,,,,,,,,,,,,,,,,,,,,,o,1,1.095310001,57,FALSE,TRUE,14,0,56,1,1,,,,,,,
,,,,,,1,2.046757182,#f3af84,,right_orange.png,p,,,,,,o,right_blue.png,right_orange.png,p,left,6102feaf4f6002b3dbc4cdab,001,2021-08-01_12h30.45.680,arrow_simon_norep,2021.1.2,Win32,60.2300789,,,,,,,,,,,,,,,,,,,,,p,1,1.634580001,58,TRUE,FALSE,14,1,57,0,1,,,,,,,
,,,,,,0,2.153829789,#a3d0fb,,left_blue.png,w,,,,,,w,left_blue.png,left_orange.png,q,left,6102feaf4f6002b3dbc4cdab,001,2021-08-01_12h30.45.680,arrow_simon_norep,2021.1.2,Win32,60.2300789,,,,,,,,,,,,,,,,,,,,,w,1,1.520790001,59,FALSE,FALSE,14,2,58,2,1,,,,,,,
,,,,,,0,1.788064928,#f3af84,,left_orange.png,q,,,,,,w,left_blue.png,left_orange.png,q,left,6102feaf4f6002b3dbc4cdab,001,2021-08-01_12h30.45.680,arrow_simon_norep,2021.1.2,Win32,60.2300789,,,,,,,,,,,,,,,,,,,,,q,1,1.471105,60,FALSE,FALSE,14,3,59,2,1,,,,,,,
,,,,,,,,,,,,,,,,,,,,,,6102feaf4f6002b3dbc4cdab,001,2021-08-01_12h30.45.680,arrow_simon_norep,2021.1.2,Win32,60.2300789,,,,,,,,,,,,,,,,,,,,,,,,,,,,,,,,space,9.783555001,0,0,0,0,1
,,,,,,0,2.499497494,#a3d0fb,,right_blue.png,o,,,,,,o,right_blue.png,right_orange.png,p,left,6102feaf4f6002b3dbc4cdab,001,2021-08-01_12h30.45.680,arrow_simon_norep,2021.1.2,Win32,60.2300789,,,,,,,,,,,,,,,,,,,,,o,1,1.955079999,1,TRUE,FALSE,0,0,0,0,1,,,,,,,
,,,,,,0,2.412541766,#f3af84,,right_orange.png,p,,,,,,o,right_blue.png,right_orange.png,p,right,6102feaf4f6002b3dbc4cdab,001,2021-08-01_12h30.45.680,arrow_simon_norep,2021.1.2,Win32,60.2300789,,,,,,,,,,,,,,,,,,,,,p,1,1.72264,2,TRUE,FALSE,0,1,1,1,1,,,,,,,
,,,,,,0,1.568510188,#a3d0fb,,left_blue.png,w,,,,,,w,left_blue.png,left_orange.png,q,left,6102feaf4f6002b3dbc4cdab,001,2021-08-01_12h30.45.680,arrow_simon_norep,2021.1.2,Win32,60.2300789,,,,,,,,,,,,,,,,,,,,,q,0,1.225105001,3,FALSE,TRUE,0,2,2,2,1,,,,,,,
,,,,,,0,1.569028733,#f3af84,,left_orange.png,q,,,,,,w,left_blue.png,left_orange.png,q,right,6102feaf4f6002b3dbc4cdab,001,2021-08-01_12h30.45.680,arrow_simon_norep,2021.1.2,Win32,60.2300789,,,,,,,,,,,,,,,,,,,,,q,1,1.290510001,4,FALSE,TRUE,0,3,3,3,1,,,,,,,
,,,,,,0,1.761079799,#a3d0fb,,right_blue.png,o,,,,,,o,right_blue.png,right_orange.png,p,right,6102feaf4f6002b3dbc4cdab,001,2021-08-01_12h30.45.680,arrow_simon_norep,2021.1.2,Win32,60.2300789,,,,,,,,,,,,,,,,,,,,,p,0,1.159994999,5,FALSE,TRUE,1,0,4,1,1,,,,,,,
,,,,,,0,1.500538772,#f3af84,,left_orange.png,q,,,,,,w,left_blue.png,left_orange.png,q,right,6102feaf4f6002b3dbc4cdab,001,2021-08-01_12h30.45.680,arrow_simon_norep,2021.1.2,Win32,60.2300789,,,,,,,,,,,,,,,,,,,,,q,1,1.52544,6,FALSE,FALSE,1,1,5,3,1,,,,,,,
,,,,,,0,1.967095437,#a3d0fb,,left_blue.png,w,,,,,,w,left_blue.png,left_orange.png,q,left,6102feaf4f6002b3dbc4cdab,001,2021-08-01_12h30.45.680,arrow_simon_norep,2021.1.2,Win32,60.2300789,,,,,,,,,,,,,,,,,,,,,w,1,1.287494998,7,FALSE,TRUE,1,2,6,2,1,,,,,,,
,,,,,,1,2.162497551,#f3af84,,left_orange.png,q,,,,,,w,left_blue.png,left_orange.png,q,right,6102feaf4f6002b3dbc4cdab,001,2021-08-01_12h30.45.680,arrow_simon_norep,2021.1.2,Win32,60.2300789,,,,,,,,,,,,,,,,,,,,,p,0,1.571210001,8,FALSE,FALSE,1,3,7,3,1,,,,,,,
,,,,,,0,1.883443057,#a3d0fb,,left_blue.png,w,,,,,,w,left_blue.png,left_orange.png,q,left,6102feaf4f6002b3dbc4cdab,001,2021-08-01_12h30.45.680,arrow_simon_norep,2021.1.2,Win32,60.2300789,,,,,,,,,,,,,,,,,,,,,w,1,1.418030001,9,FALSE,FALSE,2,0,8,2,1,,,,,,,
,,,,,,0,2.280572023,#f3af84,,right_orange.png,p,,,,,,o,right_blue.png,right_orange.png,p,left,6102feaf4f6002b3dbc4cdab,001,2021-08-01_12h30.45.680,arrow_simon_norep,2021.1.2,Win32,60.2300789,,,,,,,,,,,,,,,,,,,,,p,1,1.740085,10,TRUE,FALSE,2,1,9,0,1,,,,,,,
,,,,,,0,1.723642726,#a3d0fb,,left_blue.png,w,,,,,,w,left_blue.png,left_orange.png,q,left,6102feaf4f6002b3dbc4cdab,001,2021-08-01_12h30.45.680,arrow_simon_norep,2021.1.2,Win32,60.2300789,,,,,,,,,,,,,,,,,,,,,w,1,1.426415,11,FALSE,FALSE,2,2,10,2,1,,,,,,,
,,,,,,0,2.095451748,#f3af84,,left_orange.png,q,,,,,,w,left_blue.png,left_orange.png,q,right,6102feaf4f6002b3dbc4cdab,001,2021-08-01_12h30.45.680,arrow_simon_norep,2021.1.2,Win32,60.2300789,,,,,,,,,,,,,,,,,,,,,q,1,1.638800001,12,TRUE,FALSE,2,3,11,3,1,,,,,,,
,,,,,,1,2.290552252,#a3d0fb,,right_blue.png,o,,,,,,o,right_blue.png,right_orange.png,p,left,6102feaf4f6002b3dbc4cdab,001,2021-08-01_12h30.45.680,arrow_simon_norep,2021.1.2,Win32,60.2300789,,,,,,,,,,,,,,,,,,,,,w,0,1.563920001,13,FALSE,FALSE,3,0,12,0,1,,,,,,,
,,,,,,1,1.589459194,#f3af84,,left_orange.png,q,,,,,,w,left_blue.png,left_orange.png,q,right,6102feaf4f6002b3dbc4cdab,001,2021-08-01_12h30.45.680,arrow_simon_norep,2021.1.2,Win32,60.2300789,,,,,,,,,,,,,,,,,,,,,q,1,1.761185002,14,TRUE,FALSE,3,1,13,3,1,,,,,,,
,,,,,,0,1.779650106,#a3d0fb,,left_blue.png,w,,,,,,w,left_blue.png,left_orange.png,q,right,6102feaf4f6002b3dbc4cdab,001,2021-08-01_12h30.45.680,arrow_simon_norep,2021.1.2,Win32,60.2300789,,,,,,,,,,,,,,,,,,,,,w,1,1.426335,15,FALSE,FALSE,3,2,14,3,1,,,,,,,
,,,,,,0,2.266486444,#f3af84,,right_orange.png,p,,,,,,o,right_blue.png,right_orange.png,p,left,6102feaf4f6002b3dbc4cdab,001,2021-08-01_12h30.45.680,arrow_simon_norep,2021.1.2,Win32,60.2300789,,,,,,,,,,,,,,,,,,,,,p,1,1.685010001,16,TRUE,FALSE,3,3,15,0,1,,,,,,,
,,,,,,0,1.829336693,#a3d0fb,,right_blue.png,o,,,,,,o,right_blue.png,right_orange.png,p,left,6102feaf4f6002b3dbc4cdab,001,2021-08-01_12h30.45.680,arrow_simon_norep,2021.1.2,Win32,60.2300789,,,,,,,,,,,,,,,,,,,,,o,1,1.504579999,17,FALSE,FALSE,4,0,16,0,1,,,,,,,
,,,,,,0,2.286746514,#f3af84,,right_orange.png,p,,,,,,o,right_blue.png,right_orange.png,p,right,6102feaf4f6002b3dbc4cdab,001,2021-08-01_12h30.45.680,arrow_simon_norep,2021.1.2,Win32,60.2300789,,,,,,,,,,,,,,,,,,,,,p,1,1.76001,18,TRUE,FALSE,4,1,17,1,1,,,,,,,
,,,,,,0,1.618264338,#a3d0fb,,right_blue.png,o,,,,,,o,right_blue.png,right_orange.png,p,right,6102feaf4f6002b3dbc4cdab,001,2021-08-01_12h30.45.680,arrow_simon_norep,2021.1.2,Win32,60.2300789,,,,,,,,,,,,,,,,,,,,,o,1,1.438605001,19,FALSE,FALSE,4,2,18,1,1,,,,,,,
,,,,,,0,1.520019051,#f3af84,,right_orange.png,p,,,,,,o,right_blue.png,right_orange.png,p,right,6102feaf4f6002b3dbc4cdab,001,2021-08-01_12h30.45.680,arrow_simon_norep,2021.1.2,Win32,60.2300789,,,,,,,,,,,,,,,,,,,,,p,1,1.401045,20,FALSE,FALSE,4,3,19,1,1,,,,,,,
,,,,,,0,1.542747039,#a3d0fb,,left_blue.png,w,,,,,,w,left_blue.png,left_orange.png,q,left,6102feaf4f6002b3dbc4cdab,001,2021-08-01_12h30.45.680,arrow_simon_norep,2021.1.2,Win32,60.2300789,,,,,,,,,,,,,,,,,,,,,w,1,1.459319999,21,FALSE,FALSE,5,0,20,2,1,,,,,,,
,,,,,,0,2.236104675,#f3af84,,right_orange.png,p,,,,,,o,right_blue.png,right_orange.png,p,left,6102feaf4f6002b3dbc4cdab,001,2021-08-01_12h30.45.680,arrow_simon_norep,2021.1.2,Win32,60.2300789,,,,,,,,,,,,,,,,,,,,,p,1,1.667930001,22,TRUE,FALSE,5,1,21,0,1,,,,,,,
,,,,,,0,2.070633704,#a3d0fb,,right_blue.png,o,,,,,,o,right_blue.png,right_orange.png,p,right,6102feaf4f6002b3dbc4cdab,001,2021-08-01_12h30.45.680,arrow_simon_norep,2021.1.2,Win32,60.2300789,,,,,,,,,,,,,,,,,,,,,o,1,1.493085001,23,FALSE,FALSE,5,2,22,1,1,,,,,,,
,,,,,,0,2.088366011,#f3af84,,right_orange.png,p,,,,,,o,right_blue.png,right_orange.png,p,right,6102feaf4f6002b3dbc4cdab,001,2021-08-01_12h30.45.680,arrow_simon_norep,2021.1.2,Win32,60.2300789,,,,,,,,,,,,,,,,,,,,,p,1,1.454080001,24,FALSE,FALSE,5,3,23,1,1,,,,,,,
,,,,,,1,2.133807619,#a3d0fb,,left_blue.png,w,,,,,,w,left_blue.png,left_orange.png,q,right,6102feaf4f6002b3dbc4cdab,001,2021-08-01_12h30.45.680,arrow_simon_norep,2021.1.2,Win32,60.2300789,,,,,,,,,,,,,,,,,,,,,o,0,1.462664999,25,FALSE,FALSE,6,0,24,3,1,,,,,,,
,,,,,,1,1.75525595,#f3af84,,right_orange.png,p,,,,,,o,right_blue.png,right_orange.png,p,right,6102feaf4f6002b3dbc4cdab,001,2021-08-01_12h30.45.680,arrow_simon_norep,2021.1.2,Win32,60.2300789,,,,,,,,,,,,,,,,,,,,,p,1,1.211919999,26,FALSE,TRUE,6,1,25,1,1,,,,,,,
,,,,,,1,1.988832155,#a3d0fb,,right_blue.png,o,,,,,,o,right_blue.png,right_orange.png,p,right,6102feaf4f6002b3dbc4cdab,001,2021-08-01_12h30.45.680,arrow_simon_norep,2021.1.2,Win32,60.2300789,,,,,,,,,,,,,,,,,,,,,p,0,1.490040001,27,FALSE,FALSE,6,2,26,1,1,,,,,,,
,,,,,,0,2.034579603,#f3af84,,right_orange.png,p,,,,,,o,right_blue.png,right_orange.png,p,left,6102feaf4f6002b3dbc4cdab,001,2021-08-01_12h30.45.680,arrow_simon_norep,2021.1.2,Win32,60.2300789,,,,,,,,,,,,,,,,,,,,,p,1,1.512975,28,FALSE,FALSE,6,3,27,0,1,,,,,,,
,,,,,,0,1.715111152,#a3d0fb,,right_blue.png,o,,,,,,o,right_blue.png,right_orange.png,p,left,6102feaf4f6002b3dbc4cdab,001,2021-08-01_12h30.45.680,arrow_simon_norep,2021.1.2,Win32,60.2300789,,,,,,,,,,,,,,,,,,,,,o,1,1.463945001,29,FALSE,FALSE,7,0,28,0,1,,,,,,,
,,,,,,1,2.436451548,#f3af84,,left_orange.png,q,,,,,,w,left_blue.png,left_orange.png,q,left,6102feaf4f6002b3dbc4cdab,001,2021-08-01_12h30.45.680,arrow_simon_norep,2021.1.2,Win32,60.2300789,,,,,,,,,,,,,,,,,,,,,p,0,1.470245,30,FALSE,FALSE,7,1,29,2,1,,,,,,,
,,,,,,0,1.650398854,#a3d0fb,,left_blue.png,w,,,,,,w,left_blue.png,left_orange.png,q,left,6102feaf4f6002b3dbc4cdab,001,2021-08-01_12h30.45.680,arrow_simon_norep,2021.1.2,Win32,60.2300789,,,,,,,,,,,,,,,,,,,,,w,1,1.4451,31,FALSE,FALSE,7,2,30,2,1,,,,,,,
,,,,,,0,1.838090397,#f3af84,,left_orange.png,q,,,,,,w,left_blue.png,left_orange.png,q,left,6102feaf4f6002b3dbc4cdab,001,2021-08-01_12h30.45.680,arrow_simon_norep,2021.1.2,Win32,60.2300789,,,,,,,,,,,,,,,,,,,,,q,1,1.568195,32,FALSE,FALSE,7,3,31,2,1,,,,,,,
,,,,,,1,2.27338938,#a3d0fb,,left_blue.png,w,,,,,,w,left_blue.png,left_orange.png,q,right,6102feaf4f6002b3dbc4cdab,001,2021-08-01_12h30.45.680,arrow_simon_norep,2021.1.2,Win32,60.2300789,,,,,,,,,,,,,,,,,,,,,o,0,1.560015,33,FALSE,FALSE,8,0,32,3,1,,,,,,,
,,,,,,1,1.973006981,#f3af84,,left_orange.png,q,,,,,,w,left_blue.png,left_orange.png,q,right,6102feaf4f6002b3dbc4cdab,001,2021-08-01_12h30.45.680,arrow_simon_norep,2021.1.2,Win32,60.2300789,,,,,,,,,,,,,,,,,,,,,q,1,1.636220001,34,TRUE,FALSE,8,1,33,3,1,,,,,,,
,,,,,,0,1.660152706,#a3d0fb,,right_blue.png,o,,,,,,o,right_blue.png,right_orange.png,p,right,6102feaf4f6002b3dbc4cdab,001,2021-08-01_12h30.45.680,arrow_simon_norep,2021.1.2,Win32,60.2300789,,,,,,,,,,,,,,,,,,,,,o,1,1.45434,35,FALSE,FALSE,8,2,34,1,1,,,,,,,
,,,,,,0,1.585313449,#f3af84,,left_orange.png,q,,,,,,w,left_blue.png,left_orange.png,q,right,6102feaf4f6002b3dbc4cdab,001,2021-08-01_12h30.45.680,arrow_simon_norep,2021.1.2,Win32,60.2300789,,,,,,,,,,,,,,,,,,,,,q,1,1.458155001,36,FALSE,FALSE,8,3,35,3,1,,,,,,,
,,,,,,0,2.042496553,#a3d0fb,,left_blue.png,w,,,,,,w,left_blue.png,left_orange.png,q,right,6102feaf4f6002b3dbc4cdab,001,2021-08-01_12h30.45.680,arrow_simon_norep,2021.1.2,Win32,60.2300789,,,,,,,,,,,,,,,,,,,,,w,1,1.42883,37,FALSE,FALSE,9,0,36,3,1,,,,,,,
,,,,,,0,2.298665578,#f3af84,,right_orange.png,p,,,,,,o,right_blue.png,right_orange.png,p,right,6102feaf4f6002b3dbc4cdab,001,2021-08-01_12h30.45.680,arrow_simon_norep,2021.1.2,Win32,60.2300789,,,,,,,,,,,,,,,,,,,,,p,1,1.601,38,TRUE,FALSE,9,1,37,1,1,,,,,,,
,,,,,,0,2.140666601,#a3d0fb,,left_blue.png,w,,,,,,w,left_blue.png,left_orange.png,q,left,6102feaf4f6002b3dbc4cdab,001,2021-08-01_12h30.45.680,arrow_simon_norep,2021.1.2,Win32,60.2300789,,,,,,,,,,,,,,,,,,,,,w,1,1.48718,39,FALSE,FALSE,9,2,38,2,1,,,,,,,
,,,,,,0,1.5585634,#f3af84,,left_orange.png,q,,,,,,w,left_blue.png,left_orange.png,q,right,6102feaf4f6002b3dbc4cdab,001,2021-08-01_12h30.45.680,arrow_simon_norep,2021.1.2,Win32,60.2300789,,,,,,,,,,,,,,,,,,,,,q,1,1.440955,40,FALSE,FALSE,9,3,39,3,1,,,,,,,
,,,,,,0,1.519718252,#a3d0fb,,right_blue.png,o,,,,,,o,right_blue.png,right_orange.png,p,left,6102feaf4f6002b3dbc4cdab,001,2021-08-01_12h30.45.680,arrow_simon_norep,2021.1.2,Win32,60.2300789,,,,,,,,,,,,,,,,,,,,,o,1,1.418605,41,FALSE,FALSE,10,0,40,0,1,,,,,,,
,,,,,,0,1.9922668,#f3af84,,right_orange.png,p,,,,,,o,right_blue.png,right_orange.png,p,right,6102feaf4f6002b3dbc4cdab,001,2021-08-01_12h30.45.680,arrow_simon_norep,2021.1.2,Win32,60.2300789,,,,,,,,,,,,,,,,,,,,,p,1,1.501495,42,FALSE,FALSE,10,1,41,1,1,,,,,,,
,,,,,,0,2.35560882,#a3d0fb,,left_blue.png,w,,,,,,w,left_blue.png,left_orange.png,q,left,6102feaf4f6002b3dbc4cdab,001,2021-08-01_12h30.45.680,arrow_simon_norep,2021.1.2,Win32,60.2300789,,,,,,,,,,,,,,,,,,,,,w,1,1.651355,43,TRUE,FALSE,10,2,42,2,1,,,,,,,
,,,,,,1,2.296704667,#f3af84,,right_orange.png,p,,,,,,o,right_blue.png,right_orange.png,p,left,6102feaf4f6002b3dbc4cdab,001,2021-08-01_12h30.45.680,arrow_simon_norep,2021.1.2,Win32,60.2300789,,,,,,,,,,,,,,,,,,,,,q,0,1.540604999,44,FALSE,FALSE,10,3,43,0,1,,,,,,,
,,,,,,0,2.235836824,#a3d0fb,,right_blue.png,o,,,,,,o,right_blue.png,right_orange.png,p,right,6102feaf4f6002b3dbc4cdab,001,2021-08-01_12h30.45.680,arrow_simon_norep,2021.1.2,Win32,60.2300789,,,,,,,,,,,,,,,,,,,,,o,1,1.588135,45,FALSE,FALSE,11,0,44,1,1,,,,,,,
,,,,,,0,2.370615144,#f3af84,,left_orange.png,q,,,,,,w,left_blue.png,left_orange.png,q,left,6102feaf4f6002b3dbc4cdab,001,2021-08-01_12h30.45.680,arrow_simon_norep,2021.1.2,Win32,60.2300789,,,,,,,,,,,,,,,,,,,,,q,1,1.663635001,46,TRUE,FALSE,11,1,45,2,1,,,,,,,
,,,,,,0,1.62380426,#a3d0fb,,left_blue.png,w,,,,,,w,left_blue.png,left_orange.png,q,left,6102feaf4f6002b3dbc4cdab,001,2021-08-01_12h30.45.680,arrow_simon_norep,2021.1.2,Win32,60.2300789,,,,,,,,,,,,,,,,,,,,,w,1,1.361754999,47,FALSE,TRUE,11,2,46,2,1,,,,,,,
,,,,,,0,1.945779721,#f3af84,,right_orange.png,p,,,,,,o,right_blue.png,right_orange.png,p,left,6102feaf4f6002b3dbc4cdab,001,2021-08-01_12h30.45.680,arrow_simon_norep,2021.1.2,Win32,60.2300789,,,,,,,,,,,,,,,,,,,,,p,1,1.590605,48,FALSE,FALSE,11,3,47,0,1,,,,,,,
,,,,,,1,2.062399854,#a3d0fb,,right_blue.png,o,,,,,,o,right_blue.png,right_orange.png,p,left,6102feaf4f6002b3dbc4cdab,001,2021-08-01_12h30.45.680,arrow_simon_norep,2021.1.2,Win32,60.2300789,,,,,,,,,,,,,,,,,,,,,p,0,1.593645001,49,FALSE,FALSE,12,0,48,0,1,,,,,,,
,,,,,,1,1.95977377,#f3af84,,right_orange.png,p,,,,,,o,right_blue.png,right_orange.png,p,right,6102feaf4f6002b3dbc4cdab,001,2021-08-01_12h30.45.680,arrow_simon_norep,2021.1.2,Win32,60.2300789,,,,,,,,,,,,,,,,,,,,,p,1,1.60149,50,TRUE,FALSE,12,1,49,1,1,,,,,,,
,,,,,,1,2.439123292,#a3d0fb,,left_blue.png,w,,,,,,w,left_blue.png,left_orange.png,q,right,6102feaf4f6002b3dbc4cdab,001,2021-08-01_12h30.45.680,arrow_simon_norep,2021.1.2,Win32,60.2300789,,,,,,,,,,,,,,,,,,,,,o,0,1.777285,51,TRUE,FALSE,12,2,50,3,1,,,,,,,
,,,,,,0,1.815568371,#f3af84,,left_orange.png,q,,,,,,w,left_blue.png,left_orange.png,q,right,6102feaf4f6002b3dbc4cdab,001,2021-08-01_12h30.45.680,arrow_simon_norep,2021.1.2,Win32,60.2300789,,,,,,,,,,,,,,,,,,,,,q,1,1.495685,52,FALSE,FALSE,12,3,51,3,1,,,,,,,
,,,,,,0,2.180139028,#a3d0fb,,left_blue.png,w,,,,,,w,left_blue.png,left_orange.png,q,left,6102feaf4f6002b3dbc4cdab,001,2021-08-01_12h30.45.680,arrow_simon_norep,2021.1.2,Win32,60.2300789,,,,,,,,,,,,,,,,,,,,,w,1,1.526085,53,FALSE,FALSE,13,0,52,2,1,,,,,,,
,,,,,,0,1.667315592,#f3af84,,left_orange.png,q,,,,,,w,left_blue.png,left_orange.png,q,left,6102feaf4f6002b3dbc4cdab,001,2021-08-01_12h30.45.680,arrow_simon_norep,2021.1.2,Win32,60.2300789,,,,,,,,,,,,,,,,,,,,,q,1,1.457614999,54,FALSE,FALSE,13,1,53,2,1,,,,,,,
,,,,,,0,2.133488719,#a3d0fb,,right_blue.png,o,,,,,,o,right_blue.png,right_orange.png,p,left,6102feaf4f6002b3dbc4cdab,001,2021-08-01_12h30.45.680,arrow_simon_norep,2021.1.2,Win32,60.2300789,,,,,,,,,,,,,,,,,,,,,o,1,1.48416,55,FALSE,FALSE,13,2,54,0,1,,,,,,,
,,,,,,0,1.631871441,#f3af84,,right_orange.png,p,,,,,,o,right_blue.png,right_orange.png,p,left,6102feaf4f6002b3dbc4cdab,001,2021-08-01_12h30.45.680,arrow_simon_norep,2021.1.2,Win32,60.2300789,,,,,,,,,,,,,,,,,,,,,p,1,1.5177,56,FALSE,FALSE,13,3,55,0,1,,,,,,,
,,,,,,0,1.578159091,#a3d0fb,,right_blue.png,o,,,,,,o,right_blue.png,right_orange.png,p,right,6102feaf4f6002b3dbc4cdab,001,2021-08-01_12h30.45.680,arrow_simon_norep,2021.1.2,Win32,60.2300789,,,,,,,,,,,,,,,,,,,,,o,1,1.490289999,57,FALSE,FALSE,14,0,56,1,1,,,,,,,
,,,,,,0,1.503726121,#f3af84,,left_orange.png,q,,,,,,w,left_blue.png,left_orange.png,q,left,6102feaf4f6002b3dbc4cdab,001,2021-08-01_12h30.45.680,arrow_simon_norep,2021.1.2,Win32,60.2300789,,,,,,,,,,,,,,,,,,,,,q,1,1.609180002,58,TRUE,FALSE,14,1,57,2,1,,,,,,,
,,,,,,0,1.790611807,#a3d0fb,,right_blue.png,o,,,,,,o,right_blue.png,right_orange.png,p,left,6102feaf4f6002b3dbc4cdab,001,2021-08-01_12h30.45.680,arrow_simon_norep,2021.1.2,Win32,60.2300789,,,,,,,,,,,,,,,,,,,,,o,1,1.543189999,59,FALSE,FALSE,14,2,58,0,1,,,,,,,
,,,,,,0,1.814890403,#f3af84,,left_orange.png,q,,,,,,w,left_blue.png,left_orange.png,q,right,6102feaf4f6002b3dbc4cdab,001,2021-08-01_12h30.45.680,arrow_simon_norep,2021.1.2,Win32,60.2300789,,,,,,,,,,,,,,,,,,,,,q,1,1.467990002,60,FALSE,FALSE,14,3,59,3,1,,,,,,,
,,,,,,,,,,,,,,,,,,,,,,6102feaf4f6002b3dbc4cdab,001,2021-08-01_12h30.45.680,arrow_simon_norep,2021.1.2,Win32,60.2300789,,,,,,,,,,,,,,,,,,,,,,,,,,,,,,,,space,4.515235001,1,0,1,0,1
,,,,,,0,2.493671374,#a3d0fb,,right_blue.png,o,,,,,,o,right_blue.png,right_orange.png,p,right,6102feaf4f6002b3dbc4cdab,001,2021-08-01_12h30.45.680,arrow_simon_norep,2021.1.2,Win32,60.2300789,,,,,,,,,,,,,,,,,,,,,p,0,2.811234999,1,TRUE,FALSE,0,0,0,1,1,,,,,,,
,,,,,,0,2.477374023,#f3af84,,left_orange.png,q,,,,,,w,left_blue.png,left_orange.png,q,left,6102feaf4f6002b3dbc4cdab,001,2021-08-01_12h30.45.680,arrow_simon_norep,2021.1.2,Win32,60.2300789,,,,,,,,,,,,,,,,,,,,,q,1,1.801525,2,TRUE,FALSE,0,1,1,2,1,,,,,,,
,,,,,,0,1.660595177,#a3d0fb,,right_blue.png,o,,,,,,o,right_blue.png,right_orange.png,p,left,6102feaf4f6002b3dbc4cdab,001,2021-08-01_12h30.45.680,arrow_simon_norep,2021.1.2,Win32,60.2300789,,,,,,,,,,,,,,,,,,,,,o,1,1.457479998,3,FALSE,FALSE,0,2,2,0,1,,,,,,,
,,,,,,0,2.269387828,#f3af84,,left_orange.png,q,,,,,,w,left_blue.png,left_orange.png,q,right,6102feaf4f6002b3dbc4cdab,001,2021-08-01_12h30.45.680,arrow_simon_norep,2021.1.2,Win32,60.2300789,,,,,,,,,,,,,,,,,,,,,w,0,1.701555001,4,TRUE,FALSE,0,3,3,3,1,,,,,,,
,,,,,,0,1.686106826,#a3d0fb,,right_blue.png,o,,,,,,o,right_blue.png,right_orange.png,p,right,6102feaf4f6002b3dbc4cdab,001,2021-08-01_12h30.45.680,arrow_simon_norep,2021.1.2,Win32,60.2300789,,,,,,,,,,,,,,,,,,,,,o,1,1.50619,5,FALSE,FALSE,1,0,4,1,1,,,,,,,
,,,,,,0,2.380349029,#f3af84,,right_orange.png,p,,,,,,o,right_blue.png,right_orange.png,p,left,6102feaf4f6002b3dbc4cdab,001,2021-08-01_12h30.45.680,arrow_simon_norep,2021.1.2,Win32,60.2300789,,,,,,,,,,,,,,,,,,,,,q,0,1.621035,6,TRUE,FALSE,1,1,5,0,1,,,,,,,
,,,,,,0,1.651306857,#a3d0fb,,left_blue.png,w,,,,,,w,left_blue.png,left_orange.png,q,right,6102feaf4f6002b3dbc4cdab,001,2021-08-01_12h30.45.680,arrow_simon_norep,2021.1.2,Win32,60.2300789,,,,,,,,,,,,,,,,,,,,,w,1,1.474025,7,FALSE,FALSE,1,2,6,3,1,,,,,,,
,,,,,,1,1.797279893,#f3af84,,right_orange.png,p,,,,,,o,right_blue.png,right_orange.png,p,right,6102feaf4f6002b3dbc4cdab,001,2021-08-01_12h30.45.680,arrow_simon_norep,2021.1.2,Win32,60.2300789,,,,,,,,,,,,,,,,,,,,,o,0,1.454615001,8,FALSE,FALSE,1,3,7,1,1,,,,,,,
,,,,,,0,1.642670663,#a3d0fb,,right_blue.png,o,,,,,,o,right_blue.png,right_orange.png,p,left,6102feaf4f6002b3dbc4cdab,001,2021-08-01_12h30.45.680,arrow_simon_norep,2021.1.2,Win32,60.2300789,,,,,,,,,,,,,,,,,,,,,o,1,1.474140001,9,FALSE,FALSE,2,0,8,0,1,,,,,,,
,,,,,,0,2.041088,#f3af84,,left_orange.png,q,,,,,,w,left_blue.png,left_orange.png,q,left,6102feaf4f6002b3dbc4cdab,001,2021-08-01_12h30.45.680,arrow_simon_norep,2021.1.2,Win32,60.2300789,,,,,,,,,,,,,,,,,,,,,q,1,1.573875001,10,FALSE,FALSE,2,1,9,2,1,,,,,,,
,,,,,,0,2.099369654,#a3d0fb,,right_blue.png,o,,,,,,o,right_blue.png,right_orange.png,p,right,6102feaf4f6002b3dbc4cdab,001,2021-08-01_12h30.45.680,arrow_simon_norep,2021.1.2,Win32,60.2300789,,,,,,,,,,,,,,,,,,,,,o,1,1.567389999,11,FALSE,FALSE,2,2,10,1,1,,,,,,,
,,,,,,0,1.783620042,#f3af84,,right_orange.png,p,,,,,,o,right_blue.png,right_orange.png,p,left,6102feaf4f6002b3dbc4cdab,001,2021-08-01_12h30.45.680,arrow_simon_norep,2021.1.2,Win32,60.2300789,,,,,,,,,,,,,,,,,,,,,p,1,1.556465,12,FALSE,FALSE,2,3,11,0,1,,,,,,,
,,,,,,1,2.078730661,#a3d0fb,,left_blue.png,w,,,,,,w,left_blue.png,left_orange.png,q,left,6102feaf4f6002b3dbc4cdab,001,2021-08-01_12h30.45.680,arrow_simon_norep,2021.1.2,Win32,60.2300789,,,,,,,,,,,,,,,,,,,,,q,0,1.492755001,13,FALSE,FALSE,3,0,12,2,1,,,,,,,
,,,,,,0,1.832128251,#f3af84,,right_orange.png,p,,,,,,o,right_blue.png,right_orange.png,p,left,6102feaf4f6002b3dbc4cdab,001,2021-08-01_12h30.45.680,arrow_simon_norep,2021.1.2,Win32,60.2300789,,,,,,,,,,,,,,,,,,,,,p,1,1.433894999,14,FALSE,FALSE,3,1,13,0,1,,,,,,,
,,,,,,0,2.429955478,#a3d0fb,,right_blue.png,o,,,,,,o,right_blue.png,right_orange.png,p,right,6102feaf4f6002b3dbc4cdab,001,2021-08-01_12h30.45.680,arrow_simon_norep,2021.1.2,Win32,60.2300789,,,,,,,,,,,,,,,,,,,,,o,1,1.718034999,15,TRUE,FALSE,3,2,14,1,1,,,,,,,
,,,,,,0,1.882456952,#f3af84,,left_orange.png,q,,,,,,w,left_blue.png,left_orange.png,q,left,6102feaf4f6002b3dbc4cdab,001,2021-08-01_12h30.45.680,arrow_simon_norep,2021.1.2,Win32,60.2300789,,,,,,,,,,,,,,,,,,,,,q,1,1.568089999,16,FALSE,FALSE,3,3,15,2,1,,,,,,,
,,,,,,0,1.991463281,#a3d0fb,,left_blue.png,w,,,,,,w,left_blue.png,left_orange.png,q,left,6102feaf4f6002b3dbc4cdab,001,2021-08-01_12h30.45.680,arrow_simon_norep,2021.1.2,Win32,60.2300789,,,,,,,,,,,,,,,,,,,,,w,1,1.507755,17,FALSE,FALSE,4,0,16,2,1,,,,,,,
,,,,,,0,2.472987232,#f3af84,,right_orange.png,p,,,,,,o,right_blue.png,right_orange.png,p,right,6102feaf4f6002b3dbc4cdab,001,2021-08-01_12h30.45.680,arrow_simon_norep,2021.1.2,Win32,60.2300789,,,,,,,,,,,,,,,,,,,,,p,1,1.75519,18,TRUE,FALSE,4,1,17,1,1,,,,,,,
,,,,,,0,1.616344481,#a3d0fb,,left_blue.png,w,,,,,,w,left_blue.png,left_orange.png,q,right,6102feaf4f6002b3dbc4cdab,001,2021-08-01_12h30.45.680,arrow_simon_norep,2021.1.2,Win32,60.2300789,,,,,,,,,,,,,,,,,,,,,w,1,1.538275,19,FALSE,FALSE,4,2,18,3,1,,,,,,,
,,,,,,0,2.149794384,#f3af84,,left_orange.png,q,,,,,,w,left_blue.png,left_orange.png,q,left,6102feaf4f6002b3dbc4cdab,001,2021-08-01_12h30.45.680,arrow_simon_norep,2021.1.2,Win32,60.2300789,,,,,,,,,,,,,,,,,,,,,q,1,1.530305,20,FALSE,FALSE,4,3,19,2,1,,,,,,,
,,,,,,0,2.457111769,#a3d0fb,,right_blue.png,o,,,,,,o,right_blue.png,right_orange.png,p,left,6102feaf4f6002b3dbc4cdab,001,2021-08-01_12h30.45.680,arrow_simon_norep,2021.1.2,Win32,60.2300789,,,,,,,,,,,,,,,,,,,,,w,0,1.794635,21,TRUE,FALSE,5,0,20,0,1,,,,,,,
,,,,,,0,2.069059969,#f3af84,,right_orange.png,p,,,,,,o,right_blue.png,right_orange.png,p,left,6102feaf4f6002b3dbc4cdab,001,2021-08-01_12h30.45.680,arrow_simon_norep,2021.1.2,Win32,60.2300789,,,,,,,,,,,,,,,,,,,,,q,0,1.638420001,22,TRUE,FALSE,5,1,21,0,1,,,,,,,
,,,,,,0,2.451919499,#a3d0fb,,left_blue.png,w,,,,,,w,left_blue.png,left_orange.png,q,left,6102feaf4f6002b3dbc4cdab,001,2021-08-01_12h30.45.680,arrow_simon_norep,2021.1.2,Win32,60.2300789,,,,,,,,,,,,,,,,,,,,,w,1,2.073855001,23,TRUE,FALSE,5,2,22,2,1,,,,,,,
,,,,,,0,1.698441712,#f3af84,,right_orange.png,p,,,,,,o,right_blue.png,right_orange.png,p,right,6102feaf4f6002b3dbc4cdab,001,2021-08-01_12h30.45.680,arrow_simon_norep,2021.1.2,Win32,60.2300789,,,,,,,,,,,,,,,,,,,,,o,0,1.001560001,24,FALSE,TRUE,5,3,23,1,1,,,,,,,
,,,,,,0,1.61594961,#a3d0fb,,right_blue.png,o,,,,,,o,right_blue.png,right_orange.png,p,right,6102feaf4f6002b3dbc4cdab,001,2021-08-01_12h30.45.680,arrow_simon_norep,2021.1.2,Win32,60.2300789,,,,,,,,,,,,,,,,,,,,,o,1,1.4844,25,FALSE,FALSE,6,0,24,1,1,,,,,,,
,,,,,,0,1.830253673,#f3af84,,right_orange.png,p,,,,,,o,right_blue.png,right_orange.png,p,left,6102feaf4f6002b3dbc4cdab,001,2021-08-01_12h30.45.680,arrow_simon_norep,2021.1.2,Win32,60.2300789,,,,,,,,,,,,,,,,,,,,,w,0,1.354899999,26,FALSE,TRUE,6,1,25,0,1,,,,,,,
,,,,,,0,2.425534045,#a3d0fb,,right_blue.png,o,,,,,,o,right_blue.png,right_orange.png,p,right,6102feaf4f6002b3dbc4cdab,001,2021-08-01_12h30.45.680,arrow_simon_norep,2021.1.2,Win32,60.2300789,,,,,,,,,,,,,,,,,,,,,o,1,1.774149999,27,TRUE,FALSE,6,2,26,1,1,,,,,,,
,,,,,,0,1.676781431,#f3af84,,left_orange.png,q,,,,,,w,left_blue.png,left_orange.png,q,right,6102feaf4f6002b3dbc4cdab,001,2021-08-01_12h30.45.680,arrow_simon_norep,2021.1.2,Win32,60.2300789,,,,,,,,,,,,,,,,,,,,,q,1,1.4257,28,FALSE,FALSE,6,3,27,3,1,,,,,,,
,,,,,,0,2.251825238,#a3d0fb,,right_blue.png,o,,,,,,o,right_blue.png,right_orange.png,p,left,6102feaf4f6002b3dbc4cdab,001,2021-08-01_12h30.45.680,arrow_simon_norep,2021.1.2,Win32,60.2300789,,,,,,,,,,,,,,,,,,,,,o,1,1.737609999,29,TRUE,FALSE,7,0,28,0,1,,,,,,,
,,,,,,0,2.182191944,#f3af84,,right_orange.png,p,,,,,,o,right_blue.png,right_orange.png,p,left,6102feaf4f6002b3dbc4cdab,001,2021-08-01_12h30.45.680,arrow_simon_norep,2021.1.2,Win32,60.2300789,,,,,,,,,,,,,,,,,,,,,o,0,0.438379999,30,FALSE,TRUE,7,1,29,0,1,,,,,,,
,,,,,,0,1.646404072,#a3d0fb,,left_blue.png,w,,,,,,w,left_blue.png,left_orange.png,q,right,6102feaf4f6002b3dbc4cdab,001,2021-08-01_12h30.45.680,arrow_simon_norep,2021.1.2,Win32,60.2300789,,,,,,,,,,,,,,,,,,,,,q,0,1.322619999,31,FALSE,TRUE,7,2,30,3,1,,,,,,,
,,,,,,0,1.812421458,#f3af84,,right_orange.png,p,,,,,,o,right_blue.png,right_orange.png,p,right,6102feaf4f6002b3dbc4cdab,001,2021-08-01_12h30.45.680,arrow_simon_norep,2021.1.2,Win32,60.2300789,,,,,,,,,,,,,,,,,,,,,p,1,1.909799999,32,TRUE,FALSE,7,3,31,1,1,,,,,,,
,,,,,,1,2.259608209,#a3d0fb,,left_blue.png,w,,,,,,w,left_blue.png,left_orange.png,q,right,6102feaf4f6002b3dbc4cdab,001,2021-08-01_12h30.45.680,arrow_simon_norep,2021.1.2,Win32,60.2300789,,,,,,,,,,,,,,,,,,,,,o,0,1.537690001,33,FALSE,FALSE,8,0,32,3,1,,,,,,,
,,,,,,0,1.968413873,#f3af84,,left_orange.png,q,,,,,,w,left_blue.png,left_orange.png,q,left,6102feaf4f6002b3dbc4cdab,001,2021-08-01_12h30.45.680,arrow_simon_norep,2021.1.2,Win32,60.2300789,,,,,,,,,,,,,,,,,,,,,q,1,1.584055001,34,FALSE,FALSE,8,1,33,2,1,,,,,,,
,,,,,,0,1.843568862,#a3d0fb,,left_blue.png,w,,,,,,w,left_blue.png,left_orange.png,q,right,6102feaf4f6002b3dbc4cdab,001,2021-08-01_12h30.45.680,arrow_simon_norep,2021.1.2,Win32,60.2300789,,,,,,,,,,,,,,,,,,,,,w,1,1.51788,35,FALSE,FALSE,8,2,34,3,1,,,,,,,
,,,,,,0,1.890873659,#f3af84,,left_orange.png,q,,,,,,w,left_blue.png,left_orange.png,q,left,6102feaf4f6002b3dbc4cdab,001,2021-08-01_12h30.45.680,arrow_simon_norep,2021.1.2,Win32,60.2300789,,,,,,,,,,,,,,,,,,,,,q,1,1.634405,36,TRUE,FALSE,8,3,35,2,1,,,,,,,
,,,,,,0,1.956830774,#a3d0fb,,left_blue.png,w,,,,,,w,left_blue.png,left_orange.png,q,right,6102feaf4f6002b3dbc4cdab,001,2021-08-01_12h30.45.680,arrow_simon_norep,2021.1.2,Win32,60.2300789,,,,,,,,,,,,,,,,,,,,,w,1,1.60344,37,TRUE,FALSE,9,0,36,3,1,,,,,,,
,,,,,,0,2.027872772,#f3af84,,left_orange.png,q,,,,,,w,left_blue.png,left_orange.png,q,left,6102feaf4f6002b3dbc4cdab,001,2021-08-01_12h30.45.680,arrow_simon_norep,2021.1.2,Win32,60.2300789,,,,,,,,,,,,,,,,,,,,,q,1,1.596659999,38,FALSE,FALSE,9,1,37,2,1,,,,,,,
,,,,,,0,2.360919156,#a3d0fb,,left_blue.png,w,,,,,,w,left_blue.png,left_orange.png,q,right,6102feaf4f6002b3dbc4cdab,001,2021-08-01_12h30.45.680,arrow_simon_norep,2021.1.2,Win32,60.2300789,,,,,,,,,,,,,,,,,,,,,o,0,1.6241,39,TRUE,FALSE,9,2,38,3,1,,,,,,,
,,,,,,0,1.868452527,#f3af84,,left_orange.png,q,,,,,,w,left_blue.png,left_orange.png,q,right,6102feaf4f6002b3dbc4cdab,001,2021-08-01_12h30.45.680,arrow_simon_norep,2021.1.2,Win32,60.2300789,,,,,,,,,,,,,,,,,,,,,p,0,1.201185001,40,FALSE,TRUE,9,3,39,3,1,,,,,,,
,,,,,,0,1.96336991,#a3d0fb,,right_blue.png,o,,,,,,o,right_blue.png,right_orange.png,p,left,6102feaf4f6002b3dbc4cdab,001,2021-08-01_12h30.45.680,arrow_simon_norep,2021.1.2,Win32,60.2300789,,,,,,,,,,,,,,,,,,,,,o,1,1.620350001,41,TRUE,FALSE,10,0,40,0,1,,,,,,,
,,,,,,1,1.988992653,#f3af84,,right_orange.png,p,,,,,,o,right_blue.png,right_orange.png,p,left,6102feaf4f6002b3dbc4cdab,001,2021-08-01_12h30.45.680,arrow_simon_norep,2021.1.2,Win32,60.2300789,,,,,,,,,,,,,,,,,,,,,w,0,1.4515,42,FALSE,FALSE,10,1,41,0,1,,,,,,,
,,,,,,0,1.965300975,#a3d0fb,,left_blue.png,w,,,,,,w,left_blue.png,left_orange.png,q,left,6102feaf4f6002b3dbc4cdab,001,2021-08-01_12h30.45.680,arrow_simon_norep,2021.1.2,Win32,60.2300789,,,,,,,,,,,,,,,,,,,,,w,1,1.462425001,43,FALSE,FALSE,10,2,42,2,1,,,,,,,
,,,,,,0,1.746677566,#f3af84,,right_orange.png,p,,,,,,o,right_blue.png,right_orange.png,p,right,6102feaf4f6002b3dbc4cdab,001,2021-08-01_12h30.45.680,arrow_simon_norep,2021.1.2,Win32,60.2300789,,,,,,,,,,,,,,,,,,,,,p,1,1.434115,44,FALSE,FALSE,10,3,43,1,1,,,,,,,
,,,,,,0,1.833494496,#a3d0fb,,left_blue.png,w,,,,,,w,left_blue.png,left_orange.png,q,right,6102feaf4f6002b3dbc4cdab,001,2021-08-01_12h30.45.680,arrow_simon_norep,2021.1.2,Win32,60.2300789,,,,,,,,,,,,,,,,,,,,,w,1,1.617995,45,TRUE,FALSE,11,0,44,3,1,,,,,,,
,,,,,,0,2.484591437,#f3af84,,right_orange.png,p,,,,,,o,right_blue.png,right_orange.png,p,right,6102feaf4f6002b3dbc4cdab,001,2021-08-01_12h30.45.680,arrow_simon_norep,2021.1.2,Win32,60.2300789,,,,,,,,,,,,,,,,,,,,,p,1,1.864325,46,TRUE,FALSE,11,1,45,1,1,,,,,,,
,,,,,,0,2.090756387,#a3d0fb,,left_blue.png,w,,,,,,w,left_blue.png,left_orange.png,q,right,6102feaf4f6002b3dbc4cdab,001,2021-08-01_12h30.45.680,arrow_simon_norep,2021.1.2,Win32,60.2300789,,,,,,,,,,,,,,,,,,,,,w,1,1.634269999,47,TRUE,FALSE,11,2,46,3,1,,,,,,,
,,,,,,0,2.161497168,#f3af84,,right_orange.png,p,,,,,,o,right_blue.png,right_orange.png,p,left,6102feaf4f6002b3dbc4cdab,001,2021-08-01_12h30.45.680,arrow_simon_norep,2021.1.2,Win32,60.2300789,,,,,,,,,,,,,,,,,,,,,w,0,1.60101,48,TRUE,FALSE,11,3,47,0,1,,,,,,,
,,,,,,0,2.098491704,#a3d0fb,,right_blue.png,o,,,,,,o,right_blue.png,right_orange.png,p,left,6102feaf4f6002b3dbc4cdab,001,2021-08-01_12h30.45.680,arrow_simon_norep,2021.1.2,Win32,60.2300789,,,,,,,,,,,,,,,,,,,,,o,1,1.555225,49,FALSE,FALSE,12,0,48,0,1,,,,,,,
,,,,,,0,1.716519044,#f3af84,,left_orange.png,q,,,,,,w,left_blue.png,left_orange.png,q,left,6102feaf4f6002b3dbc4cdab,001,2021-08-01_12h30.45.680,arrow_simon_norep,2021.1.2,Win32,60.2300789,,,,,,,,,,,,,,,,,,,,,q,1,1.3598,50,FALSE,TRUE,12,1,49,2,1,,,,,,,
,,,,,,1,1.809155422,#a3d0fb,,right_blue.png,o,,,,,,o,right_blue.png,right_orange.png,p,left,6102feaf4f6002b3dbc4cdab,001,2021-08-01_12h30.45.680,arrow_simon_norep,2021.1.2,Win32,60.2300789,,,,,,,,,,,,,,,,,,,,,w,0,1.510330001,51,FALSE,FALSE,12,2,50,0,1,,,,,,,
,,,,,,1,2.402290076,#f3af84,,left_orange.png,q,,,,,,w,left_blue.png,left_orange.png,q,left,6102feaf4f6002b3dbc4cdab,001,2021-08-01_12h30.45.680,arrow_simon_norep,2021.1.2,Win32,60.2300789,,,,,,,,,,,,,,,,,,,,,p,0,1.58491,52,FALSE,FALSE,12,3,51,2,1,,,,,,,
,,,,,,1,2.111169988,#a3d0fb,,right_blue.png,o,,,,,,o,right_blue.png,right_orange.png,p,right,6102feaf4f6002b3dbc4cdab,001,2021-08-01_12h30.45.680,arrow_simon_norep,2021.1.2,Win32,60.2300789,,,,,,,,,,,,,,,,,,,,,o,1,1.384055,53,FALSE,TRUE,13,0,52,1,1,,,,,,,
,,,,,,0,1.561821708,#f3af84,,left_orange.png,q,,,,,,w,left_blue.png,left_orange.png,q,right,6102feaf4f6002b3dbc4cdab,001,2021-08-01_12h30.45.680,arrow_simon_norep,2021.1.2,Win32,60.2300789,,,,,,,,,,,,,,,,,,,,,q,1,1.471024999,54,FALSE,FALSE,13,1,53,3,1,,,,,,,
,,,,,,0,1.591163322,#a3d0fb,,left_blue.png,w,,,,,,w,left_blue.png,left_orange.png,q,left,6102feaf4f6002b3dbc4cdab,001,2021-08-01_12h30.45.680,arrow_simon_norep,2021.1.2,Win32,60.2300789,,,,,,,,,,,,,,,,,,,,,w,1,1.565245001,55,FALSE,FALSE,13,2,54,2,1,,,,,,,
,,,,,,0,1.661966542,#f3af84,,left_orange.png,q,,,,,,w,left_blue.png,left_orange.png,q,right,6102feaf4f6002b3dbc4cdab,001,2021-08-01_12h30.45.680,arrow_simon_norep,2021.1.2,Win32,60.2300789,,,,,,,,,,,,,,,,,,,,,q,1,1.504075,56,FALSE,FALSE,13,3,55,3,1,,,,,,,
,,,,,,0,1.905493896,#a3d0fb,,right_blue.png,o,,,,,,o,right_blue.png,right_orange.png,p,right,6102feaf4f6002b3dbc4cdab,001,2021-08-01_12h30.45.680,arrow_simon_norep,2021.1.2,Win32,60.2300789,,,,,,,,,,,,,,,,,,,,,o,1,1.35981,57,FALSE,TRUE,14,0,56,1,1,,,,,,,
,,,,,,0,1.512421832,#f3af84,,right_orange.png,p,,,,,,o,right_blue.png,right_orange.png,p,right,6102feaf4f6002b3dbc4cdab,001,2021-08-01_12h30.45.680,arrow_simon_norep,2021.1.2,Win32,60.2300789,,,,,,,,,,,,,,,,,,,,,p,1,1.50183,58,FALSE,FALSE,14,1,57,1,1,,,,,,,
,,,,,,0,2.414397856,#a3d0fb,,left_blue.png,w,,,,,,w,left_blue.png,left_orange.png,q,left,6102feaf4f6002b3dbc4cdab,001,2021-08-01_12h30.45.680,arrow_simon_norep,2021.1.2,Win32,60.2300789,,,,,,,,,,,,,,,,,,,,,q,0,1.73625,59,TRUE,FALSE,14,2,58,2,1,,,,,,,
,,,,,,0,2.388976929,#f3af84,,left_orange.png,q,,,,,,w,left_blue.png,left_orange.png,q,right,6102feaf4f6002b3dbc4cdab,001,2021-08-01_12h30.45.680,arrow_simon_norep,2021.1.2,Win32,60.2300789,,,,,,,,,,,,,,,,,,,,,o,0,1.659605,60,TRUE,FALSE,14,3,59,3,1,,,,,,,
,,,,,,,,,,,,,,,,,,,,,,6102feaf4f6002b3dbc4cdab,001,2021-08-01_12h30.45.680,arrow_simon_norep,2021.1.2,Win32,60.2300789,,,,,,,,,,,,,,,,,,,,,,,,,,,,,,,,space,16.8362,2,0,2,0,1
,,,,,,0,2.202747403,#a3d0fb,,right_blue.png,o,,,,,,o,right_blue.png,right_orange.png,p,left,6102feaf4f6002b3dbc4cdab,001,2021-08-01_12h30.45.680,arrow_simon_norep,2021.1.2,Win32,60.2300789,,,,,,,,,,,,,,,,,,,,,o,1,4.304159999,1,TRUE,FALSE,0,0,0,0,1,,,,,,,
,,,,,,0,1.778489337,#f3af84,,right_orange.png,p,,,,,,o,right_blue.png,right_orange.png,p,right,6102feaf4f6002b3dbc4cdab,001,2021-08-01_12h30.45.680,arrow_simon_norep,2021.1.2,Win32,60.2300789,,,,,,,,,,,,,,,,,,,,,p,1,1.674069999,2,TRUE,FALSE,0,1,1,1,1,,,,,,,
,,,,,,0,1.701556283,#a3d0fb,,left_blue.png,w,,,,,,w,left_blue.png,left_orange.png,q,right,6102feaf4f6002b3dbc4cdab,001,2021-08-01_12h30.45.680,arrow_simon_norep,2021.1.2,Win32,60.2300789,,,,,,,,,,,,,,,,,,,,,q,0,1.21061,3,FALSE,TRUE,0,2,2,3,1,,,,,,,
,,,,,,0,1.933852241,#f3af84,,left_orange.png,q,,,,,,w,left_blue.png,left_orange.png,q,left,6102feaf4f6002b3dbc4cdab,001,2021-08-01_12h30.45.680,arrow_simon_norep,2021.1.2,Win32,60.2300789,,,,,,,,,,,,,,,,,,,,,q,1,1.434145,4,FALSE,FALSE,0,3,3,2,1,,,,,,,
,,,,,,0,2.388576494,#a3d0fb,,left_blue.png,w,,,,,,w,left_blue.png,left_orange.png,q,left,6102feaf4f6002b3dbc4cdab,001,2021-08-01_12h30.45.680,arrow_simon_norep,2021.1.2,Win32,60.2300789,,,,,,,,,,,,,,,,,,,,,w,1,1.571300002,5,FALSE,FALSE,1,0,4,2,1,,,,,,,
,,,,,,0,2.1728468,#f3af84,,left_orange.png,q,,,,,,w,left_blue.png,left_orange.png,q,right,6102feaf4f6002b3dbc4cdab,001,2021-08-01_12h30.45.680,arrow_simon_norep,2021.1.2,Win32,60.2300789,,,,,,,,,,,,,,,,,,,,,o,0,1.62325,6,TRUE,FALSE,1,1,5,3,1,,,,,,,
,,,,,,0,2.377008761,#a3d0fb,,right_blue.png,o,,,,,,o,right_blue.png,right_orange.png,p,right,6102feaf4f6002b3dbc4cdab,001,2021-08-01_12h30.45.680,arrow_simon_norep,2021.1.2,Win32,60.2300789,,,,,,,,,,,,,,,,,,,,,o,1,1.72546,7,TRUE,FALSE,1,2,6,1,1,,,,,,,
,,,,,,0,2.168861248,#f3af84,,right_orange.png,p,,,,,,o,right_blue.png,right_orange.png,p,right,6102feaf4f6002b3dbc4cdab,001,2021-08-01_12h30.45.680,arrow_simon_norep,2021.1.2,Win32,60.2300789,,,,,,,,,,,,,,,,,,,,,p,1,1.556780001,8,FALSE,FALSE,1,3,7,1,1,,,,,,,
,,,,,,0,1.937181345,#a3d0fb,,right_blue.png,o,,,,,,o,right_blue.png,right_orange.png,p,left,6102feaf4f6002b3dbc4cdab,001,2021-08-01_12h30.45.680,arrow_simon_norep,2021.1.2,Win32,60.2300789,,,,,,,,,,,,,,,,,,,,,w,0,1.387805,9,FALSE,TRUE,2,0,8,0,1,,,,,,,
,,,,,,0,1.664968477,#f3af84,,right_orange.png,p,,,,,,o,right_blue.png,right_orange.png,p,left,6102feaf4f6002b3dbc4cdab,001,2021-08-01_12h30.45.680,arrow_simon_norep,2021.1.2,Win32,60.2300789,,,,,,,,,,,,,,,,,,,,,o,0,1.295630001,10,FALSE,TRUE,2,1,9,0,1,,,,,,,
,,,,,,0,1.606048789,#a3d0fb,,right_blue.png,o,,,,,,o,right_blue.png,right_orange.png,p,left,6102feaf4f6002b3dbc4cdab,001,2021-08-01_12h30.45.680,arrow_simon_norep,2021.1.2,Win32,60.2300789,,,,,,,,,,,,,,,,,,,,,o,1,1.304575,11,FALSE,TRUE,2,2,10,0,1,,,,,,,
,,,,,,1,1.957440246,#f3af84,,left_orange.png,q,,,,,,w,left_blue.png,left_orange.png,q,left,6102feaf4f6002b3dbc4cdab,001,2021-08-01_12h30.45.680,arrow_simon_norep,2021.1.2,Win32,60.2300789,,,,,,,,,,,,,,,,,,,,,w,0,1.494650001,12,FALSE,FALSE,2,3,11,2,1,,,,,,,
,,,,,,1,2.047255206,#a3d0fb,,right_blue.png,o,,,,,,o,right_blue.png,right_orange.png,p,right,6102feaf4f6002b3dbc4cdab,001,2021-08-01_12h30.45.680,arrow_simon_norep,2021.1.2,Win32,60.2300789,,,,,,,,,,,,,,,,,,,,,p,0,1.45074,13,FALSE,FALSE,3,0,12,1,1,,,,,,,
,,,,,,0,1.637826053,#f3af84,,left_orange.png,q,,,,,,w,left_blue.png,left_orange.png,q,right,6102feaf4f6002b3dbc4cdab,001,2021-08-01_12h30.45.680,arrow_simon_norep,2021.1.2,Win32,60.2300789,,,,,,,,,,,,,,,,,,,,,q,1,1.418165,14,FALSE,FALSE,3,1,13,3,1,,,,,,,
,,,,,,0,2.383884736,#a3d0fb,,left_blue.png,w,,,,,,w,left_blue.png,left_orange.png,q,left,6102feaf4f6002b3dbc4cdab,001,2021-08-01_12h30.45.680,arrow_simon_norep,2021.1.2,Win32,60.2300789,,,,,,,,,,,,,,,,,,,,,w,1,1.668269999,15,TRUE,FALSE,3,2,14,2,1,,,,,,,
,,,,,,0,2.231685396,#f3af84,,left_orange.png,q,,,,,,w,left_blue.png,left_orange.png,q,left,6102feaf4f6002b3dbc4cdab,001,2021-08-01_12h30.45.680,arrow_simon_norep,2021.1.2,Win32,60.2300789,,,,,,,,,,,,,,,,,,,,,q,1,1.612235,16,TRUE,FALSE,3,3,15,2,1,,,,,,,
,,,,,,1,1.512470288,#a3d0fb,,left_blue.png,w,,,,,,w,left_blue.png,left_orange.png,q,left,6102feaf4f6002b3dbc4cdab,001,2021-08-01_12h30.45.680,arrow_simon_norep,2021.1.2,Win32,60.2300789,,,,,,,,,,,,,,,,,,,,,q,0,1.534165001,17,FALSE,FALSE,4,0,16,2,1,,,,,,,
,,,,,,1,2.199156445,#f3af84,,right_orange.png,p,,,,,,o,right_blue.png,right_orange.png,p,right,6102feaf4f6002b3dbc4cdab,001,2021-08-01_12h30.45.680,arrow_simon_norep,2021.1.2,Win32,60.2300789,,,,,,,,,,,,,,,,,,,,,o,0,1.53891,18,FALSE,FALSE,4,1,17,1,1,,,,,,,
,,,,,,1,2.258213522,#a3d0fb,,right_blue.png,o,,,,,,o,right_blue.png,right_orange.png,p,left,6102feaf4f6002b3dbc4cdab,001,2021-08-01_12h30.45.680,arrow_simon_norep,2021.1.2,Win32,60.2300789,,,,,,,,,,,,,,,,,,,,,w,0,1.592985,19,FALSE,FALSE,4,2,18,0,1,,,,,,,
,,,,,,0,1.902345673,#f3af84,,left_orange.png,q,,,,,,w,left_blue.png,left_orange.png,q,right,6102feaf4f6002b3dbc4cdab,001,2021-08-01_12h30.45.680,arrow_simon_norep,2021.1.2,Win32,60.2300789,,,,,,,,,,,,,,,,,,,,,q,1,1.53186,20,FALSE,FALSE,4,3,19,3,1,,,,,,,
,,,,,,0,2.146995413,#a3d0fb,,right_blue.png,o,,,,,,o,right_blue.png,right_orange.png,p,right,6102feaf4f6002b3dbc4cdab,001,2021-08-01_12h30.45.680,arrow_simon_norep,2021.1.2,Win32,60.2300789,,,,,,,,,,,,,,,,,,,,,o,1,1.534615001,21,FALSE,FALSE,5,0,20,1,1,,,,,,,
,,,,,,0,2.041379819,#f3af84,,right_orange.png,p,,,,,,o,right_blue.png,right_orange.png,p,left,6102feaf4f6002b3dbc4cdab,001,2021-08-01_12h30.45.680,arrow_simon_norep,2021.1.2,Win32,60.2300789,,,,,,,,,,,,,,,,,,,,,p,1,1.568399999,22,FALSE,FALSE,5,1,21,0,1,,,,,,,
,,,,,,1,2.136341799,#a3d0fb,,left_blue.png,w,,,,,,w,left_blue.png,left_orange.png,q,right,6102feaf4f6002b3dbc4cdab,001,2021-08-01_12h30.45.680,arrow_simon_norep,2021.1.2,Win32,60.2300789,,,,,,,,,,,,,,,,,,,,,o,0,1.454905,23,FALSE,FALSE,5,2,22,3,1,,,,,,,
,,,,,,1,2.472434188,#f3af84,,left_orange.png,q,,,,,,w,left_blue.png,left_orange.png,q,left,6102feaf4f6002b3dbc4cdab,001,2021-08-01_12h30.45.680,arrow_simon_norep,2021.1.2,Win32,60.2300789,,,,,,,,,,,,,,,,,,,,,p,0,1.311095001,24,FALSE,TRUE,5,3,23,2,1,,,,,,,
,,,,,,0,1.751236046,#a3d0fb,,right_blue.png,o,,,,,,o,right_blue.png,right_orange.png,p,right,6102feaf4f6002b3dbc4cdab,001,2021-08-01_12h30.45.680,arrow_simon_norep,2021.1.2,Win32,60.2300789,,,,,,,,,,,,,,,,,,,,,o,1,1.454885,25,FALSE,FALSE,6,0,24,1,1,,,,,,,
,,,,,,0,1.655589624,#f3af84,,right_orange.png,p,,,,,,o,right_blue.png,right_orange.png,p,right,6102feaf4f6002b3dbc4cdab,001,2021-08-01_12h30.45.680,arrow_simon_norep,2021.1.2,Win32,60.2300789,,,,,,,,,,,,,,,,,,,,,p,1,1.036064999,26,FALSE,TRUE,6,1,25,1,1,,,,,,,
,,,,,,0,2.178583901,#a3d0fb,,left_blue.png,w,,,,,,w,left_blue.png,left_orange.png,q,right,6102feaf4f6002b3dbc4cdab,001,2021-08-01_12h30.45.680,arrow_simon_norep,2021.1.2,Win32,60.2300789,,,,,,,,,,,,,,,,,,,,,w,1,1.55892,27,FALSE,FALSE,6,2,26,3,1,,,,,,,
,,,,,,0,2.374069273,#f3af84,,left_orange.png,q,,,,,,w,left_blue.png,left_orange.png,q,left,6102feaf4f6002b3dbc4cdab,001,2021-08-01_12h30.45.680,arrow_simon_norep,2021.1.2,Win32,60.2300789,,,,,,,,,,,,,,,,,,,,,q,1,1.707009999,28,TRUE,FALSE,6,3,27,2,1,,,,,,,
,,,,,,0,1.746332613,#a3d0fb,,right_blue.png,o,,,,,,o,right_blue.png,right_orange.png,p,right,6102feaf4f6002b3dbc4cdab,001,2021-08-01_12h30.45.680,arrow_simon_norep,2021.1.2,Win32,60.2300789,,,,,,,,,,,,,,,,,,,,,o,1,1.119409999,29,FALSE,TRUE,7,0,28,1,1,,,,,,,
,,,,,,0,2.112698031,#f3af84,,right_orange.png,p,,,,,,o,right_blue.png,right_orange.png,p,right,6102feaf4f6002b3dbc4cdab,001,2021-08-01_12h30.45.680,arrow_simon_norep,2021.1.2,Win32,60.2300789,,,,,,,,,,,,,,,,,,,,,p,1,1.478434999,30,FALSE,FALSE,7,1,29,1,1,,,,,,,
,,,,,,0,1.6616295,#a3d0fb,,right_blue.png,o,,,,,,o,right_blue.png,right_orange.png,p,left,6102feaf4f6002b3dbc4cdab,001,2021-08-01_12h30.45.680,arrow_simon_norep,2021.1.2,Win32,60.2300789,,,,,,,,,,,,,,,,,,,,,q,0,1.041175,31,FALSE,TRUE,7,2,30,0,1,,,,,,,
,,,,,,0,1.998500784,#f3af84,,left_orange.png,q,,,,,,w,left_blue.png,left_orange.png,q,left,6102feaf4f6002b3dbc4cdab,001,2021-08-01_12h30.45.680,arrow_simon_norep,2021.1.2,Win32,60.2300789,,,,,,,,,,,,,,,,,,,,,q,1,1.5207,32,FALSE,FALSE,7,3,31,2,1,,,,,,,
,,,,,,0,2.435808848,#a3d0fb,,left_blue.png,w,,,,,,w,left_blue.png,left_orange.png,q,right,6102feaf4f6002b3dbc4cdab,001,2021-08-01_12h30.45.680,arrow_simon_norep,2021.1.2,Win32,60.2300789,,,,,,,,,,,,,,,,,,,,,o,0,1.68414,33,TRUE,FALSE,8,0,32,3,1,,,,,,,
,,,,,,0,1.642361781,#f3af84,,left_orange.png,q,,,,,,w,left_blue.png,left_orange.png,q,right,6102feaf4f6002b3dbc4cdab,001,2021-08-01_12h30.45.680,arrow_simon_norep,2021.1.2,Win32,60.2300789,,,,,,,,,,,,,,,,,,,,,q,1,1.521504998,34,FALSE,FALSE,8,1,33,3,1,,,,,,,
,,,,,,0,2.112862773,#a3d0fb,,right_blue.png,o,,,,,,o,right_blue.png,right_orange.png,p,left,6102feaf4f6002b3dbc4cdab,001,2021-08-01_12h30.45.680,arrow_simon_norep,2021.1.2,Win32,60.2300789,,,,,,,,,,,,,,,,,,,,,o,1,1.629865,35,TRUE,FALSE,8,2,34,0,1,,,,,,,
,,,,,,0,2.346340857,#f3af84,,right_orange.png,p,,,,,,o,right_blue.png,right_orange.png,p,left,6102feaf4f6002b3dbc4cdab,001,2021-08-01_12h30.45.680,arrow_simon_norep,2021.1.2,Win32,60.2300789,,,,,,,,,,,,,,,,,,,,,p,1,1.807695,36,TRUE,FALSE,8,3,35,0,1,,,,,,,
,,,,,,0,1.901068996,#a3d0fb,,left_blue.png,w,,,,,,w,left_blue.png,left_orange.png,q,right,6102feaf4f6002b3dbc4cdab,001,2021-08-01_12h30.45.680,arrow_simon_norep,2021.1.2,Win32,60.2300789,,,,,,,,,,,,,,,,,,,,,w,1,1.60059,37,TRUE,FALSE,9,0,36,3,1,,,,,,,
,,,,,,0,1.980080846,#f3af84,,right_orange.png,p,,,,,,o,right_blue.png,right_orange.png,p,left,6102feaf4f6002b3dbc4cdab,001,2021-08-01_12h30.45.680,arrow_simon_norep,2021.1.2,Win32,60.2300789,,,,,,,,,,,,,,,,,,,,,p,1,1.467855001,38,FALSE,FALSE,9,1,37,0,1,,,,,,,
,,,,,,0,2.289130923,#a3d0fb,,left_blue.png,w,,,,,,w,left_blue.png,left_orange.png,q,right,6102feaf4f6002b3dbc4cdab,001,2021-08-01_12h30.45.680,arrow_simon_norep,2021.1.2,Win32,60.2300789,,,,,,,,,,,,,,,,,,,,,o,0,1.634494999,39,TRUE,FALSE,9,2,38,3,1,,,,,,,
,,,,,,0,2.314134403,#f3af84,,right_orange.png,p,,,,,,o,right_blue.png,right_orange.png,p,right,6102feaf4f6002b3dbc4cdab,001,2021-08-01_12h30.45.680,arrow_simon_norep,2021.1.2,Win32,60.2300789,,,,,,,,,,,,,,,,,,,,,p,1,1.77392,40,TRUE,FALSE,9,3,39,1,1,,,,,,,
,,,,,,1,1.930838849,#a3d0fb,,left_blue.png,w,,,,,,w,left_blue.png,left_orange.png,q,left,6102feaf4f6002b3dbc4cdab,001,2021-08-01_12h30.45.680,arrow_simon_norep,2021.1.2,Win32,60.2300789,,,,,,,,,,,,,,,,,,,,,q,0,1.5681,41,FALSE,FALSE,10,0,40,2,1,,,,,,,
,,,,,,1,2.365450131,#f3af84,,left_orange.png,q,,,,,,w,left_blue.png,left_orange.png,q,left,6102feaf4f6002b3dbc4cdab,001,2021-08-01_12h30.45.680,arrow_simon_norep,2021.1.2,Win32,60.2300789,,,,,,,,,,,,,,,,,,,,,q,1,1.69417,42,TRUE,FALSE,10,1,41,2,1,,,,,,,
,,,,,,0,2.177541767,#a3d0fb,,left_blue.png,w,,,,,,w,left_blue.png,left_orange.png,q,left,6102feaf4f6002b3dbc4cdab,001,2021-08-01_12h30.45.680,arrow_simon_norep,2021.1.2,Win32,60.2300789,,,,,,,,,,,,,,,,,,,,,w,1,1.54308,43,FALSE,FALSE,10,2,42,2,1,,,,,,,
,,,,,,0,2.316849293,#f3af84,,right_orange.png,p,,,,,,o,right_blue.png,right_orange.png,p,right,6102feaf4f6002b3dbc4cdab,001,2021-08-01_12h30.45.680,arrow_simon_norep,2021.1.2,Win32,60.2300789,,,,,,,,,,,,,,,,,,,,,p,1,1.56793,44,FALSE,FALSE,10,3,43,1,1,,,,,,,
,,,,,,0,1.718270322,#a3d0fb,,left_blue.png,w,,,,,,w,left_blue.png,left_orange.png,q,left,6102feaf4f6002b3dbc4cdab,001,2021-08-01_12h30.45.680,arrow_simon_norep,2021.1.2,Win32,60.2300789,,,,,,,,,,,,,,,,,,,,,w,1,1.510305,45,FALSE,FALSE,11,0,44,2,1,,,,,,,
,,,,,,0,1.562213534,#f3af84,,right_orange.png,p,,,,,,o,right_blue.png,right_orange.png,p,left,6102feaf4f6002b3dbc4cdab,001,2021-08-01_12h30.45.680,arrow_simon_norep,2021.1.2,Win32,60.2300789,,,,,,,,,,,,,,,,,,,,,p,1,1.497569999,46,FALSE,FALSE,11,1,45,0,1,,,,,,,
,,,,,,0,2.461861892,#a3d0fb,,left_blue.png,w,,,,,,w,left_blue.png,left_orange.png,q,right,6102feaf4f6002b3dbc4cdab,001,2021-08-01_12h30.45.680,arrow_simon_norep,2021.1.2,Win32,60.2300789,,,,,,,,,,,,,,,,,,,,,o,0,1.74994,47,TRUE,FALSE,11,2,46,3,1,,,,,,,
