instruct_resp_simon.keys,instruct_resp_simon.corr,instruct_resp_simon.rt,trial_resp_simon.keys,trial_resp_simon.corr,trial_resp_simon.rt,kerr,target_onset,target_color,target_pos,target_file,target_resp,trials_train_simon.thisRepN,trials_train_simon.thisTrialN,trials_train_simon.thisN,trials_train_simon.thisIndex,trials_train_simon.ran,odd_target_resp,odd_target_file,even_target_file,even_target_resp,target_side,participant,session,date,expName,psychopyVersion,OS,frameRate,train_block_note_resp.keys,train_block_note_resp.rt,blocks_train.thisRepN,blocks_train.thisTrialN,blocks_train.thisN,blocks_train.thisIndex,blocks_train.ran,instruct_resp_timing.keys,instruct_resp_timing.corr,instruct_resp_timing.rt,trial_resp_timing.keys,trial_resp_timing.rt,trials_train_timing.thisRepN,trials_train_timing.thisTrialN,trials_train_timing.thisN,trials_train_timing.thisIndex,trials_train_timing.ran,instruct_resp.keys,instruct_resp.corr,instruct_resp.rt,trial_resp.keys,trial_resp.corr,trial_resp.rt,trial_num,too_slow,too_soon,trials.thisRepN,trials.thisTrialN,trials.thisN,trials.thisIndex,trials.ran,block_note_resp.keys,block_note_resp.rt,blocks.thisRepN,blocks.thisTrialN,blocks.thisN,blocks.thisIndex,blocks.ran
space,0,50.288,o,0,1.9414,1,0.865346117,#a3d0fb,,left_blue.png,w,0,0,0,3,1,w,left_blue.png,left_orange.png,q,right,6104f5a9a8c67ea98c6b0af8,001,2021-08-01_11h32.33.441,arrow_simon_norep,2021.1.2,Win32,60.12144532,,,,,,,,,,,,,,,,,,,,,,,,,,,,,,,,,,,,,,
,,,o,0,1.9007,1,0.702010562,#f3af84,,left_orange.png,q,0,1,1,3,1,w,left_blue.png,left_orange.png,q,right,6104f5a9a8c67ea98c6b0af8,001,2021-08-01_11h32.33.441,arrow_simon_norep,2021.1.2,Win32,60.12144532,,,,,,,,,,,,,,,,,,,,,,,,,,,,,,,,,,,,,,
,,,o,1,2.2928,0,0.981634495,#a3d0fb,,right_blue.png,o,0,2,2,1,1,o,right_blue.png,right_orange.png,p,right,6104f5a9a8c67ea98c6b0af8,001,2021-08-01_11h32.33.441,arrow_simon_norep,2021.1.2,Win32,60.12144532,,,,,,,,,,,,,,,,,,,,,,,,,,,,,,,,,,,,,,
,,,q,1,2.6119,0,0.963374549,#f3af84,,left_orange.png,q,0,3,3,3,1,w,left_blue.png,left_orange.png,q,right,6104f5a9a8c67ea98c6b0af8,001,2021-08-01_11h32.33.441,arrow_simon_norep,2021.1.2,Win32,60.12144532,,,,,,,,,,,,,,,,,,,,,,,,,,,,,,,,,,,,,,
,,,w,0,1.0414,1,0.09833039,#a3d0fb,,right_blue.png,o,1,0,4,0,1,o,right_blue.png,right_orange.png,p,left,6104f5a9a8c67ea98c6b0af8,001,2021-08-01_11h32.33.441,arrow_simon_norep,2021.1.2,Win32,60.12144532,,,,,,,,,,,,,,,,,,,,,,,,,,,,,,,,,,,,,,
,,,q,1,3.2298,0,0.909158603,#f3af84,,left_orange.png,q,1,1,5,2,1,w,left_blue.png,left_orange.png,q,left,6104f5a9a8c67ea98c6b0af8,001,2021-08-01_11h32.33.441,arrow_simon_norep,2021.1.2,Win32,60.12144532,,,,,,,,,,,,,,,,,,,,,,,,,,,,,,,,,,,,,,
,,,w,1,1.0171,0,0.30583076,#a3d0fb,,left_blue.png,w,1,2,6,2,1,w,left_blue.png,left_orange.png,q,left,6104f5a9a8c67ea98c6b0af8,001,2021-08-01_11h32.33.441,arrow_simon_norep,2021.1.2,Win32,60.12144532,,,,,,,,,,,,,,,,,,,,,,,,,,,,,,,,,,,,,,
,,,q,1,1.3011,0,0.167823377,#f3af84,,left_orange.png,q,1,3,7,2,1,w,left_blue.png,left_orange.png,q,left,6104f5a9a8c67ea98c6b0af8,001,2021-08-01_11h32.33.441,arrow_simon_norep,2021.1.2,Win32,60.12144532,,,,,,,,,,,,,,,,,,,,,,,,,,,,,,,,,,,,,,
,,,o,0,1.9215,1,0.571627445,#a3d0fb,,left_blue.png,w,2,0,8,3,1,w,left_blue.png,left_orange.png,q,right,6104f5a9a8c67ea98c6b0af8,001,2021-08-01_11h32.33.441,arrow_simon_norep,2021.1.2,Win32,60.12144532,,,,,,,,,,,,,,,,,,,,,,,,,,,,,,,,,,,,,,
,,,q,1,2.0011,0,0.937094836,#f3af84,,left_orange.png,q,2,1,9,2,1,w,left_blue.png,left_orange.png,q,left,6104f5a9a8c67ea98c6b0af8,001,2021-08-01_11h32.33.441,arrow_simon_norep,2021.1.2,Win32,60.12144532,,,,,,,,,,,,,,,,,,,,,,,,,,,,,,,,,,,,,,
,,,w,1,1.672,0,0.618353462,#a3d0fb,,left_blue.png,w,2,2,10,2,1,w,left_blue.png,left_orange.png,q,left,6104f5a9a8c67ea98c6b0af8,001,2021-08-01_11h32.33.441,arrow_simon_norep,2021.1.2,Win32,60.12144532,,,,,,,,,,,,,,,,,,,,,,,,,,,,,,,,,,,,,,
,,,p,1,1.7287,0,0.847299337,#f3af84,,right_orange.png,p,2,3,11,1,1,o,right_blue.png,right_orange.png,p,right,6104f5a9a8c67ea98c6b0af8,001,2021-08-01_11h32.33.441,arrow_simon_norep,2021.1.2,Win32,60.12144532,,,,,,,,,,,,,,,,,,,,,,,,,,,,,,,,,,,,,,
,,,w,1,1.1084,0,0.300962861,#a3d0fb,,left_blue.png,w,3,0,12,2,1,w,left_blue.png,left_orange.png,q,left,6104f5a9a8c67ea98c6b0af8,001,2021-08-01_11h32.33.441,arrow_simon_norep,2021.1.2,Win32,60.12144532,,,,,,,,,,,,,,,,,,,,,,,,,,,,,,,,,,,,,,
,,,q,1,1.0069,0,0.270154051,#f3af84,,left_orange.png,q,3,1,13,2,1,w,left_blue.png,left_orange.png,q,left,6104f5a9a8c67ea98c6b0af8,001,2021-08-01_11h32.33.441,arrow_simon_norep,2021.1.2,Win32,60.12144532,,,,,,,,,,,,,,,,,,,,,,,,,,,,,,,,,,,,,,
,,,w,1,1.5218,0,0.86932838,#a3d0fb,,left_blue.png,w,3,2,14,2,1,w,left_blue.png,left_orange.png,q,left,6104f5a9a8c67ea98c6b0af8,001,2021-08-01_11h32.33.441,arrow_simon_norep,2021.1.2,Win32,60.12144532,,,,,,,,,,,,,,,,,,,,,,,,,,,,,,,,,,,,,,
,,,p,1,1.8162,0,0.820099807,#f3af84,,right_orange.png,p,3,3,15,0,1,o,right_blue.png,right_orange.png,p,left,6104f5a9a8c67ea98c6b0af8,001,2021-08-01_11h32.33.441,arrow_simon_norep,2021.1.2,Win32,60.12144532,,,,,,,,,,,,,,,,,,,,,,,,,,,,,,,,,,,,,,
,,,o,0,1.3369,1,0.536245798,#a3d0fb,,left_blue.png,w,4,0,16,3,1,w,left_blue.png,left_orange.png,q,right,6104f5a9a8c67ea98c6b0af8,001,2021-08-01_11h32.33.441,arrow_simon_norep,2021.1.2,Win32,60.12144532,,,,,,,,,,,,,,,,,,,,,,,,,,,,,,,,,,,,,,
,,,q,1,1.5867,0,0.276885878,#f3af84,,left_orange.png,q,4,1,17,3,1,w,left_blue.png,left_orange.png,q,right,6104f5a9a8c67ea98c6b0af8,001,2021-08-01_11h32.33.441,arrow_simon_norep,2021.1.2,Win32,60.12144532,,,,,,,,,,,,,,,,,,,,,,,,,,,,,,,,,,,,,,
,,,o,1,2.4165,0,0.697834725,#a3d0fb,,right_blue.png,o,4,2,18,1,1,o,right_blue.png,right_orange.png,p,right,6104f5a9a8c67ea98c6b0af8,001,2021-08-01_11h32.33.441,arrow_simon_norep,2021.1.2,Win32,60.12144532,,,,,,,,,,,,,,,,,,,,,,,,,,,,,,,,,,,,,,
,,,p,1,1.6611,0,0.543555527,#f3af84,,right_orange.png,p,4,3,19,0,1,o,right_blue.png,right_orange.png,p,left,6104f5a9a8c67ea98c6b0af8,001,2021-08-01_11h32.33.441,arrow_simon_norep,2021.1.2,Win32,60.12144532,,,,,,,,,,,,,,,,,,,,,,,,,,,,,,,,,,,,,,
,,,w,1,1.9176,0,0.894516398,#a3d0fb,,left_blue.png,w,5,0,20,3,1,w,left_blue.png,left_orange.png,q,right,6104f5a9a8c67ea98c6b0af8,001,2021-08-01_11h32.33.441,arrow_simon_norep,2021.1.2,Win32,60.12144532,,,,,,,,,,,,,,,,,,,,,,,,,,,,,,,,,,,,,,
,,,p,1,2.0842,0,0.543242837,#f3af84,,right_orange.png,p,5,1,21,1,1,o,right_blue.png,right_orange.png,p,right,6104f5a9a8c67ea98c6b0af8,001,2021-08-01_11h32.33.441,arrow_simon_norep,2021.1.2,Win32,60.12144532,,,,,,,,,,,,,,,,,,,,,,,,,,,,,,,,,,,,,,
,,,o,1,1.6527,0,0.863870657,#a3d0fb,,right_blue.png,o,5,2,22,1,1,o,right_blue.png,right_orange.png,p,right,6104f5a9a8c67ea98c6b0af8,001,2021-08-01_11h32.33.441,arrow_simon_norep,2021.1.2,Win32,60.12144532,,,,,,,,,,,,,,,,,,,,,,,,,,,,,,,,,,,,,,
,,,p,1,1.7283,0,0.962291863,#f3af84,,right_orange.png,p,5,3,23,1,1,o,right_blue.png,right_orange.png,p,right,6104f5a9a8c67ea98c6b0af8,001,2021-08-01_11h32.33.441,arrow_simon_norep,2021.1.2,Win32,60.12144532,,,,,,,,,,,,,,,,,,,,,,,,,,,,,,,,,,,,,,
,,,w,1,1.3872,0,0.618180676,#a3d0fb,,left_blue.png,w,6,0,24,3,1,w,left_blue.png,left_orange.png,q,right,6104f5a9a8c67ea98c6b0af8,001,2021-08-01_11h32.33.441,arrow_simon_norep,2021.1.2,Win32,60.12144532,,,,,,,,,,,,,,,,,,,,,,,,,,,,,,,,,,,,,,
,,,q,1,1.7903,0,0.864201775,#f3af84,,left_orange.png,q,6,1,25,3,1,w,left_blue.png,left_orange.png,q,right,6104f5a9a8c67ea98c6b0af8,001,2021-08-01_11h32.33.441,arrow_simon_norep,2021.1.2,Win32,60.12144532,,,,,,,,,,,,,,,,,,,,,,,,,,,,,,,,,,,,,,
,,,p,0,1.3169,1,0.268744013,#a3d0fb,,right_blue.png,o,6,2,26,0,1,o,right_blue.png,right_orange.png,p,left,6104f5a9a8c67ea98c6b0af8,001,2021-08-01_11h32.33.441,arrow_simon_norep,2021.1.2,Win32,60.12144532,,,,,,,,,,,,,,,,,,,,,,,,,,,,,,,,,,,,,,
,,,p,1,1.2626,0,0.510749416,#f3af84,,right_orange.png,p,6,3,27,1,1,o,right_blue.png,right_orange.png,p,right,6104f5a9a8c67ea98c6b0af8,001,2021-08-01_11h32.33.441,arrow_simon_norep,2021.1.2,Win32,60.12144532,,,,,,,,,,,,,,,,,,,,,,,,,,,,,,,,,,,,,,
,,,p,0,1.6855,1,0.93936516,#a3d0fb,,right_blue.png,o,7,0,28,0,1,o,right_blue.png,right_orange.png,p,left,6104f5a9a8c67ea98c6b0af8,001,2021-08-01_11h32.33.441,arrow_simon_norep,2021.1.2,Win32,60.12144532,,,,,,,,,,,,,,,,,,,,,,,,,,,,,,,,,,,,,,
,,,p,1,0.8072,0,0.04267143,#f3af84,,right_orange.png,p,7,1,29,1,1,o,right_blue.png,right_orange.png,p,right,6104f5a9a8c67ea98c6b0af8,001,2021-08-01_11h32.33.441,arrow_simon_norep,2021.1.2,Win32,60.12144532,,,,,,,,,,,,,,,,,,,,,,,,,,,,,,,,,,,,,,
,,,o,1,1.2689,0,0.647089038,#a3d0fb,,right_blue.png,o,7,2,30,0,1,o,right_blue.png,right_orange.png,p,left,6104f5a9a8c67ea98c6b0af8,001,2021-08-01_11h32.33.441,arrow_simon_norep,2021.1.2,Win32,60.12144532,,,,,,,,,,,,,,,,,,,,,,,,,,,,,,,,,,,,,,
,,,p,1,0.7007,0,0.123872987,#f3af84,,right_orange.png,p,7,3,31,1,1,o,right_blue.png,right_orange.png,p,right,6104f5a9a8c67ea98c6b0af8,001,2021-08-01_11h32.33.441,arrow_simon_norep,2021.1.2,Win32,60.12144532,,,,,,,,,,,,,,,,,,,,,,,,,,,,,,,,,,,,,,
,,,o,1,1.1782,0,0.465779164,#a3d0fb,,right_blue.png,o,8,0,32,0,1,o,right_blue.png,right_orange.png,p,left,6104f5a9a8c67ea98c6b0af8,001,2021-08-01_11h32.33.441,arrow_simon_norep,2021.1.2,Win32,60.12144532,,,,,,,,,,,,,,,,,,,,,,,,,,,,,,,,,,,,,,
,,,q,1,1.4706,0,0.382629641,#f3af84,,left_orange.png,q,8,1,33,2,1,w,left_blue.png,left_orange.png,q,left,6104f5a9a8c67ea98c6b0af8,001,2021-08-01_11h32.33.441,arrow_simon_norep,2021.1.2,Win32,60.12144532,,,,,,,,,,,,,,,,,,,,,,,,,,,,,,,,,,,,,,
,,,w,1,1.0335,0,0.475335436,#a3d0fb,,left_blue.png,w,8,2,34,2,1,w,left_blue.png,left_orange.png,q,left,6104f5a9a8c67ea98c6b0af8,001,2021-08-01_11h32.33.441,arrow_simon_norep,2021.1.2,Win32,60.12144532,,,,,,,,,,,,,,,,,,,,,,,,,,,,,,,,,,,,,,
,,,p,1,1.5131,0,0.612380348,#f3af84,,right_orange.png,p,8,3,35,1,1,o,right_blue.png,right_orange.png,p,right,6104f5a9a8c67ea98c6b0af8,001,2021-08-01_11h32.33.441,arrow_simon_norep,2021.1.2,Win32,60.12144532,,,,,,,,,,,,,,,,,,,,,,,,,,,,,,,,,,,,,,
,,,w,1,1.6593,0,0.140261257,#a3d0fb,,left_blue.png,w,9,0,36,2,1,w,left_blue.png,left_orange.png,q,left,6104f5a9a8c67ea98c6b0af8,001,2021-08-01_11h32.33.441,arrow_simon_norep,2021.1.2,Win32,60.12144532,,,,,,,,,,,,,,,,,,,,,,,,,,,,,,,,,,,,,,
,,,p,1,1.4084,0,0.196354181,#f3af84,,right_orange.png,p,9,1,37,0,1,o,right_blue.png,right_orange.png,p,left,6104f5a9a8c67ea98c6b0af8,001,2021-08-01_11h32.33.441,arrow_simon_norep,2021.1.2,Win32,60.12144532,,,,,,,,,,,,,,,,,,,,,,,,,,,,,,,,,,,,,,
,,,w,1,1.0332,0,0.253866353,#a3d0fb,,left_blue.png,w,9,2,38,2,1,w,left_blue.png,left_orange.png,q,left,6104f5a9a8c67ea98c6b0af8,001,2021-08-01_11h32.33.441,arrow_simon_norep,2021.1.2,Win32,60.12144532,,,,,,,,,,,,,,,,,,,,,,,,,,,,,,,,,,,,,,
,,,q,1,2.618,0,0.939410441,#f3af84,,left_orange.png,q,9,3,39,3,1,w,left_blue.png,left_orange.png,q,right,6104f5a9a8c67ea98c6b0af8,001,2021-08-01_11h32.33.441,arrow_simon_norep,2021.1.2,Win32,60.12144532,,,,,,,,,,,,,,,,,,,,,,,,,,,,,,,,,,,,,,
,,,o,1,1.1335,0,0.540238906,#a3d0fb,,right_blue.png,o,10,0,40,0,1,o,right_blue.png,right_orange.png,p,left,6104f5a9a8c67ea98c6b0af8,001,2021-08-01_11h32.33.441,arrow_simon_norep,2021.1.2,Win32,60.12144532,,,,,,,,,,,,,,,,,,,,,,,,,,,,,,,,,,,,,,
,,,p,1,1.4431,0,0.77064394,#f3af84,,right_orange.png,p,10,1,41,1,1,o,right_blue.png,right_orange.png,p,right,6104f5a9a8c67ea98c6b0af8,001,2021-08-01_11h32.33.441,arrow_simon_norep,2021.1.2,Win32,60.12144532,,,,,,,,,,,,,,,,,,,,,,,,,,,,,,,,,,,,,,
,,,o,1,0.8593,0,0.249629226,#a3d0fb,,right_blue.png,o,10,2,42,1,1,o,right_blue.png,right_orange.png,p,right,6104f5a9a8c67ea98c6b0af8,001,2021-08-01_11h32.33.441,arrow_simon_norep,2021.1.2,Win32,60.12144532,,,,,,,,,,,,,,,,,,,,,,,,,,,,,,,,,,,,,,
,,,q,1,1.7572,0,0.598365065,#f3af84,,left_orange.png,q,10,3,43,3,1,w,left_blue.png,left_orange.png,q,right,6104f5a9a8c67ea98c6b0af8,001,2021-08-01_11h32.33.441,arrow_simon_norep,2021.1.2,Win32,60.12144532,,,,,,,,,,,,,,,,,,,,,,,,,,,,,,,,,,,,,,
,,,w,1,1.7534,0,0.849421786,#a3d0fb,,left_blue.png,w,11,0,44,3,1,w,left_blue.png,left_orange.png,q,right,6104f5a9a8c67ea98c6b0af8,001,2021-08-01_11h32.33.441,arrow_simon_norep,2021.1.2,Win32,60.12144532,,,,,,,,,,,,,,,,,,,,,,,,,,,,,,,,,,,,,,
,,,p,1,2.1169,0,0.744401296,#f3af84,,right_orange.png,p,11,1,45,1,1,o,right_blue.png,right_orange.png,p,right,6104f5a9a8c67ea98c6b0af8,001,2021-08-01_11h32.33.441,arrow_simon_norep,2021.1.2,Win32,60.12144532,,,,,,,,,,,,,,,,,,,,,,,,,,,,,,,,,,,,,,
,,,w,1,2.0629,0,0.843788631,#a3d0fb,,left_blue.png,w,11,2,46,3,1,w,left_blue.png,left_orange.png,q,right,6104f5a9a8c67ea98c6b0af8,001,2021-08-01_11h32.33.441,arrow_simon_norep,2021.1.2,Win32,60.12144532,,,,,,,,,,,,,,,,,,,,,,,,,,,,,,,,,,,,,,
,,,p,1,2.0336,0,0.113564673,#f3af84,,right_orange.png,p,11,3,47,0,1,o,right_blue.png,right_orange.png,p,left,6104f5a9a8c67ea98c6b0af8,001,2021-08-01_11h32.33.441,arrow_simon_norep,2021.1.2,Win32,60.12144532,,,,,,,,,,,,,,,,,,,,,,,,,,,,,,,,,,,,,,
,,,w,1,1.9503,0,0.685247125,#a3d0fb,,left_blue.png,w,12,0,48,3,1,w,left_blue.png,left_orange.png,q,right,6104f5a9a8c67ea98c6b0af8,001,2021-08-01_11h32.33.441,arrow_simon_norep,2021.1.2,Win32,60.12144532,,,,,,,,,,,,,,,,,,,,,,,,,,,,,,,,,,,,,,
,,,q,1,1.467,0,0.798202824,#f3af84,,left_orange.png,q,12,1,49,2,1,w,left_blue.png,left_orange.png,q,left,6104f5a9a8c67ea98c6b0af8,001,2021-08-01_11h32.33.441,arrow_simon_norep,2021.1.2,Win32,60.12144532,,,,,,,,,,,,,,,,,,,,,,,,,,,,,,,,,,,,,,
,,,o,1,1.7452,0,0.395664168,#a3d0fb,,right_blue.png,o,12,2,50,0,1,o,right_blue.png,right_orange.png,p,left,6104f5a9a8c67ea98c6b0af8,001,2021-08-01_11h32.33.441,arrow_simon_norep,2021.1.2,Win32,60.12144532,,,,,,,,,,,,,,,,,,,,,,,,,,,,,,,,,,,,,,
,,,p,1,0.9634,0,0.110802031,#f3af84,,right_orange.png,p,12,3,51,0,1,o,right_blue.png,right_orange.png,p,left,6104f5a9a8c67ea98c6b0af8,001,2021-08-01_11h32.33.441,arrow_simon_norep,2021.1.2,Win32,60.12144532,,,,,,,,,,,,,,,,,,,,,,,,,,,,,,,,,,,,,,
,,,o,1,3.9235,0,0.96647739,#a3d0fb,,right_blue.png,o,13,0,52,0,1,o,right_blue.png,right_orange.png,p,left,6104f5a9a8c67ea98c6b0af8,001,2021-08-01_11h32.33.441,arrow_simon_norep,2021.1.2,Win32,60.12144532,,,,,,,,,,,,,,,,,,,,,,,,,,,,,,,,,,,,,,
,,,p,1,1.3461,0,0.452247886,#f3af84,,right_orange.png,p,13,1,53,0,1,o,right_blue.png,right_orange.png,p,left,6104f5a9a8c67ea98c6b0af8,001,2021-08-01_11h32.33.441,arrow_simon_norep,2021.1.2,Win32,60.12144532,,,,,,,,,,,,,,,,,,,,,,,,,,,,,,,,,,,,,,
,,,o,1,1.3918,0,0.665880739,#a3d0fb,,right_blue.png,o,13,2,54,1,1,o,right_blue.png,right_orange.png,p,right,6104f5a9a8c67ea98c6b0af8,001,2021-08-01_11h32.33.441,arrow_simon_norep,2021.1.2,Win32,60.12144532,,,,,,,,,,,,,,,,,,,,,,,,,,,,,,,,,,,,,,
,,,q,1,1.4532,0,0.592145922,#f3af84,,left_orange.png,q,13,3,55,3,1,w,left_blue.png,left_orange.png,q,right,6104f5a9a8c67ea98c6b0af8,001,2021-08-01_11h32.33.441,arrow_simon_norep,2021.1.2,Win32,60.12144532,,,,,,,,,,,,,,,,,,,,,,,,,,,,,,,,,,,,,,
,,,o,1,1.6199,0,0.26118587,#a3d0fb,,right_blue.png,o,14,0,56,0,1,o,right_blue.png,right_orange.png,p,left,6104f5a9a8c67ea98c6b0af8,001,2021-08-01_11h32.33.441,arrow_simon_norep,2021.1.2,Win32,60.12144532,,,,,,,,,,,,,,,,,,,,,,,,,,,,,,,,,,,,,,
,,,q,1,1.927,0,0.883149848,#f3af84,,left_orange.png,q,14,1,57,2,1,w,left_blue.png,left_orange.png,q,left,6104f5a9a8c67ea98c6b0af8,001,2021-08-01_11h32.33.441,arrow_simon_norep,2021.1.2,Win32,60.12144532,,,,,,,,,,,,,,,,,,,,,,,,,,,,,,,,,,,,,,
,,,o,1,1.9209,0,0.937392808,#a3d0fb,,right_blue.png,o,14,2,58,1,1,o,right_blue.png,right_orange.png,p,right,6104f5a9a8c67ea98c6b0af8,001,2021-08-01_11h32.33.441,arrow_simon_norep,2021.1.2,Win32,60.12144532,,,,,,,,,,,,,,,,,,,,,,,,,,,,,,,,,,,,,,
,,,q,1,0.9748,0,0.252731093,#f3af84,,left_orange.png,q,14,3,59,2,1,w,left_blue.png,left_orange.png,q,left,6104f5a9a8c67ea98c6b0af8,001,2021-08-01_11h32.33.441,arrow_simon_norep,2021.1.2,Win32,60.12144532,,,,,,,,,,,,,,,,,,,,,,,,,,,,,,,,,,,,,,
,,,,,,,,,,,,,,,,,,,,,,6104f5a9a8c67ea98c6b0af8,001,2021-08-01_11h32.33.441,arrow_simon_norep,2021.1.2,Win32,60.12144532,space,68.5837,0,0,0,0,1,,,,,,,,,,,,,,,,,,,,,,,,,,,,,,,
,,,o,1,4.3494,0,0.00281524,#a3d0fb,,right_blue.png,o,0,0,0,1,1,o,right_blue.png,right_orange.png,p,right,6104f5a9a8c67ea98c6b0af8,001,2021-08-01_11h32.33.441,arrow_simon_norep,2021.1.2,Win32,60.12144532,,,,,,,,,,,,,,,,,,,,,,,,,,,,,,,,,,,,,,
,,,q,1,1.2549,0,0.433648314,#f3af84,,left_orange.png,q,0,1,1,3,1,w,left_blue.png,left_orange.png,q,right,6104f5a9a8c67ea98c6b0af8,001,2021-08-01_11h32.33.441,arrow_simon_norep,2021.1.2,Win32,60.12144532,,,,,,,,,,,,,,,,,,,,,,,,,,,,,,,,,,,,,,
,,,w,1,1.6066,0,0.637602988,#a3d0fb,,left_blue.png,w,0,2,2,3,1,w,left_blue.png,left_orange.png,q,right,6104f5a9a8c67ea98c6b0af8,001,2021-08-01_11h32.33.441,arrow_simon_norep,2021.1.2,Win32,60.12144532,,,,,,,,,,,,,,,,,,,,,,,,,,,,,,,,,,,,,,
,,,q,1,0.8339,0,0.106764564,#f3af84,,left_orange.png,q,0,3,3,3,1,w,left_blue.png,left_orange.png,q,right,6104f5a9a8c67ea98c6b0af8,001,2021-08-01_11h32.33.441,arrow_simon_norep,2021.1.2,Win32,60.12144532,,,,,,,,,,,,,,,,,,,,,,,,,,,,,,,,,,,,,,
,,,o,1,1.5232,0,0.542281889,#a3d0fb,,right_blue.png,o,1,0,4,1,1,o,right_blue.png,right_orange.png,p,right,6104f5a9a8c67ea98c6b0af8,001,2021-08-01_11h32.33.441,arrow_simon_norep,2021.1.2,Win32,60.12144532,,,,,,,,,,,,,,,,,,,,,,,,,,,,,,,,,,,,,,
,,,q,1,2.0275,0,0.131092139,#f3af84,,left_orange.png,q,1,1,5,2,1,w,left_blue.png,left_orange.png,q,left,6104f5a9a8c67ea98c6b0af8,001,2021-08-01_11h32.33.441,arrow_simon_norep,2021.1.2,Win32,60.12144532,,,,,,,,,,,,,,,,,,,,,,,,,,,,,,,,,,,,,,
,,,o,1,1.5166,0,0.661430542,#a3d0fb,,right_blue.png,o,1,2,6,1,1,o,right_blue.png,right_orange.png,p,right,6104f5a9a8c67ea98c6b0af8,001,2021-08-01_11h32.33.441,arrow_simon_norep,2021.1.2,Win32,60.12144532,,,,,,,,,,,,,,,,,,,,,,,,,,,,,,,,,,,,,,
,,,p,1,0.9677,0,0.434980476,#f3af84,,right_orange.png,p,1,3,7,1,1,o,right_blue.png,right_orange.png,p,right,6104f5a9a8c67ea98c6b0af8,001,2021-08-01_11h32.33.441,arrow_simon_norep,2021.1.2,Win32,60.12144532,,,,,,,,,,,,,,,,,,,,,,,,,,,,,,,,,,,,,,
,,,w,1,1.0958,0,0.336215991,#a3d0fb,,left_blue.png,w,2,0,8,3,1,w,left_blue.png,left_orange.png,q,right,6104f5a9a8c67ea98c6b0af8,001,2021-08-01_11h32.33.441,arrow_simon_norep,2021.1.2,Win32,60.12144532,,,,,,,,,,,,,,,,,,,,,,,,,,,,,,,,,,,,,,
,,,p,1,1.4273,0,0.147179842,#f3af84,,right_orange.png,p,2,1,9,1,1,o,right_blue.png,right_orange.png,p,right,6104f5a9a8c67ea98c6b0af8,001,2021-08-01_11h32.33.441,arrow_simon_norep,2021.1.2,Win32,60.12144532,,,,,,,,,,,,,,,,,,,,,,,,,,,,,,,,,,,,,,
,,,p,0,0.9917,1,0.048112392,#a3d0fb,,right_blue.png,o,2,2,10,0,1,o,right_blue.png,right_orange.png,p,left,6104f5a9a8c67ea98c6b0af8,001,2021-08-01_11h32.33.441,arrow_simon_norep,2021.1.2,Win32,60.12144532,,,,,,,,,,,,,,,,,,,,,,,,,,,,,,,,,,,,,,
,,,p,1,0.818,0,0.32882077,#f3af84,,right_orange.png,p,2,3,11,1,1,o,right_blue.png,right_orange.png,p,right,6104f5a9a8c67ea98c6b0af8,001,2021-08-01_11h32.33.441,arrow_simon_norep,2021.1.2,Win32,60.12144532,,,,,,,,,,,,,,,,,,,,,,,,,,,,,,,,,,,,,,
,,,o,1,1.3569,0,0.590200031,#a3d0fb,,right_blue.png,o,3,0,12,0,1,o,right_blue.png,right_orange.png,p,left,6104f5a9a8c67ea98c6b0af8,001,2021-08-01_11h32.33.441,arrow_simon_norep,2021.1.2,Win32,60.12144532,,,,,,,,,,,,,,,,,,,,,,,,,,,,,,,,,,,,,,
,,,p,1,1.2962,0,0.648715265,#f3af84,,right_orange.png,p,3,1,13,1,1,o,right_blue.png,right_orange.png,p,right,6104f5a9a8c67ea98c6b0af8,001,2021-08-01_11h32.33.441,arrow_simon_norep,2021.1.2,Win32,60.12144532,,,,,,,,,,,,,,,,,,,,,,,,,,,,,,,,,,,,,,
,,,o,1,1.093,0,0.467012325,#a3d0fb,,right_blue.png,o,3,2,14,0,1,o,right_blue.png,right_orange.png,p,left,6104f5a9a8c67ea98c6b0af8,001,2021-08-01_11h32.33.441,arrow_simon_norep,2021.1.2,Win32,60.12144532,,,,,,,,,,,,,,,,,,,,,,,,,,,,,,,,,,,,,,
,,,q,1,1.3571,0,0.749762311,#f3af84,,left_orange.png,q,3,3,15,2,1,w,left_blue.png,left_orange.png,q,left,6104f5a9a8c67ea98c6b0af8,001,2021-08-01_11h32.33.441,arrow_simon_norep,2021.1.2,Win32,60.12144532,,,,,,,,,,,,,,,,,,,,,,,,,,,,,,,,,,,,,,
,,,w,1,1.3707,0,0.626013426,#a3d0fb,,left_blue.png,w,4,0,16,3,1,w,left_blue.png,left_orange.png,q,right,6104f5a9a8c67ea98c6b0af8,001,2021-08-01_11h32.33.441,arrow_simon_norep,2021.1.2,Win32,60.12144532,,,,,,,,,,,,,,,,,,,,,,,,,,,,,,,,,,,,,,
,,,p,1,0.9033,0,0.27241584,#f3af84,,right_orange.png,p,4,1,17,1,1,o,right_blue.png,right_orange.png,p,right,6104f5a9a8c67ea98c6b0af8,001,2021-08-01_11h32.33.441,arrow_simon_norep,2021.1.2,Win32,60.12144532,,,,,,,,,,,,,,,,,,,,,,,,,,,,,,,,,,,,,,
,,,o,1,1.5759,0,0.943151824,#a3d0fb,,right_blue.png,o,4,2,18,0,1,o,right_blue.png,right_orange.png,p,left,6104f5a9a8c67ea98c6b0af8,001,2021-08-01_11h32.33.441,arrow_simon_norep,2021.1.2,Win32,60.12144532,,,,,,,,,,,,,,,,,,,,,,,,,,,,,,,,,,,,,,
,,,p,1,0.9585,0,0.414246242,#f3af84,,right_orange.png,p,4,3,19,0,1,o,right_blue.png,right_orange.png,p,left,6104f5a9a8c67ea98c6b0af8,001,2021-08-01_11h32.33.441,arrow_simon_norep,2021.1.2,Win32,60.12144532,,,,,,,,,,,,,,,,,,,,,,,,,,,,,,,,,,,,,,
,,,q,0,1.5185,1,0.983687522,#a3d0fb,,left_blue.png,w,5,0,20,2,1,w,left_blue.png,left_orange.png,q,left,6104f5a9a8c67ea98c6b0af8,001,2021-08-01_11h32.33.441,arrow_simon_norep,2021.1.2,Win32,60.12144532,,,,,,,,,,,,,,,,,,,,,,,,,,,,,,,,,,,,,,
,,,q,1,0.9436,0,0.183666282,#f3af84,,left_orange.png,q,5,1,21,2,1,w,left_blue.png,left_orange.png,q,left,6104f5a9a8c67ea98c6b0af8,001,2021-08-01_11h32.33.441,arrow_simon_norep,2021.1.2,Win32,60.12144532,,,,,,,,,,,,,,,,,,,,,,,,,,,,,,,,,,,,,,
,,,o,0,1.0271,1,0.482138383,#a3d0fb,,left_blue.png,w,5,2,22,3,1,w,left_blue.png,left_orange.png,q,right,6104f5a9a8c67ea98c6b0af8,001,2021-08-01_11h32.33.441,arrow_simon_norep,2021.1.2,Win32,60.12144532,,,,,,,,,,,,,,,,,,,,,,,,,,,,,,,,,,,,,,
,,,p,1,0.9274,0,0.332912971,#f3af84,,right_orange.png,p,5,3,23,0,1,o,right_blue.png,right_orange.png,p,left,6104f5a9a8c67ea98c6b0af8,001,2021-08-01_11h32.33.441,arrow_simon_norep,2021.1.2,Win32,60.12144532,,,,,,,,,,,,,,,,,,,,,,,,,,,,,,,,,,,,,,
,,,q,0,1.1264,1,0.618019846,#a3d0fb,,left_blue.png,w,6,0,24,2,1,w,left_blue.png,left_orange.png,q,left,6104f5a9a8c67ea98c6b0af8,001,2021-08-01_11h32.33.441,arrow_simon_norep,2021.1.2,Win32,60.12144532,,,,,,,,,,,,,,,,,,,,,,,,,,,,,,,,,,,,,,
,,,p,1,0.8633,0,0.027422291,#f3af84,,right_orange.png,p,6,1,25,0,1,o,right_blue.png,right_orange.png,p,left,6104f5a9a8c67ea98c6b0af8,001,2021-08-01_11h32.33.441,arrow_simon_norep,2021.1.2,Win32,60.12144532,,,,,,,,,,,,,,,,,,,,,,,,,,,,,,,,,,,,,,
,,,o,1,1.2408,0,0.525767337,#a3d0fb,,right_blue.png,o,6,2,26,1,1,o,right_blue.png,right_orange.png,p,right,6104f5a9a8c67ea98c6b0af8,001,2021-08-01_11h32.33.441,arrow_simon_norep,2021.1.2,Win32,60.12144532,,,,,,,,,,,,,,,,,,,,,,,,,,,,,,,,,,,,,,
,,,p,1,0.7174,0,0.222834027,#f3af84,,right_orange.png,p,6,3,27,1,1,o,right_blue.png,right_orange.png,p,right,6104f5a9a8c67ea98c6b0af8,001,2021-08-01_11h32.33.441,arrow_simon_norep,2021.1.2,Win32,60.12144532,,,,,,,,,,,,,,,,,,,,,,,,,,,,,,,,,,,,,,
,,,o,1,1.0933,0,0.256192249,#a3d0fb,,right_blue.png,o,7,0,28,0,1,o,right_blue.png,right_orange.png,p,left,6104f5a9a8c67ea98c6b0af8,001,2021-08-01_11h32.33.441,arrow_simon_norep,2021.1.2,Win32,60.12144532,,,,,,,,,,,,,,,,,,,,,,,,,,,,,,,,,,,,,,
,,,p,1,1.1256,0,0.458613163,#f3af84,,right_orange.png,p,7,1,29,1,1,o,right_blue.png,right_orange.png,p,right,6104f5a9a8c67ea98c6b0af8,001,2021-08-01_11h32.33.441,arrow_simon_norep,2021.1.2,Win32,60.12144532,,,,,,,,,,,,,,,,,,,,,,,,,,,,,,,,,,,,,,
,,,o,1,1.0392,0,0.347890593,#a3d0fb,,right_blue.png,o,7,2,30,0,1,o,right_blue.png,right_orange.png,p,left,6104f5a9a8c67ea98c6b0af8,001,2021-08-01_11h32.33.441,arrow_simon_norep,2021.1.2,Win32,60.12144532,,,,,,,,,,,,,,,,,,,,,,,,,,,,,,,,,,,,,,
,,,p,1,0.7073,0,0.127769597,#f3af84,,right_orange.png,p,7,3,31,0,1,o,right_blue.png,right_orange.png,p,left,6104f5a9a8c67ea98c6b0af8,001,2021-08-01_11h32.33.441,arrow_simon_norep,2021.1.2,Win32,60.12144532,,,,,,,,,,,,,,,,,,,,,,,,,,,,,,,,,,,,,,
,,,o,1,0.9336,0,0.343642613,#a3d0fb,,right_blue.png,o,8,0,32,0,1,o,right_blue.png,right_orange.png,p,left,6104f5a9a8c67ea98c6b0af8,001,2021-08-01_11h32.33.441,arrow_simon_norep,2021.1.2,Win32,60.12144532,,,,,,,,,,,,,,,,,,,,,,,,,,,,,,,,,,,,,,
,,,q,1,1.3619,0,0.794230707,#f3af84,,left_orange.png,q,8,1,33,2,1,w,left_blue.png,left_orange.png,q,left,6104f5a9a8c67ea98c6b0af8,001,2021-08-01_11h32.33.441,arrow_simon_norep,2021.1.2,Win32,60.12144532,,,,,,,,,,,,,,,,,,,,,,,,,,,,,,,,,,,,,,
,,,w,0,1.0503,1,0.347040559,#a3d0fb,,right_blue.png,o,8,2,34,0,1,o,right_blue.png,right_orange.png,p,left,6104f5a9a8c67ea98c6b0af8,001,2021-08-01_11h32.33.441,arrow_simon_norep,2021.1.2,Win32,60.12144532,,,,,,,,,,,,,,,,,,,,,,,,,,,,,,,,,,,,,,
,,,q,1,1.1294,0,0.439901664,#f3af84,,left_orange.png,q,8,3,35,2,1,w,left_blue.png,left_orange.png,q,left,6104f5a9a8c67ea98c6b0af8,001,2021-08-01_11h32.33.441,arrow_simon_norep,2021.1.2,Win32,60.12144532,,,,,,,,,,,,,,,,,,,,,,,,,,,,,,,,,,,,,,
,,,w,1,1.4837,0,0.114346489,#a3d0fb,,left_blue.png,w,9,0,36,3,1,w,left_blue.png,left_orange.png,q,right,6104f5a9a8c67ea98c6b0af8,001,2021-08-01_11h32.33.441,arrow_simon_norep,2021.1.2,Win32,60.12144532,,,,,,,,,,,,,,,,,,,,,,,,,,,,,,,,,,,,,,
,,,q,1,1.9781,0,0.765250721,#f3af84,,left_orange.png,q,9,1,37,3,1,w,left_blue.png,left_orange.png,q,right,6104f5a9a8c67ea98c6b0af8,001,2021-08-01_11h32.33.441,arrow_simon_norep,2021.1.2,Win32,60.12144532,,,,,,,,,,,,,,,,,,,,,,,,,,,,,,,,,,,,,,
,,,p,0,1.3597,1,0.516613375,#a3d0fb,,right_blue.png,o,9,2,38,1,1,o,right_blue.png,right_orange.png,p,right,6104f5a9a8c67ea98c6b0af8,001,2021-08-01_11h32.33.441,arrow_simon_norep,2021.1.2,Win32,60.12144532,,,,,,,,,,,,,,,,,,,,,,,,,,,,,,,,,,,,,,
,,,q,1,0.8735,0,0.100533848,#f3af84,,left_orange.png,q,9,3,39,2,1,w,left_blue.png,left_orange.png,q,left,6104f5a9a8c67ea98c6b0af8,001,2021-08-01_11h32.33.441,arrow_simon_norep,2021.1.2,Win32,60.12144532,,,,,,,,,,,,,,,,,,,,,,,,,,,,,,,,,,,,,,
,,,w,1,0.7529,0,0.138102407,#a3d0fb,,left_blue.png,w,10,0,40,2,1,w,left_blue.png,left_orange.png,q,left,6104f5a9a8c67ea98c6b0af8,001,2021-08-01_11h32.33.441,arrow_simon_norep,2021.1.2,Win32,60.12144532,,,,,,,,,,,,,,,,,,,,,,,,,,,,,,,,,,,,,,
,,,q,1,1.3534,0,0.524798316,#f3af84,,left_orange.png,q,10,1,41,3,1,w,left_blue.png,left_orange.png,q,right,6104f5a9a8c67ea98c6b0af8,001,2021-08-01_11h32.33.441,arrow_simon_norep,2021.1.2,Win32,60.12144532,,,,,,,,,,,,,,,,,,,,,,,,,,,,,,,,,,,,,,
,,,w,1,1.8902,0,0.722836728,#a3d0fb,,left_blue.png,w,10,2,42,2,1,w,left_blue.png,left_orange.png,q,left,6104f5a9a8c67ea98c6b0af8,001,2021-08-01_11h32.33.441,arrow_simon_norep,2021.1.2,Win32,60.12144532,,,,,,,,,,,,,,,,,,,,,,,,,,,,,,,,,,,,,,
,,,q,1,1.8701,0,0.712307523,#f3af84,,left_orange.png,q,10,3,43,2,1,w,left_blue.png,left_orange.png,q,left,6104f5a9a8c67ea98c6b0af8,001,2021-08-01_11h32.33.441,arrow_simon_norep,2021.1.2,Win32,60.12144532,,,,,,,,,,,,,,,,,,,,,,,,,,,,,,,,,,,,,,
,,,o,1,1.7721,0,0.949089764,#a3d0fb,,right_blue.png,o,11,0,44,0,1,o,right_blue.png,right_orange.png,p,left,6104f5a9a8c67ea98c6b0af8,001,2021-08-01_11h32.33.441,arrow_simon_norep,2021.1.2,Win32,60.12144532,,,,,,,,,,,,,,,,,,,,,,,,,,,,,,,,,,,,,,
,,,q,1,0.728,0,0.09135502,#f3af84,,left_orange.png,q,11,1,45,3,1,w,left_blue.png,left_orange.png,q,right,6104f5a9a8c67ea98c6b0af8,001,2021-08-01_11h32.33.441,arrow_simon_norep,2021.1.2,Win32,60.12144532,,,,,,,,,,,,,,,,,,,,,,,,,,,,,,,,,,,,,,
,,,o,1,1.4338,0,0.183201544,#a3d0fb,,right_blue.png,o,11,2,46,0,1,o,right_blue.png,right_orange.png,p,left,6104f5a9a8c67ea98c6b0af8,001,2021-08-01_11h32.33.441,arrow_simon_norep,2021.1.2,Win32,60.12144532,,,,,,,,,,,,,,,,,,,,,,,,,,,,,,,,,,,,,,
,,,q,1,0.9624,0,0.166084342,#f3af84,,left_orange.png,q,11,3,47,3,1,w,left_blue.png,left_orange.png,q,right,6104f5a9a8c67ea98c6b0af8,001,2021-08-01_11h32.33.441,arrow_simon_norep,2021.1.2,Win32,60.12144532,,,,,,,,,,,,,,,,,,,,,,,,,,,,,,,,,,,,,,
,,,w,1,1.3772,0,0.417858291,#a3d0fb,,left_blue.png,w,12,0,48,3,1,w,left_blue.png,left_orange.png,q,right,6104f5a9a8c67ea98c6b0af8,001,2021-08-01_11h32.33.441,arrow_simon_norep,2021.1.2,Win32,60.12144532,,,,,,,,,,,,,,,,,,,,,,,,,,,,,,,,,,,,,,
,,,q,1,1.4738,0,0.593490517,#f3af84,,left_orange.png,q,12,1,49,3,1,w,left_blue.png,left_orange.png,q,right,6104f5a9a8c67ea98c6b0af8,001,2021-08-01_11h32.33.441,arrow_simon_norep,2021.1.2,Win32,60.12144532,,,,,,,,,,,,,,,,,,,,,,,,,,,,,,,,,,,,,,
,,,w,1,1.7671,0,0.277088411,#a3d0fb,,left_blue.png,w,12,2,50,2,1,w,left_blue.png,left_orange.png,q,left,6104f5a9a8c67ea98c6b0af8,001,2021-08-01_11h32.33.441,arrow_simon_norep,2021.1.2,Win32,60.12144532,,,,,,,,,,,,,,,,,,,,,,,,,,,,,,,,,,,,,,
,,,q,1,0.8168,0,0.145627104,#f3af84,,left_orange.png,q,12,3,51,2,1,w,left_blue.png,left_orange.png,q,left,6104f5a9a8c67ea98c6b0af8,001,2021-08-01_11h32.33.441,arrow_simon_norep,2021.1.2,Win32,60.12144532,,,,,,,,,,,,,,,,,,,,,,,,,,,,,,,,,,,,,,
,,,o,1,2.7106,0,0.341920323,#a3d0fb,,right_blue.png,o,13,0,52,1,1,o,right_blue.png,right_orange.png,p,right,6104f5a9a8c67ea98c6b0af8,001,2021-08-01_11h32.33.441,arrow_simon_norep,2021.1.2,Win32,60.12144532,,,,,,,,,,,,,,,,,,,,,,,,,,,,,,,,,,,,,,
,,,p,1,0.9092,0,0.332248644,#f3af84,,right_orange.png,p,13,1,53,1,1,o,right_blue.png,right_orange.png,p,right,6104f5a9a8c67ea98c6b0af8,001,2021-08-01_11h32.33.441,arrow_simon_norep,2021.1.2,Win32,60.12144532,,,,,,,,,,,,,,,,,,,,,,,,,,,,,,,,,,,,,,
,,,w,1,1.5544,0,0.976652795,#a3d0fb,,left_blue.png,w,13,2,54,2,1,w,left_blue.png,left_orange.png,q,left,6104f5a9a8c67ea98c6b0af8,001,2021-08-01_11h32.33.441,arrow_simon_norep,2021.1.2,Win32,60.12144532,,,,,,,,,,,,,,,,,,,,,,,,,,,,,,,,,,,,,,
,,,p,1,1.3385,0,0.546674109,#f3af84,,right_orange.png,p,13,3,55,1,1,o,right_blue.png,right_orange.png,p,right,6104f5a9a8c67ea98c6b0af8,001,2021-08-01_11h32.33.441,arrow_simon_norep,2021.1.2,Win32,60.12144532,,,,,,,,,,,,,,,,,,,,,,,,,,,,,,,,,,,,,,
,,,o,1,1.9904,0,0.69653122,#a3d0fb,,right_blue.png,o,14,0,56,0,1,o,right_blue.png,right_orange.png,p,left,6104f5a9a8c67ea98c6b0af8,001,2021-08-01_11h32.33.441,arrow_simon_norep,2021.1.2,Win32,60.12144532,,,,,,,,,,,,,,,,,,,,,,,,,,,,,,,,,,,,,,
,,,o,0,1.9501,1,0.409447461,#f3af84,,left_orange.png,q,14,1,57,3,1,w,left_blue.png,left_orange.png,q,right,6104f5a9a8c67ea98c6b0af8,001,2021-08-01_11h32.33.441,arrow_simon_norep,2021.1.2,Win32,60.12144532,,,,,,,,,,,,,,,,,,,,,,,,,,,,,,,,,,,,,,
,,,w,1,1.319,0,0.445636629,#a3d0fb,,left_blue.png,w,14,2,58,2,1,w,left_blue.png,left_orange.png,q,left,6104f5a9a8c67ea98c6b0af8,001,2021-08-01_11h32.33.441,arrow_simon_norep,2021.1.2,Win32,60.12144532,,,,,,,,,,,,,,,,,,,,,,,,,,,,,,,,,,,,,,
,,,q,1,1.0264,0,0.484821192,#f3af84,,left_orange.png,q,14,3,59,3,1,w,left_blue.png,left_orange.png,q,right,6104f5a9a8c67ea98c6b0af8,001,2021-08-01_11h32.33.441,arrow_simon_norep,2021.1.2,Win32,60.12144532,,,,,,,,,,,,,,,,,,,,,,,,,,,,,,,,,,,,,,
,,,,,,,,,,,,,,,,,,,,,,6104f5a9a8c67ea98c6b0af8,001,2021-08-01_11h32.33.441,arrow_simon_norep,2021.1.2,Win32,60.12144532,space,2.7279,1,0,1,0,1,,,,,,,,,,,,,,,,,,,,,,,,,,,,,,,
,,,,,,,,,,,,,,,,,,,,,,6104f5a9a8c67ea98c6b0af8,001,2021-08-01_11h32.33.441,arrow_simon_norep,2021.1.2,Win32,60.12144532,,,,,,,,space,0,64.1434,q,4.1667,0,0,0,0,1,,,,,,,,,,,,,,,,,,,,,
,,,,,,,,,,,,,,,,,,,,,,6104f5a9a8c67ea98c6b0af8,001,2021-08-01_11h32.33.441,arrow_simon_norep,2021.1.2,Win32,60.12144532,,,,,,,,,,,q,2.8335,1,0,1,0,1,,,,,,,,,,,,,,,,,,,,,
,,,,,,,,,,,,,,,,,,,,,,6104f5a9a8c67ea98c6b0af8,001,2021-08-01_11h32.33.441,arrow_simon_norep,2021.1.2,Win32,60.12144532,,,,,,,,,,,o,2.1549,2,0,2,0,1,,,,,,,,,,,,,,,,,,,,,
,,,,,,,,,,,,,,,,,,,,,,6104f5a9a8c67ea98c6b0af8,001,2021-08-01_11h32.33.441,arrow_simon_norep,2021.1.2,Win32,60.12144532,,,,,,,,,,,q,2.3391,3,0,3,0,1,,,,,,,,,,,,,,,,,,,,,
,,,,,,,,,,,,,,,,,,,,,,6104f5a9a8c67ea98c6b0af8,001,2021-08-01_11h32.33.441,arrow_simon_norep,2021.1.2,Win32,60.12144532,,,,,,,,,,,o,2.717,4,0,4,0,1,,,,,,,,,,,,,,,,,,,,,
,,,,,,,,,,,,,,,,,,,,,,6104f5a9a8c67ea98c6b0af8,001,2021-08-01_11h32.33.441,arrow_simon_norep,2021.1.2,Win32,60.12144532,,,,,,,,,,,q,2.7334,5,0,5,0,1,,,,,,,,,,,,,,,,,,,,,
,,,,,,,,,,,,,,,,,,,,,,6104f5a9a8c67ea98c6b0af8,001,2021-08-01_11h32.33.441,arrow_simon_norep,2021.1.2,Win32,60.12144532,,,,,,,,,,,o,2.7552,6,0,6,0,1,,,,,,,,,,,,,,,,,,,,,
,,,,,,,,,,,,,,,,,,,,,,6104f5a9a8c67ea98c6b0af8,001,2021-08-01_11h32.33.441,arrow_simon_norep,2021.1.2,Win32,60.12144532,,,,,,,,,,,q,2.6228,7,0,7,0,1,,,,,,,,,,,,,,,,,,,,,
,,,,,,,,,,,,,,,,,,,,,,6104f5a9a8c67ea98c6b0af8,001,2021-08-01_11h32.33.441,arrow_simon_norep,2021.1.2,Win32,60.12144532,,,,,,,,,,,o,2.5841,8,0,8,0,1,,,,,,,,,,,,,,,,,,,,,
,,,,,,,,,,,,,,,,,,,,,,6104f5a9a8c67ea98c6b0af8,001,2021-08-01_11h32.33.441,arrow_simon_norep,2021.1.2,Win32,60.12144532,,,,,,,,,,,q,2.619,9,0,9,0,1,,,,,,,,,,,,,,,,,,,,,
,,,,,,,,,,,,,,,,,,,,,,6104f5a9a8c67ea98c6b0af8,001,2021-08-01_11h32.33.441,arrow_simon_norep,2021.1.2,Win32,60.12144532,,,,,,,,,,,o,2.5781,10,0,10,0,1,,,,,,,,,,,,,,,,,,,,,
,,,,,,,,,,,,,,,,,,,,,,6104f5a9a8c67ea98c6b0af8,001,2021-08-01_11h32.33.441,arrow_simon_norep,2021.1.2,Win32,60.12144532,,,,,,,,,,,q,2.7202,11,0,11,0,1,,,,,,,,,,,,,,,,,,,,,
,,,,,,,,,,,,,,,,,,,,,,6104f5a9a8c67ea98c6b0af8,001,2021-08-01_11h32.33.441,arrow_simon_norep,2021.1.2,Win32,60.12144532,,,,,,,,,,,o,2.8502,12,0,12,0,1,,,,,,,,,,,,,,,,,,,,,
,,,,,,,,,,,,,,,,,,,,,,6104f5a9a8c67ea98c6b0af8,001,2021-08-01_11h32.33.441,arrow_simon_norep,2021.1.2,Win32,60.12144532,,,,,,,,,,,q,2.7437,13,0,13,0,1,,,,,,,,,,,,,,,,,,,,,
,,,,,,,,,,,,,,,,,,,,,,6104f5a9a8c67ea98c6b0af8,001,2021-08-01_11h32.33.441,arrow_simon_norep,2021.1.2,Win32,60.12144532,,,,,,,,,,,w,2.6834,14,0,14,0,1,,,,,,,,,,,,,,,,,,,,,
,,,,,,,,,,,,,,,,,,,,,,6104f5a9a8c67ea98c6b0af8,001,2021-08-01_11h32.33.441,arrow_simon_norep,2021.1.2,Win32,60.12144532,,,,,,,,,,,p,2.1373,15,0,15,0,1,,,,,,,,,,,,,,,,,,,,,
,,,,,,,,,,,,,,,,,,,,,,6104f5a9a8c67ea98c6b0af8,001,2021-08-01_11h32.33.441,arrow_simon_norep,2021.1.2,Win32,60.12144532,,,,,,,,,,,w,2.5719,16,0,16,0,1,,,,,,,,,,,,,,,,,,,,,
,,,,,,,,,,,,,,,,,,,,,,6104f5a9a8c67ea98c6b0af8,001,2021-08-01_11h32.33.441,arrow_simon_norep,2021.1.2,Win32,60.12144532,,,,,,,,,,,q,2.5943,17,0,17,0,1,,,,,,,,,,,,,,,,,,,,,
,,,,,,,,,,,,,,,,,,,,,,6104f5a9a8c67ea98c6b0af8,001,2021-08-01_11h32.33.441,arrow_simon_norep,2021.1.2,Win32,60.12144532,,,,,,,,,,,o,2.7504,18,0,18,0,1,,,,,,,,,,,,,,,,,,,,,
,,,,,,,,,,,,,,,,,,,,,,6104f5a9a8c67ea98c6b0af8,001,2021-08-01_11h32.33.441,arrow_simon_norep,2021.1.2,Win32,60.12144532,,,,,,,,,,,p,2.6332,19,0,19,0,1,,,,,,,,,,,,,,,,,,,,,
,,,,,,,,,,,,,,,,,,,,,,6104f5a9a8c67ea98c6b0af8,001,2021-08-01_11h32.33.441,arrow_simon_norep,2021.1.2,Win32,60.12144532,,,,,,,,,,,w,2.5998,20,0,20,0,1,,,,,,,,,,,,,,,,,,,,,
,,,,,,,,,,,,,,,,,,,,,,6104f5a9a8c67ea98c6b0af8,001,2021-08-01_11h32.33.441,arrow_simon_norep,2021.1.2,Win32,60.12144532,,,,,,,,,,,q,2.176,21,0,21,0,1,,,,,,,,,,,,,,,,,,,,,
,,,,,,,,,,,,,,,,,,,,,,6104f5a9a8c67ea98c6b0af8,001,2021-08-01_11h32.33.441,arrow_simon_norep,2021.1.2,Win32,60.12144532,,,,,,,,,,,w,2.5438,22,0,22,0,1,,,,,,,,,,,,,,,,,,,,,
,,,,,,,,,,,,,,,,,,,,,,6104f5a9a8c67ea98c6b0af8,001,2021-08-01_11h32.33.441,arrow_simon_norep,2021.1.2,Win32,60.12144532,,,,,,,,,,,q,2.5164,23,0,23,0,1,,,,,,,,,,,,,,,,,,,,,
,,,,,,,,,,,,,,,,,,,,,,6104f5a9a8c67ea98c6b0af8,001,2021-08-01_11h32.33.441,arrow_simon_norep,2021.1.2,Win32,60.12144532,,,,,,,,,,,w,2.3622,24,0,24,0,1,,,,,,,,,,,,,,,,,,,,,
,,,,,,,,,,,,,,,,,,,,,,6104f5a9a8c67ea98c6b0af8,001,2021-08-01_11h32.33.441,arrow_simon_norep,2021.1.2,Win32,60.12144532,,,,,,,,,,,p,2.7395,25,0,25,0,1,,,,,,,,,,,,,,,,,,,,,
,,,,,,,,,,,,,,,,,,,,,,6104f5a9a8c67ea98c6b0af8,001,2021-08-01_11h32.33.441,arrow_simon_norep,2021.1.2,Win32,60.12144532,,,,,,,,,,,o,2.0889,26,0,26,0,1,,,,,,,,,,,,,,,,,,,,,
,,,,,,,,,,,,,,,,,,,,,,6104f5a9a8c67ea98c6b0af8,001,2021-08-01_11h32.33.441,arrow_simon_norep,2021.1.2,Win32,60.12144532,,,,,,,,,,,q,2.8831,27,0,27,0,1,,,,,,,,,,,,,,,,,,,,,
,,,,,,,,,,,,,,,,,,,,,,6104f5a9a8c67ea98c6b0af8,001,2021-08-01_11h32.33.441,arrow_simon_norep,2021.1.2,Win32,60.12144532,,,,,,,,,,,w,2.5945,28,0,28,0,1,,,,,,,,,,,,,,,,,,,,,
,,,,,,,,,,,,,,,,,,,,,,6104f5a9a8c67ea98c6b0af8,001,2021-08-01_11h32.33.441,arrow_simon_norep,2021.1.2,Win32,60.12144532,,,,,,,,,,,p,2.7329,29,0,29,0,1,,,,,,,,,,,,,,,,,,,,,
,,,,,,,,,,,,,,,,,,,,,,6104f5a9a8c67ea98c6b0af8,001,2021-08-01_11h32.33.441,arrow_simon_norep,2021.1.2,Win32,60.12144532,,,,,,,,,,,w,2.6227,30,0,30,0,1,,,,,,,,,,,,,,,,,,,,,
,,,,,,,,,,,,,,,,,,,,,,6104f5a9a8c67ea98c6b0af8,001,2021-08-01_11h32.33.441,arrow_simon_norep,2021.1.2,Win32,60.12144532,,,,,,,,,,,q,2.628,31,0,31,0,1,,,,,,,,,,,,,,,,,,,,,
,,,,,,,,,,,,,,,,,,,,,,6104f5a9a8c67ea98c6b0af8,001,2021-08-01_11h32.33.441,arrow_simon_norep,2021.1.2,Win32,60.12144532,,,,,,,,,,,w,2.3555,32,0,32,0,1,,,,,,,,,,,,,,,,,,,,,
,,,,,,,,,,,,,,,,,,,,,,6104f5a9a8c67ea98c6b0af8,001,2021-08-01_11h32.33.441,arrow_simon_norep,2021.1.2,Win32,60.12144532,,,,,,,,,,,q,2.6795,33,0,33,0,1,,,,,,,,,,,,,,,,,,,,,
,,,,,,,,,,,,,,,,,,,,,,6104f5a9a8c67ea98c6b0af8,001,2021-08-01_11h32.33.441,arrow_simon_norep,2021.1.2,Win32,60.12144532,,,,,,,,,,,w,2.6854,34,0,34,0,1,,,,,,,,,,,,,,,,,,,,,
,,,,,,,,,,,,,,,,,,,,,,6104f5a9a8c67ea98c6b0af8,001,2021-08-01_11h32.33.441,arrow_simon_norep,2021.1.2,Win32,60.12144532,,,,,,,,,,,q,2.5516,35,0,35,0,1,,,,,,,,,,,,,,,,,,,,,
,,,,,,,,,,,,,,,,,,,,,,6104f5a9a8c67ea98c6b0af8,001,2021-08-01_11h32.33.441,arrow_simon_norep,2021.1.2,Win32,60.12144532,,,,,,,,,,,o,2.6398,36,0,36,0,1,,,,,,,,,,,,,,,,,,,,,
,,,,,,,,,,,,,,,,,,,,,,6104f5a9a8c67ea98c6b0af8,001,2021-08-01_11h32.33.441,arrow_simon_norep,2021.1.2,Win32,60.12144532,,,,,,,,,,,q,2.2168,37,0,37,0,1,,,,,,,,,,,,,,,,,,,,,
,,,,,,,,,,,,,,,,,,,,,,6104f5a9a8c67ea98c6b0af8,001,2021-08-01_11h32.33.441,arrow_simon_norep,2021.1.2,Win32,60.12144532,,,,,,,,,,,w,2.6709,38,0,38,0,1,,,,,,,,,,,,,,,,,,,,,
,,,,,,,,,,,,,,,,,,,,,,6104f5a9a8c67ea98c6b0af8,001,2021-08-01_11h32.33.441,arrow_simon_norep,2021.1.2,Win32,60.12144532,,,,,,,,,,,p,2.557,39,0,39,0,1,,,,,,,,,,,,,,,,,,,,,
,,,,,,,,,,,,,,,,,,,,,,6104f5a9a8c67ea98c6b0af8,001,2021-08-01_11h32.33.441,arrow_simon_norep,2021.1.2,Win32,60.12144532,,,,,,,,,,,o,2.6788,40,0,40,0,1,,,,,,,,,,,,,,,,,,,,,
,,,,,,,,,,,,,,,,,,,,,,6104f5a9a8c67ea98c6b0af8,001,2021-08-01_11h32.33.441,arrow_simon_norep,2021.1.2,Win32,60.12144532,,,,,,,,,,,q,2.6497,41,0,41,0,1,,,,,,,,,,,,,,,,,,,,,
,,,,,,,,,,,,,,,,,,,,,,6104f5a9a8c67ea98c6b0af8,001,2021-08-01_11h32.33.441,arrow_simon_norep,2021.1.2,Win32,60.12144532,,,,,,,,,,,w,2.5519,42,0,42,0,1,,,,,,,,,,,,,,,,,,,,,
,,,,,,,,,,,,,,,,,,,,,,6104f5a9a8c67ea98c6b0af8,001,2021-08-01_11h32.33.441,arrow_simon_norep,2021.1.2,Win32,60.12144532,,,,,,,,,,,p,2.6751,43,0,43,0,1,,,,,,,,,,,,,,,,,,,,,
,,,,,,,,,,,,,,,,,,,,,,6104f5a9a8c67ea98c6b0af8,001,2021-08-01_11h32.33.441,arrow_simon_norep,2021.1.2,Win32,60.12144532,,,,,,,,,,,o,2.8564,44,0,44,0,1,,,,,,,,,,,,,,,,,,,,,
,,,,,,,,,,,,,,,,,,,,,,6104f5a9a8c67ea98c6b0af8,001,2021-08-01_11h32.33.441,arrow_simon_norep,2021.1.2,Win32,60.12144532,,,,,,,,,,,q,2.5177,45,0,45,0,1,,,,,,,,,,,,,,,,,,,,,
,,,,,,,,,,,,,,,,,,,,,,6104f5a9a8c67ea98c6b0af8,001,2021-08-01_11h32.33.441,arrow_simon_norep,2021.1.2,Win32,60.12144532,,,,,,,,,,,w,2.6266,46,0,46,0,1,,,,,,,,,,,,,,,,,,,,,
,,,,,,,,,,,,,,,,,,,,,,6104f5a9a8c67ea98c6b0af8,001,2021-08-01_11h32.33.441,arrow_simon_norep,2021.1.2,Win32,60.12144532,,,,,,,,,,,q,2.6793,47,0,47,0,1,,,,,,,,,,,,,,,,,,,,,
,,,,,,,,,,,,,,,,,,,,,,6104f5a9a8c67ea98c6b0af8,001,2021-08-01_11h32.33.441,arrow_simon_norep,2021.1.2,Win32,60.12144532,,,,,,,,,,,w,2.5391,48,0,48,0,1,,,,,,,,,,,,,,,,,,,,,
,,,,,,,,,,,,,,,,,,,,,,6104f5a9a8c67ea98c6b0af8,001,2021-08-01_11h32.33.441,arrow_simon_norep,2021.1.2,Win32,60.12144532,,,,,,,,,,,q,2.5859,49,0,49,0,1,,,,,,,,,,,,,,,,,,,,,
,,,,,,,,,,,,,,,,,,,,,,6104f5a9a8c67ea98c6b0af8,001,2021-08-01_11h32.33.441,arrow_simon_norep,2021.1.2,Win32,60.12144532,,,,,,,,,,,w,2.5791,50,0,50,0,1,,,,,,,,,,,,,,,,,,,,,
,,,,,,,,,,,,,,,,,,,,,,6104f5a9a8c67ea98c6b0af8,001,2021-08-01_11h32.33.441,arrow_simon_norep,2021.1.2,Win32,60.12144532,,,,,,,,,,,q,2.5498,51,0,51,0,1,,,,,,,,,,,,,,,,,,,,,
,,,,,,,,,,,,,,,,,,,,,,6104f5a9a8c67ea98c6b0af8,001,2021-08-01_11h32.33.441,arrow_simon_norep,2021.1.2,Win32,60.12144532,,,,,,,,,,,w,2.5671,52,0,52,0,1,,,,,,,,,,,,,,,,,,,,,
,,,,,,,,,,,,,,,,,,,,,,6104f5a9a8c67ea98c6b0af8,001,2021-08-01_11h32.33.441,arrow_simon_norep,2021.1.2,Win32,60.12144532,,,,,,,,,,,p,2.5885,53,0,53,0,1,,,,,,,,,,,,,,,,,,,,,
,,,,,,,,,,,,,,,,,,,,,,6104f5a9a8c67ea98c6b0af8,001,2021-08-01_11h32.33.441,arrow_simon_norep,2021.1.2,Win32,60.12144532,,,,,,,,,,,o,2.6632,54,0,54,0,1,,,,,,,,,,,,,,,,,,,,,
,,,,,,,,,,,,,,,,,,,,,,6104f5a9a8c67ea98c6b0af8,001,2021-08-01_11h32.33.441,arrow_simon_norep,2021.1.2,Win32,60.12144532,,,,,,,,,,,q,2.5998,55,0,55,0,1,,,,,,,,,,,,,,,,,,,,,
,,,,,,,,,,,,,,,,,,,,,,6104f5a9a8c67ea98c6b0af8,001,2021-08-01_11h32.33.441,arrow_simon_norep,2021.1.2,Win32,60.12144532,,,,,,,,,,,w,2.5921,56,0,56,0,1,,,,,,,,,,,,,,,,,,,,,
,,,,,,,,,,,,,,,,,,,,,,6104f5a9a8c67ea98c6b0af8,001,2021-08-01_11h32.33.441,arrow_simon_norep,2021.1.2,Win32,60.12144532,,,,,,,,,,,q,2.4956,57,0,57,0,1,,,,,,,,,,,,,,,,,,,,,
,,,,,,,,,,,,,,,,,,,,,,6104f5a9a8c67ea98c6b0af8,001,2021-08-01_11h32.33.441,arrow_simon_norep,2021.1.2,Win32,60.12144532,,,,,,,,,,,w,2.6865,58,0,58,0,1,,,,,,,,,,,,,,,,,,,,,
,,,,,,,,,,,,,,,,,,,,,,6104f5a9a8c67ea98c6b0af8,001,2021-08-01_11h32.33.441,arrow_simon_norep,2021.1.2,Win32,60.12144532,,,,,,,,,,,q,2.6241,59,0,59,0,1,,,,,,,,,,,,,,,,,,,,,
,,,,,,0,1.849371816,#a3d0fb,,right_blue.png,o,,,,,,o,right_blue.png,right_orange.png,p,left,6104f5a9a8c67ea98c6b0af8,001,2021-08-01_11h32.33.441,arrow_simon_norep,2021.1.2,Win32,60.12144532,,,,,,,,,,,,,,,,,,space,0,34.2456,w,0,1.1903,1,FALSE,TRUE,0,0,0,0,1,,,,,,,
,,,,,,0,2.406255372,#f3af84,,right_orange.png,p,,,,,,o,right_blue.png,right_orange.png,p,right,6104f5a9a8c67ea98c6b0af8,001,2021-08-01_11h32.33.441,arrow_simon_norep,2021.1.2,Win32,60.12144532,,,,,,,,,,,,,,,,,,,,,p,1,1.8335,2,TRUE,FALSE,0,1,1,1,1,,,,,,,
,,,,,,0,1.635864021,#a3d0fb,,left_blue.png,w,,,,,,w,left_blue.png,left_orange.png,q,left,6104f5a9a8c67ea98c6b0af8,001,2021-08-01_11h32.33.441,arrow_simon_norep,2021.1.2,Win32,60.12144532,,,,,,,,,,,,,,,,,,,,,w,1,1.02,3,FALSE,TRUE,0,2,2,2,1,,,,,,,
,,,,,,0,2.323324155,#f3af84,,right_orange.png,p,,,,,,o,right_blue.png,right_orange.png,p,right,6104f5a9a8c67ea98c6b0af8,001,2021-08-01_11h32.33.441,arrow_simon_norep,2021.1.2,Win32,60.12144532,,,,,,,,,,,,,,,,,,,,,o,0,1.9171,4,TRUE,FALSE,0,3,3,1,1,,,,,,,
,,,,,,1,2.140705562,#a3d0fb,,right_blue.png,o,,,,,,o,right_blue.png,right_orange.png,p,right,6104f5a9a8c67ea98c6b0af8,001,2021-08-01_11h32.33.441,arrow_simon_norep,2021.1.2,Win32,60.12144532,,,,,,,,,,,,,,,,,,,,,p,0,1.5598,5,FALSE,FALSE,1,0,4,1,1,,,,,,,
,,,,,,1,2.164802071,#f3af84,,left_orange.png,q,,,,,,w,left_blue.png,left_orange.png,q,right,6104f5a9a8c67ea98c6b0af8,001,2021-08-01_11h32.33.441,arrow_simon_norep,2021.1.2,Win32,60.12144532,,,,,,,,,,,,,,,,,,,,,q,1,1.6559,6,TRUE,FALSE,1,1,5,3,1,,,,,,,
,,,,,,0,1.730778466,#a3d0fb,,left_blue.png,w,,,,,,w,left_blue.png,left_orange.png,q,right,6104f5a9a8c67ea98c6b0af8,001,2021-08-01_11h32.33.441,arrow_simon_norep,2021.1.2,Win32,60.12144532,,,,,,,,,,,,,,,,,,,,,w,1,1.4208,7,FALSE,FALSE,1,2,6,3,1,,,,,,,
,,,,,,0,1.516755478,#f3af84,,left_orange.png,q,,,,,,w,left_blue.png,left_orange.png,q,left,6104f5a9a8c67ea98c6b0af8,001,2021-08-01_11h32.33.441,arrow_simon_norep,2021.1.2,Win32,60.12144532,,,,,,,,,,,,,,,,,,,,,q,1,0.9885,8,FALSE,TRUE,1,3,7,2,1,,,,,,,
,,,,,,0,1.765274892,#a3d0fb,,right_blue.png,o,,,,,,o,right_blue.png,right_orange.png,p,left,6104f5a9a8c67ea98c6b0af8,001,2021-08-01_11h32.33.441,arrow_simon_norep,2021.1.2,Win32,60.12144532,,,,,,,,,,,,,,,,,,,,,o,1,1.6448,9,TRUE,FALSE,2,0,8,0,1,,,,,,,
,,,,,,1,2.239426885,#f3af84,,left_orange.png,q,,,,,,w,left_blue.png,left_orange.png,q,right,6104f5a9a8c67ea98c6b0af8,001,2021-08-01_11h32.33.441,arrow_simon_norep,2021.1.2,Win32,60.12144532,,,,,,,,,,,,,,,,,,,,,p,0,1.5393,10,FALSE,FALSE,2,1,9,3,1,,,,,,,
,,,,,,1,1.570427604,#a3d0fb,,right_blue.png,o,,,,,,o,right_blue.png,right_orange.png,p,right,6104f5a9a8c67ea98c6b0af8,001,2021-08-01_11h32.33.441,arrow_simon_norep,2021.1.2,Win32,60.12144532,,,,,,,,,,,,,,,,,,,,,p,0,1.1177,11,FALSE,TRUE,2,2,10,1,1,,,,,,,
,,,,,,1,2.126487755,#f3af84,,left_orange.png,q,,,,,,w,left_blue.png,left_orange.png,q,left,6104f5a9a8c67ea98c6b0af8,001,2021-08-01_11h32.33.441,arrow_simon_norep,2021.1.2,Win32,60.12144532,,,,,,,,,,,,,,,,,,,,,w,0,2.0197,12,TRUE,FALSE,2,3,11,2,1,,,,,,,
,,,,,,0,1.923834311,#a3d0fb,,right_blue.png,o,,,,,,o,right_blue.png,right_orange.png,p,right,6104f5a9a8c67ea98c6b0af8,001,2021-08-01_11h32.33.441,arrow_simon_norep,2021.1.2,Win32,60.12144532,,,,,,,,,,,,,,,,,,,,,o,1,1.4614,13,FALSE,FALSE,3,0,12,1,1,,,,,,,
,,,,,,0,1.542252991,#f3af84,,right_orange.png,p,,,,,,o,right_blue.png,right_orange.png,p,left,6104f5a9a8c67ea98c6b0af8,001,2021-08-01_11h32.33.441,arrow_simon_norep,2021.1.2,Win32,60.12144532,,,,,,,,,,,,,,,,,,,,,p,1,1.2454,14,FALSE,TRUE,3,1,13,0,1,,,,,,,
,,,,,,0,2.186455424,#a3d0fb,,right_blue.png,o,,,,,,o,right_blue.png,right_orange.png,p,right,6104f5a9a8c67ea98c6b0af8,001,2021-08-01_11h32.33.441,arrow_simon_norep,2021.1.2,Win32,60.12144532,,,,,,,,,,,,,,,,,,,,,o,1,1.677,15,TRUE,FALSE,3,2,14,1,1,,,,,,,
,,,,,,0,1.712887416,#f3af84,,right_orange.png,p,,,,,,o,right_blue.png,right_orange.png,p,left,6104f5a9a8c67ea98c6b0af8,001,2021-08-01_11h32.33.441,arrow_simon_norep,2021.1.2,Win32,60.12144532,,,,,,,,,,,,,,,,,,,,,p,1,1.5109,16,FALSE,FALSE,3,3,15,0,1,,,,,,,
,,,,,,0,2.387558866,#a3d0fb,,right_blue.png,o,,,,,,o,right_blue.png,right_orange.png,p,left,6104f5a9a8c67ea98c6b0af8,001,2021-08-01_11h32.33.441,arrow_simon_norep,2021.1.2,Win32,60.12144532,,,,,,,,,,,,,,,,,,,,,o,1,1.9502,17,TRUE,FALSE,4,0,16,0,1,,,,,,,
,,,,,,0,1.99868281,#f3af84,,left_orange.png,q,,,,,,w,left_blue.png,left_orange.png,q,left,6104f5a9a8c67ea98c6b0af8,001,2021-08-01_11h32.33.441,arrow_simon_norep,2021.1.2,Win32,60.12144532,,,,,,,,,,,,,,,,,,,,,q,1,1.3583,18,FALSE,TRUE,4,1,17,2,1,,,,,,,
,,,,,,0,2.033479676,#a3d0fb,,right_blue.png,o,,,,,,o,right_blue.png,right_orange.png,p,right,6104f5a9a8c67ea98c6b0af8,001,2021-08-01_11h32.33.441,arrow_simon_norep,2021.1.2,Win32,60.12144532,,,,,,,,,,,,,,,,,,,,,p,0,2.101,19,TRUE,FALSE,4,2,18,1,1,,,,,,,
,,,,,,0,1.867991477,#f3af84,,right_orange.png,p,,,,,,o,right_blue.png,right_orange.png,p,left,6104f5a9a8c67ea98c6b0af8,001,2021-08-01_11h32.33.441,arrow_simon_norep,2021.1.2,Win32,60.12144532,,,,,,,,,,,,,,,,,,,,,p,1,1.5905,20,FALSE,FALSE,4,3,19,0,1,,,,,,,
,,,,,,0,2.228263352,#a3d0fb,,right_blue.png,o,,,,,,o,right_blue.png,right_orange.png,p,right,6104f5a9a8c67ea98c6b0af8,001,2021-08-01_11h32.33.441,arrow_simon_norep,2021.1.2,Win32,60.12144532,,,,,,,,,,,,,,,,,,,,,o,1,1.8465,21,TRUE,FALSE,5,0,20,1,1,,,,,,,
,,,,,,0,2.172599385,#f3af84,,left_orange.png,q,,,,,,w,left_blue.png,left_orange.png,q,left,6104f5a9a8c67ea98c6b0af8,001,2021-08-01_11h32.33.441,arrow_simon_norep,2021.1.2,Win32,60.12144532,,,,,,,,,,,,,,,,,,,,,q,1,1.8199,22,TRUE,FALSE,5,1,21,2,1,,,,,,,
,,,,,,0,1.791067023,#a3d0fb,,left_blue.png,w,,,,,,w,left_blue.png,left_orange.png,q,left,6104f5a9a8c67ea98c6b0af8,001,2021-08-01_11h32.33.441,arrow_simon_norep,2021.1.2,Win32,60.12144532,,,,,,,,,,,,,,,,,,,,,q,0,1.8228,23,TRUE,FALSE,5,2,22,2,1,,,,,,,
,,,,,,0,2.201705227,#f3af84,,left_orange.png,q,,,,,,w,left_blue.png,left_orange.png,q,left,6104f5a9a8c67ea98c6b0af8,001,2021-08-01_11h32.33.441,arrow_simon_norep,2021.1.2,Win32,60.12144532,,,,,,,,,,,,,,,,,,,,,q,1,1.5848,24,FALSE,FALSE,5,3,23,2,1,,,,,,,
,,,,,,0,2.363466314,#a3d0fb,,left_blue.png,w,,,,,,w,left_blue.png,left_orange.png,q,left,6104f5a9a8c67ea98c6b0af8,001,2021-08-01_11h32.33.441,arrow_simon_norep,2021.1.2,Win32,60.12144532,,,,,,,,,,,,,,,,,,,,,q,0,1.9025,25,TRUE,FALSE,6,0,24,2,1,,,,,,,
,,,,,,0,2.25385396,#f3af84,,right_orange.png,p,,,,,,o,right_blue.png,right_orange.png,p,right,6104f5a9a8c67ea98c6b0af8,001,2021-08-01_11h32.33.441,arrow_simon_norep,2021.1.2,Win32,60.12144532,,,,,,,,,,,,,,,,,,,,,p,1,1.5585,26,FALSE,FALSE,6,1,25,1,1,,,,,,,
,,,,,,0,2.312273072,#a3d0fb,,right_blue.png,o,,,,,,o,right_blue.png,right_orange.png,p,left,6104f5a9a8c67ea98c6b0af8,001,2021-08-01_11h32.33.441,arrow_simon_norep,2021.1.2,Win32,60.12144532,,,,,,,,,,,,,,,,,,,,,o,1,1.8894,27,TRUE,FALSE,6,2,26,0,1,,,,,,,
,,,,,,0,2.042052534,#f3af84,,right_orange.png,p,,,,,,o,right_blue.png,right_orange.png,p,left,6104f5a9a8c67ea98c6b0af8,001,2021-08-01_11h32.33.441,arrow_simon_norep,2021.1.2,Win32,60.12144532,,,,,,,,,,,,,,,,,,,,,p,1,1.9501,28,TRUE,FALSE,6,3,27,0,1,,,,,,,
,,,,,,0,2.153874845,#a3d0fb,,left_blue.png,w,,,,,,w,left_blue.png,left_orange.png,q,right,6104f5a9a8c67ea98c6b0af8,001,2021-08-01_11h32.33.441,arrow_simon_norep,2021.1.2,Win32,60.12144532,,,,,,,,,,,,,,,,,,,,,w,1,1.7171,29,TRUE,FALSE,7,0,28,3,1,,,,,,,
,,,,,,0,1.969305692,#f3af84,,left_orange.png,q,,,,,,w,left_blue.png,left_orange.png,q,right,6104f5a9a8c67ea98c6b0af8,001,2021-08-01_11h32.33.441,arrow_simon_norep,2021.1.2,Win32,60.12144532,,,,,,,,,,,,,,,,,,,,,q,1,1.3174,30,FALSE,TRUE,7,1,29,3,1,,,,,,,
,,,,,,0,2.192838153,#a3d0fb,,left_blue.png,w,,,,,,w,left_blue.png,left_orange.png,q,right,6104f5a9a8c67ea98c6b0af8,001,2021-08-01_11h32.33.441,arrow_simon_norep,2021.1.2,Win32,60.12144532,,,,,,,,,,,,,,,,,,,,,w,1,1.8433,31,TRUE,FALSE,7,2,30,3,1,,,,,,,
,,,,,,0,1.642025346,#f3af84,,left_orange.png,q,,,,,,w,left_blue.png,left_orange.png,q,left,6104f5a9a8c67ea98c6b0af8,001,2021-08-01_11h32.33.441,arrow_simon_norep,2021.1.2,Win32,60.12144532,,,,,,,,,,,,,,,,,,,,,q,1,1.1723,32,FALSE,TRUE,7,3,31,2,1,,,,,,,
,,,,,,0,1.764563627,#a3d0fb,,right_blue.png,o,,,,,,o,right_blue.png,right_orange.png,p,right,6104f5a9a8c67ea98c6b0af8,001,2021-08-01_11h32.33.441,arrow_simon_norep,2021.1.2,Win32,60.12144532,,,,,,,,,,,,,,,,,,,,,o,1,1.7454,33,TRUE,FALSE,8,0,32,1,1,,,,,,,
,,,,,,0,2.376751521,#f3af84,,left_orange.png,q,,,,,,w,left_blue.png,left_orange.png,q,left,6104f5a9a8c67ea98c6b0af8,001,2021-08-01_11h32.33.441,arrow_simon_norep,2021.1.2,Win32,60.12144532,,,,,,,,,,,,,,,,,,,,,q,1,1.7074,34,TRUE,FALSE,8,1,33,2,1,,,,,,,
,,,,,,0,2.061697216,#a3d0fb,,right_blue.png,o,,,,,,o,right_blue.png,right_orange.png,p,left,6104f5a9a8c67ea98c6b0af8,001,2021-08-01_11h32.33.441,arrow_simon_norep,2021.1.2,Win32,60.12144532,,,,,,,,,,,,,,,,,,,,,o,1,1.7279,35,TRUE,FALSE,8,2,34,0,1,,,,,,,
,,,,,,0,1.844200032,#f3af84,,right_orange.png,p,,,,,,o,right_blue.png,right_orange.png,p,right,6104f5a9a8c67ea98c6b0af8,001,2021-08-01_11h32.33.441,arrow_simon_norep,2021.1.2,Win32,60.12144532,,,,,,,,,,,,,,,,,,,,,p,1,1.4199,36,FALSE,FALSE,8,3,35,1,1,,,,,,,
,,,,,,0,2.247833766,#a3d0fb,,left_blue.png,w,,,,,,w,left_blue.png,left_orange.png,q,left,6104f5a9a8c67ea98c6b0af8,001,2021-08-01_11h32.33.441,arrow_simon_norep,2021.1.2,Win32,60.12144532,,,,,,,,,,,,,,,,,,,,,w,1,1.6943,37,TRUE,FALSE,9,0,36,2,1,,,,,,,
,,,,,,1,2.484755602,#f3af84,,right_orange.png,p,,,,,,o,right_blue.png,right_orange.png,p,left,6104f5a9a8c67ea98c6b0af8,001,2021-08-01_11h32.33.441,arrow_simon_norep,2021.1.2,Win32,60.12144532,,,,,,,,,,,,,,,,,,,,,q,0,1.5684,38,FALSE,FALSE,9,1,37,0,1,,,,,,,
,,,,,,1,1.782402081,#a3d0fb,,right_blue.png,o,,,,,,o,right_blue.png,right_orange.png,p,left,6104f5a9a8c67ea98c6b0af8,001,2021-08-01_11h32.33.441,arrow_simon_norep,2021.1.2,Win32,60.12144532,,,,,,,,,,,,,,,,,,,,,o,1,1.8167,39,TRUE,FALSE,9,2,38,0,1,,,,,,,
,,,,,,1,2.180572262,#f3af84,,right_orange.png,p,,,,,,o,right_blue.png,right_orange.png,p,left,6104f5a9a8c67ea98c6b0af8,001,2021-08-01_11h32.33.441,arrow_simon_norep,2021.1.2,Win32,60.12144532,,,,,,,,,,,,,,,,,,,,,p,1,1.7832,40,TRUE,FALSE,9,3,39,0,1,,,,,,,
,,,,,,1,1.978096817,#a3d0fb,,left_blue.png,w,,,,,,w,left_blue.png,left_orange.png,q,right,6104f5a9a8c67ea98c6b0af8,001,2021-08-01_11h32.33.441,arrow_simon_norep,2021.1.2,Win32,60.12144532,,,,,,,,,,,,,,,,,,,,,w,1,1.6957,41,TRUE,FALSE,10,0,40,3,1,,,,,,,
,,,,,,0,2.01473336,#f3af84,,left_orange.png,q,,,,,,w,left_blue.png,left_orange.png,q,left,6104f5a9a8c67ea98c6b0af8,001,2021-08-01_11h32.33.441,arrow_simon_norep,2021.1.2,Win32,60.12144532,,,,,,,,,,,,,,,,,,,,,q,1,1.5836,42,FALSE,FALSE,10,1,41,2,1,,,,,,,
,,,,,,0,2.439522288,#a3d0fb,,right_blue.png,o,,,,,,o,right_blue.png,right_orange.png,p,right,6104f5a9a8c67ea98c6b0af8,001,2021-08-01_11h32.33.441,arrow_simon_norep,2021.1.2,Win32,60.12144532,,,,,,,,,,,,,,,,,,,,,o,1,1.78,43,TRUE,FALSE,10,2,42,1,1,,,,,,,
,,,,,,0,1.79752133,#f3af84,,left_orange.png,q,,,,,,w,left_blue.png,left_orange.png,q,right,6104f5a9a8c67ea98c6b0af8,001,2021-08-01_11h32.33.441,arrow_simon_norep,2021.1.2,Win32,60.12144532,,,,,,,,,,,,,,,,,,,,,q,1,1.5512,44,FALSE,FALSE,10,3,43,3,1,,,,,,,
,,,,,,0,2.496652183,#a3d0fb,,left_blue.png,w,,,,,,w,left_blue.png,left_orange.png,q,right,6104f5a9a8c67ea98c6b0af8,001,2021-08-01_11h32.33.441,arrow_simon_norep,2021.1.2,Win32,60.12144532,,,,,,,,,,,,,,,,,,,,,w,1,1.8063,45,TRUE,FALSE,11,0,44,3,1,,,,,,,
,,,,,,0,2.127395604,#f3af84,,right_orange.png,p,,,,,,o,right_blue.png,right_orange.png,p,left,6104f5a9a8c67ea98c6b0af8,001,2021-08-01_11h32.33.441,arrow_simon_norep,2021.1.2,Win32,60.12144532,,,,,,,,,,,,,,,,,,,,,q,0,1.3949,46,FALSE,TRUE,11,1,45,0,1,,,,,,,
,,,,,,0,1.758720765,#a3d0fb,,left_blue.png,w,,,,,,w,left_blue.png,left_orange.png,q,right,6104f5a9a8c67ea98c6b0af8,001,2021-08-01_11h32.33.441,arrow_simon_norep,2021.1.2,Win32,60.12144532,,,,,,,,,,,,,,,,,,,,,o,0,1.0893,47,FALSE,TRUE,11,2,46,3,1,,,,,,,
,,,,,,0,1.854545421,#f3af84,,left_orange.png,q,,,,,,w,left_blue.png,left_orange.png,q,left,6104f5a9a8c67ea98c6b0af8,001,2021-08-01_11h32.33.441,arrow_simon_norep,2021.1.2,Win32,60.12144532,,,,,,,,,,,,,,,,,,,,,q,1,1.1718,48,FALSE,TRUE,11,3,47,2,1,,,,,,,
,,,,,,0,2.068687484,#a3d0fb,,left_blue.png,w,,,,,,w,left_blue.png,left_orange.png,q,left,6104f5a9a8c67ea98c6b0af8,001,2021-08-01_11h32.33.441,arrow_simon_norep,2021.1.2,Win32,60.12144532,,,,,,,,,,,,,,,,,,,,,q,0,1.6255,49,TRUE,FALSE,12,0,48,2,1,,,,,,,
,,,,,,0,2.225833829,#f3af84,,right_orange.png,p,,,,,,o,right_blue.png,right_orange.png,p,right,6104f5a9a8c67ea98c6b0af8,001,2021-08-01_11h32.33.441,arrow_simon_norep,2021.1.2,Win32,60.12144532,,,,,,,,,,,,,,,,,,,,,p,1,1.5511,50,FALSE,FALSE,12,1,49,1,1,,,,,,,
,,,,,,0,1.939315142,#a3d0fb,,left_blue.png,w,,,,,,w,left_blue.png,left_orange.png,q,right,6104f5a9a8c67ea98c6b0af8,001,2021-08-01_11h32.33.441,arrow_simon_norep,2021.1.2,Win32,60.12144532,,,,,,,,,,,,,,,,,,,,,w,1,1.6192,51,TRUE,FALSE,12,2,50,3,1,,,,,,,
,,,,,,0,2.188267452,#f3af84,,left_orange.png,q,,,,,,w,left_blue.png,left_orange.png,q,left,6104f5a9a8c67ea98c6b0af8,001,2021-08-01_11h32.33.441,arrow_simon_norep,2021.1.2,Win32,60.12144532,,,,,,,,,,,,,,,,,,,,,q,1,1.6876,52,TRUE,FALSE,12,3,51,2,1,,,,,,,
,,,,,,0,2.148344309,#a3d0fb,,left_blue.png,w,,,,,,w,left_blue.png,left_orange.png,q,right,6104f5a9a8c67ea98c6b0af8,001,2021-08-01_11h32.33.441,arrow_simon_norep,2021.1.2,Win32,60.12144532,,,,,,,,,,,,,,,,,,,,,w,1,0.3765,53,FALSE,TRUE,13,0,52,3,1,,,,,,,
,,,,,,0,2.12833791,#f3af84,,right_orange.png,p,,,,,,o,right_blue.png,right_orange.png,p,left,6104f5a9a8c67ea98c6b0af8,001,2021-08-01_11h32.33.441,arrow_simon_norep,2021.1.2,Win32,60.12144532,,,,,,,,,,,,,,,,,,,,,p,1,1.5898,54,FALSE,FALSE,13,1,53,0,1,,,,,,,
,,,,,,0,2.333702223,#a3d0fb,,left_blue.png,w,,,,,,w,left_blue.png,left_orange.png,q,right,6104f5a9a8c67ea98c6b0af8,001,2021-08-01_11h32.33.441,arrow_simon_norep,2021.1.2,Win32,60.12144532,,,,,,,,,,,,,,,,,,,,,w,1,1.6058,55,TRUE,FALSE,13,2,54,3,1,,,,,,,
,,,,,,0,2.45439459,#f3af84,,right_orange.png,p,,,,,,o,right_blue.png,right_orange.png,p,right,6104f5a9a8c67ea98c6b0af8,001,2021-08-01_11h32.33.441,arrow_simon_norep,2021.1.2,Win32,60.12144532,,,,,,,,,,,,,,,,,,,,,p,1,1.7449,56,TRUE,FALSE,13,3,55,1,1,,,,,,,
,,,,,,0,2.263522577,#a3d0fb,,right_blue.png,o,,,,,,o,right_blue.png,right_orange.png,p,right,6104f5a9a8c67ea98c6b0af8,001,2021-08-01_11h32.33.441,arrow_simon_norep,2021.1.2,Win32,60.12144532,,,,,,,,,,,,,,,,,,,,,p,0,1.7249,57,TRUE,FALSE,14,0,56,1,1,,,,,,,
,,,,,,0,2.274979726,#f3af84,,left_orange.png,q,,,,,,w,left_blue.png,left_orange.png,q,right,6104f5a9a8c67ea98c6b0af8,001,2021-08-01_11h32.33.441,arrow_simon_norep,2021.1.2,Win32,60.12144532,,,,,,,,,,,,,,,,,,,,,q,1,1.7369,58,TRUE,FALSE,14,1,57,3,1,,,,,,,
,,,,,,0,1.6431016,#a3d0fb,,right_blue.png,o,,,,,,o,right_blue.png,right_orange.png,p,left,6104f5a9a8c67ea98c6b0af8,001,2021-08-01_11h32.33.441,arrow_simon_norep,2021.1.2,Win32,60.12144532,,,,,,,,,,,,,,,,,,,,,w,0,1.0293,59,FALSE,TRUE,14,2,58,0,1,,,,,,,
,,,,,,0,2.0489254,#f3af84,,left_orange.png,q,,,,,,w,left_blue.png,left_orange.png,q,right,6104f5a9a8c67ea98c6b0af8,001,2021-08-01_11h32.33.441,arrow_simon_norep,2021.1.2,Win32,60.12144532,,,,,,,,,,,,,,,,,,,,,q,1,1.7505,60,TRUE,FALSE,14,3,59,3,1,,,,,,,
,,,,,,,,,,,,,,,,,,,,,,6104f5a9a8c67ea98c6b0af8,001,2021-08-01_11h32.33.441,arrow_simon_norep,2021.1.2,Win32,60.12144532,,,,,,,,,,,,,,,,,,,,,,,,,,,,,,,,space,37.1141,0,0,0,0,1
,,,,,,0,2.489997711,#a3d0fb,,left_blue.png,w,,,,,,w,left_blue.png,left_orange.png,q,left,6104f5a9a8c67ea98c6b0af8,001,2021-08-01_11h32.33.441,arrow_simon_norep,2021.1.2,Win32,60.12144532,,,,,,,,,,,,,,,,,,,,,o,0,1.8702,1,TRUE,FALSE,0,0,0,2,1,,,,,,,
,,,,,,0,2.071691524,#f3af84,,right_orange.png,p,,,,,,o,right_blue.png,right_orange.png,p,left,6104f5a9a8c67ea98c6b0af8,001,2021-08-01_11h32.33.441,arrow_simon_norep,2021.1.2,Win32,60.12144532,,,,,,,,,,,,,,,,,,,,,p,1,1.6455,2,TRUE,FALSE,0,1,1,0,1,,,,,,,
,,,,,,0,1.937475574,#a3d0fb,,right_blue.png,o,,,,,,o,right_blue.png,right_orange.png,p,left,6104f5a9a8c67ea98c6b0af8,001,2021-08-01_11h32.33.441,arrow_simon_norep,2021.1.2,Win32,60.12144532,,,,,,,,,,,,,,,,,,,,,o,1,1.5706,3,FALSE,FALSE,0,2,2,0,1,,,,,,,
,,,,,,0,2.186622045,#f3af84,,right_orange.png,p,,,,,,o,right_blue.png,right_orange.png,p,right,6104f5a9a8c67ea98c6b0af8,001,2021-08-01_11h32.33.441,arrow_simon_norep,2021.1.2,Win32,60.12144532,,,,,,,,,,,,,,,,,,,,,p,1,1.6187,4,TRUE,FALSE,0,3,3,1,1,,,,,,,
,,,,,,0,1.938400707,#a3d0fb,,right_blue.png,o,,,,,,o,right_blue.png,right_orange.png,p,right,6104f5a9a8c67ea98c6b0af8,001,2021-08-01_11h32.33.441,arrow_simon_norep,2021.1.2,Win32,60.12144532,,,,,,,,,,,,,,,,,,,,,o,1,1.5931,5,FALSE,FALSE,1,0,4,1,1,,,,,,,
,,,,,,0,1.700113052,#f3af84,,left_orange.png,q,,,,,,w,left_blue.png,left_orange.png,q,right,6104f5a9a8c67ea98c6b0af8,001,2021-08-01_11h32.33.441,arrow_simon_norep,2021.1.2,Win32,60.12144532,,,,,,,,,,,,,,,,,,,,,q,1,1.2499,6,FALSE,TRUE,1,1,5,3,1,,,,,,,
,,,,,,0,2.445503037,#a3d0fb,,left_blue.png,w,,,,,,w,left_blue.png,left_orange.png,q,right,6104f5a9a8c67ea98c6b0af8,001,2021-08-01_11h32.33.441,arrow_simon_norep,2021.1.2,Win32,60.12144532,,,,,,,,,,,,,,,,,,,,,w,1,1.8197,7,TRUE,FALSE,1,2,6,3,1,,,,,,,
,,,,,,0,2.262881352,#f3af84,,left_orange.png,q,,,,,,w,left_blue.png,left_orange.png,q,left,6104f5a9a8c67ea98c6b0af8,001,2021-08-01_11h32.33.441,arrow_simon_norep,2021.1.2,Win32,60.12144532,,,,,,,,,,,,,,,,,,,,,q,1,1.5737,8,FALSE,FALSE,1,3,7,2,1,,,,,,,
,,,,,,0,1.650488042,#a3d0fb,,right_blue.png,o,,,,,,o,right_blue.png,right_orange.png,p,right,6104f5a9a8c67ea98c6b0af8,001,2021-08-01_11h32.33.441,arrow_simon_norep,2021.1.2,Win32,60.12144532,,,,,,,,,,,,,,,,,,,,,o,1,1.2354,9,FALSE,TRUE,2,0,8,1,1,,,,,,,
,,,,,,0,2.470765623,#f3af84,,right_orange.png,p,,,,,,o,right_blue.png,right_orange.png,p,right,6104f5a9a8c67ea98c6b0af8,001,2021-08-01_11h32.33.441,arrow_simon_norep,2021.1.2,Win32,60.12144532,,,,,,,,,,,,,,,,,,,,,p,1,1.8464,10,TRUE,FALSE,2,1,9,1,1,,,,,,,
,,,,,,0,1.652122763,#a3d0fb,,right_blue.png,o,,,,,,o,right_blue.png,right_orange.png,p,right,6104f5a9a8c67ea98c6b0af8,001,2021-08-01_11h32.33.441,arrow_simon_norep,2021.1.2,Win32,60.12144532,,,,,,,,,,,,,,,,,,,,,o,1,1.1608,11,FALSE,TRUE,2,2,10,1,1,,,,,,,
,,,,,,0,2.439738536,#f3af84,,left_orange.png,q,,,,,,w,left_blue.png,left_orange.png,q,right,6104f5a9a8c67ea98c6b0af8,001,2021-08-01_11h32.33.441,arrow_simon_norep,2021.1.2,Win32,60.12144532,,,,,,,,,,,,,,,,,,,,,q,1,1.684,12,TRUE,FALSE,2,3,11,3,1,,,,,,,
,,,,,,0,2.107848234,#a3d0fb,,left_blue.png,w,,,,,,w,left_blue.png,left_orange.png,q,right,6104f5a9a8c67ea98c6b0af8,001,2021-08-01_11h32.33.441,arrow_simon_norep,2021.1.2,Win32,60.12144532,,,,,,,,,,,,,,,,,,,,,w,1,1.7208,13,TRUE,FALSE,3,0,12,3,1,,,,,,,
,,,,,,0,1.699982124,#f3af84,,left_orange.png,q,,,,,,w,left_blue.png,left_orange.png,q,right,6104f5a9a8c67ea98c6b0af8,001,2021-08-01_11h32.33.441,arrow_simon_norep,2021.1.2,Win32,60.12144532,,,,,,,,,,,,,,,,,,,,,w,0,1.137,14,FALSE,TRUE,3,1,13,3,1,,,,,,,
,,,,,,0,2.471622003,#a3d0fb,,right_blue.png,o,,,,,,o,right_blue.png,right_orange.png,p,left,6104f5a9a8c67ea98c6b0af8,001,2021-08-01_11h32.33.441,arrow_simon_norep,2021.1.2,Win32,60.12144532,,,,,,,,,,,,,,,,,,,,,o,1,1.9411,15,TRUE,FALSE,3,2,14,0,1,,,,,,,
,,,,,,0,1.542645461,#f3af84,,right_orange.png,p,,,,,,o,right_blue.png,right_orange.png,p,right,6104f5a9a8c67ea98c6b0af8,001,2021-08-01_11h32.33.441,arrow_simon_norep,2021.1.2,Win32,60.12144532,,,,,,,,,,,,,,,,,,,,,p,1,1.3234,16,FALSE,TRUE,3,3,15,1,1,,,,,,,
,,,,,,0,2.38227409,#a3d0fb,,right_blue.png,o,,,,,,o,right_blue.png,right_orange.png,p,left,6104f5a9a8c67ea98c6b0af8,001,2021-08-01_11h32.33.441,arrow_simon_norep,2021.1.2,Win32,60.12144532,,,,,,,,,,,,,,,,,,,,,o,1,1.8186,17,TRUE,FALSE,4,0,16,0,1,,,,,,,
,,,,,,0,1.598602468,#f3af84,,left_orange.png,q,,,,,,w,left_blue.png,left_orange.png,q,left,6104f5a9a8c67ea98c6b0af8,001,2021-08-01_11h32.33.441,arrow_simon_norep,2021.1.2,Win32,60.12144532,,,,,,,,,,,,,,,,,,,,,q,1,0.9171,18,FALSE,TRUE,4,1,17,2,1,,,,,,,
,,,,,,0,2.181686503,#a3d0fb,,left_blue.png,w,,,,,,w,left_blue.png,left_orange.png,q,left,6104f5a9a8c67ea98c6b0af8,001,2021-08-01_11h32.33.441,arrow_simon_norep,2021.1.2,Win32,60.12144532,,,,,,,,,,,,,,,,,,,,,w,1,1.4575,19,FALSE,FALSE,4,2,18,2,1,,,,,,,
,,,,,,0,2.08669782,#f3af84,,left_orange.png,q,,,,,,w,left_blue.png,left_orange.png,q,left,6104f5a9a8c67ea98c6b0af8,001,2021-08-01_11h32.33.441,arrow_simon_norep,2021.1.2,Win32,60.12144532,,,,,,,,,,,,,,,,,,,,,p,0,1.3958,20,FALSE,TRUE,4,3,19,2,1,,,,,,,
,,,,,,0,2.382922471,#a3d0fb,,right_blue.png,o,,,,,,o,right_blue.png,right_orange.png,p,left,6104f5a9a8c67ea98c6b0af8,001,2021-08-01_11h32.33.441,arrow_simon_norep,2021.1.2,Win32,60.12144532,,,,,,,,,,,,,,,,,,,,,o,1,1.5531,21,FALSE,FALSE,5,0,20,0,1,,,,,,,
,,,,,,0,2.43047758,#f3af84,,left_orange.png,q,,,,,,w,left_blue.png,left_orange.png,q,left,6104f5a9a8c67ea98c6b0af8,001,2021-08-01_11h32.33.441,arrow_simon_norep,2021.1.2,Win32,60.12144532,,,,,,,,,,,,,,,,,,,,,q,1,1.2026,22,FALSE,TRUE,5,1,21,2,1,,,,,,,
,,,,,,0,1.802318339,#a3d0fb,,left_blue.png,w,,,,,,w,left_blue.png,left_orange.png,q,left,6104f5a9a8c67ea98c6b0af8,001,2021-08-01_11h32.33.441,arrow_simon_norep,2021.1.2,Win32,60.12144532,,,,,,,,,,,,,,,,,,,,,o,0,1.1596,23,FALSE,TRUE,5,2,22,2,1,,,,,,,
,,,,,,0,1.588941233,#f3af84,,left_orange.png,q,,,,,,w,left_blue.png,left_orange.png,q,right,6104f5a9a8c67ea98c6b0af8,001,2021-08-01_11h32.33.441,arrow_simon_norep,2021.1.2,Win32,60.12144532,,,,,,,,,,,,,,,,,,,,,q,1,2.3383,24,TRUE,FALSE,5,3,23,3,1,,,,,,,
,,,,,,0,1.841311835,#a3d0fb,,right_blue.png,o,,,,,,o,right_blue.png,right_orange.png,p,left,6104f5a9a8c67ea98c6b0af8,001,2021-08-01_11h32.33.441,arrow_simon_norep,2021.1.2,Win32,60.12144532,,,,,,,,,,,,,,,,,,,,,w,0,1.6069,25,TRUE,FALSE,6,0,24,0,1,,,,,,,
,,,,,,1,2.22240464,#f3af84,,right_orange.png,p,,,,,,o,right_blue.png,right_orange.png,p,left,6104f5a9a8c67ea98c6b0af8,001,2021-08-01_11h32.33.441,arrow_simon_norep,2021.1.2,Win32,60.12144532,,,,,,,,,,,,,,,,,,,,,q,0,1.5501,26,FALSE,FALSE,6,1,25,0,1,,,,,,,
,,,,,,1,1.995409536,#a3d0fb,,left_blue.png,w,,,,,,w,left_blue.png,left_orange.png,q,left,6104f5a9a8c67ea98c6b0af8,001,2021-08-01_11h32.33.441,arrow_simon_norep,2021.1.2,Win32,60.12144532,,,,,,,,,,,,,,,,,,,,,w,1,1.2913,27,FALSE,TRUE,6,2,26,2,1,,,,,,,
,,,,,,1,2.481693568,#f3af84,,right_orange.png,p,,,,,,o,right_blue.png,right_orange.png,p,left,6104f5a9a8c67ea98c6b0af8,001,2021-08-01_11h32.33.441,arrow_simon_norep,2021.1.2,Win32,60.12144532,,,,,,,,,,,,,,,,,,,,,q,0,1.1668,28,FALSE,TRUE,6,3,27,0,1,,,,,,,
,,,,,,1,1.634701276,#a3d0fb,,right_blue.png,o,,,,,,o,right_blue.png,right_orange.png,p,right,6104f5a9a8c67ea98c6b0af8,001,2021-08-01_11h32.33.441,arrow_simon_norep,2021.1.2,Win32,60.12144532,,,,,,,,,,,,,,,,,,,,,o,1,1.1731,29,FALSE,TRUE,7,0,28,1,1,,,,,,,
,,,,,,1,2.273192747,#f3af84,,left_orange.png,q,,,,,,w,left_blue.png,left_orange.png,q,right,6104f5a9a8c67ea98c6b0af8,001,2021-08-01_11h32.33.441,arrow_simon_norep,2021.1.2,Win32,60.12144532,,,,,,,,,,,,,,,,,,,,,q,1,1.6721,30,TRUE,FALSE,7,1,29,3,1,,,,,,,
,,,,,,1,1.527926092,#a3d0fb,,left_blue.png,w,,,,,,w,left_blue.png,left_orange.png,q,left,6104f5a9a8c67ea98c6b0af8,001,2021-08-01_11h32.33.441,arrow_simon_norep,2021.1.2,Win32,60.12144532,,,,,,,,,,,,,,,,,,,,,w,1,0.8357,31,FALSE,TRUE,7,2,30,2,1,,,,,,,
,,,,,,1,2.490338385,#f3af84,,left_orange.png,q,,,,,,w,left_blue.png,left_orange.png,q,right,6104f5a9a8c67ea98c6b0af8,001,2021-08-01_11h32.33.441,arrow_simon_norep,2021.1.2,Win32,60.12144532,,,,,,,,,,,,,,,,,,,,,q,1,1.8784,32,TRUE,FALSE,7,3,31,3,1,,,,,,,
,,,,,,1,1.690116012,#a3d0fb,,left_blue.png,w,,,,,,w,left_blue.png,left_orange.png,q,right,6104f5a9a8c67ea98c6b0af8,001,2021-08-01_11h32.33.441,arrow_simon_norep,2021.1.2,Win32,60.12144532,,,,,,,,,,,,,,,,,,,,,o,0,1.1878,33,FALSE,TRUE,8,0,32,3,1,,,,,,,
,,,,,,0,2.151777752,#f3af84,,left_orange.png,q,,,,,,w,left_blue.png,left_orange.png,q,right,6104f5a9a8c67ea98c6b0af8,001,2021-08-01_11h32.33.441,arrow_simon_norep,2021.1.2,Win32,60.12144532,,,,,,,,,,,,,,,,,,,,,q,1,1.5681,34,FALSE,FALSE,8,1,33,3,1,,,,,,,
,,,,,,0,1.989104789,#a3d0fb,,right_blue.png,o,,,,,,o,right_blue.png,right_orange.png,p,right,6104f5a9a8c67ea98c6b0af8,001,2021-08-01_11h32.33.441,arrow_simon_norep,2021.1.2,Win32,60.12144532,,,,,,,,,,,,,,,,,,,,,o,1,1.7129,35,TRUE,FALSE,8,2,34,1,1,,,,,,,
,,,,,,0,1.624002435,#f3af84,,left_orange.png,q,,,,,,w,left_blue.png,left_orange.png,q,right,6104f5a9a8c67ea98c6b0af8,001,2021-08-01_11h32.33.441,arrow_simon_norep,2021.1.2,Win32,60.12144532,,,,,,,,,,,,,,,,,,,,,q,1,1.2848,36,FALSE,TRUE,8,3,35,3,1,,,,,,,
,,,,,,0,1.864368616,#a3d0fb,,left_blue.png,w,,,,,,w,left_blue.png,left_orange.png,q,right,6104f5a9a8c67ea98c6b0af8,001,2021-08-01_11h32.33.441,arrow_simon_norep,2021.1.2,Win32,60.12144532,,,,,,,,,,,,,,,,,,,,,w,1,1.6433,37,TRUE,FALSE,9,0,36,3,1,,,,,,,
,,,,,,0,1.899066745,#f3af84,,left_orange.png,q,,,,,,w,left_blue.png,left_orange.png,q,right,6104f5a9a8c67ea98c6b0af8,001,2021-08-01_11h32.33.441,arrow_simon_norep,2021.1.2,Win32,60.12144532,,,,,,,,,,,,,,,,,,,,,q,1,1.2754,38,FALSE,TRUE,9,1,37,3,1,,,,,,,
,,,,,,0,2.111980928,#a3d0fb,,right_blue.png,o,,,,,,o,right_blue.png,right_orange.png,p,right,6104f5a9a8c67ea98c6b0af8,001,2021-08-01_11h32.33.441,arrow_simon_norep,2021.1.2,Win32,60.12144532,,,,,,,,,,,,,,,,,,,,,o,1,1.728,39,TRUE,FALSE,9,2,38,1,1,,,,,,,
,,,,,,0,1.827055848,#f3af84,,right_orange.png,p,,,,,,o,right_blue.png,right_orange.png,p,left,6104f5a9a8c67ea98c6b0af8,001,2021-08-01_11h32.33.441,arrow_simon_norep,2021.1.2,Win32,60.12144532,,,,,,,,,,,,,,,,,,,,,p,1,1.977,40,TRUE,FALSE,9,3,39,0,1,,,,,,,
,,,,,,1,2.231587854,#a3d0fb,,right_blue.png,o,,,,,,o,right_blue.png,right_orange.png,p,left,6104f5a9a8c67ea98c6b0af8,001,2021-08-01_11h32.33.441,arrow_simon_norep,2021.1.2,Win32,60.12144532,,,,,,,,,,,,,,,,,,,,,w,0,1.5,41,FALSE,FALSE,10,0,40,0,1,,,,,,,
,,,,,,1,2.233971951,#f3af84,,left_orange.png,q,,,,,,w,left_blue.png,left_orange.png,q,right,6104f5a9a8c67ea98c6b0af8,001,2021-08-01_11h32.33.441,arrow_simon_norep,2021.1.2,Win32,60.12144532,,,,,,,,,,,,,,,,,,,,,w,0,1.5765,42,FALSE,FALSE,10,1,41,3,1,,,,,,,
,,,,,,1,1.505909193,#a3d0fb,,right_blue.png,o,,,,,,o,right_blue.png,right_orange.png,p,left,6104f5a9a8c67ea98c6b0af8,001,2021-08-01_11h32.33.441,arrow_simon_norep,2021.1.2,Win32,60.12144532,,,,,,,,,,,,,,,,,,,,,o,1,1.2451,43,FALSE,TRUE,10,2,42,0,1,,,,,,,
,,,,,,0,2.171346074,#f3af84,,right_orange.png,p,,,,,,o,right_blue.png,right_orange.png,p,right,6104f5a9a8c67ea98c6b0af8,001,2021-08-01_11h32.33.441,arrow_simon_norep,2021.1.2,Win32,60.12144532,,,,,,,,,,,,,,,,,,,,,p,1,1.5503,44,FALSE,FALSE,10,3,43,1,1,,,,,,,
,,,,,,0,2.008967022,#a3d0fb,,right_blue.png,o,,,,,,o,right_blue.png,right_orange.png,p,right,6104f5a9a8c67ea98c6b0af8,001,2021-08-01_11h32.33.441,arrow_simon_norep,2021.1.2,Win32,60.12144532,,,,,,,,,,,,,,,,,,,,,o,1,1.7885,45,TRUE,FALSE,11,0,44,1,1,,,,,,,
,,,,,,0,1.790616732,#f3af84,,left_orange.png,q,,,,,,w,left_blue.png,left_orange.png,q,left,6104f5a9a8c67ea98c6b0af8,001,2021-08-01_11h32.33.441,arrow_simon_norep,2021.1.2,Win32,60.12144532,,,,,,,,,,,,,,,,,,,,,q,1,1.1599,46,FALSE,TRUE,11,1,45,2,1,,,,,,,
,,,,,,0,2.091238392,#a3d0fb,,right_blue.png,o,,,,,,o,right_blue.png,right_orange.png,p,right,6104f5a9a8c67ea98c6b0af8,001,2021-08-01_11h32.33.441,arrow_simon_norep,2021.1.2,Win32,60.12144532,,,,,,,,,,,,,,,,,,,,,o,1,1.8763,47,TRUE,FALSE,11,2,46,1,1,,,,,,,
,,,,,,0,2.419073298,#f3af84,,right_orange.png,p,,,,,,o,right_blue.png,right_orange.png,p,right,6104f5a9a8c67ea98c6b0af8,001,2021-08-01_11h32.33.441,arrow_simon_norep,2021.1.2,Win32,60.12144532,,,,,,,,,,,,,,,,,,,,,p,1,1.8675,48,TRUE,FALSE,11,3,47,1,1,,,,,,,
,,,,,,0,1.942558042,#a3d0fb,,left_blue.png,w,,,,,,w,left_blue.png,left_orange.png,q,left,6104f5a9a8c67ea98c6b0af8,001,2021-08-01_11h32.33.441,arrow_simon_norep,2021.1.2,Win32,60.12144532,,,,,,,,,,,,,,,,,,,,,w,1,1.3395,49,FALSE,TRUE,12,0,48,2,1,,,,,,,
,,,,,,0,2.193388807,#f3af84,,left_orange.png,q,,,,,,w,left_blue.png,left_orange.png,q,left,6104f5a9a8c67ea98c6b0af8,001,2021-08-01_11h32.33.441,arrow_simon_norep,2021.1.2,Win32,60.12144532,,,,,,,,,,,,,,,,,,,,,q,1,1.5335,50,FALSE,FALSE,12,1,49,2,1,,,,,,,
,,,,,,0,1.509086887,#a3d0fb,,left_blue.png,w,,,,,,w,left_blue.png,left_orange.png,q,left,6104f5a9a8c67ea98c6b0af8,001,2021-08-01_11h32.33.441,arrow_simon_norep,2021.1.2,Win32,60.12144532,,,,,,,,,,,,,,,,,,,,,w,1,1.5544,51,FALSE,FALSE,12,2,50,2,1,,,,,,,
,,,,,,1,2.29477993,#f3af84,,left_orange.png,q,,,,,,w,left_blue.png,left_orange.png,q,right,6104f5a9a8c67ea98c6b0af8,001,2021-08-01_11h32.33.441,arrow_simon_norep,2021.1.2,Win32,60.12144532,,,,,,,,,,,,,,,,,,,,,p,0,1.5842,52,FALSE,FALSE,12,3,51,3,1,,,,,,,
,,,,,,1,2.419486564,#a3d0fb,,right_blue.png,o,,,,,,o,right_blue.png,right_orange.png,p,right,6104f5a9a8c67ea98c6b0af8,001,2021-08-01_11h32.33.441,arrow_simon_norep,2021.1.2,Win32,60.12144532,,,,,,,,,,,,,,,,,,,,,o,1,1.8246,53,TRUE,FALSE,13,0,52,1,1,,,,,,,
,,,,,,1,2.022443826,#f3af84,,right_orange.png,p,,,,,,o,right_blue.png,right_orange.png,p,left,6104f5a9a8c67ea98c6b0af8,001,2021-08-01_11h32.33.441,arrow_simon_norep,2021.1.2,Win32,60.12144532,,,,,,,,,,,,,,,,,,,,,q,0,1.3787,54,FALSE,TRUE,13,1,53,0,1,,,,,,,
,,,,,,1,2.287402469,#a3d0fb,,left_blue.png,w,,,,,,w,left_blue.png,left_orange.png,q,left,6104f5a9a8c67ea98c6b0af8,001,2021-08-01_11h32.33.441,arrow_simon_norep,2021.1.2,Win32,60.12144532,,,,,,,,,,,,,,,,,,,,,o,0,1.5792,55,FALSE,FALSE,13,2,54,2,1,,,,,,,
,,,,,,1,1.732143906,#f3af84,,left_orange.png,q,,,,,,w,left_blue.png,left_orange.png,q,left,6104f5a9a8c67ea98c6b0af8,001,2021-08-01_11h32.33.441,arrow_simon_norep,2021.1.2,Win32,60.12144532,,,,,,,,,,,,,,,,,,,,,q,1,1.6606,56,TRUE,FALSE,13,3,55,2,1,,,,,,,
,,,,,,1,2.065422454,#a3d0fb,,right_blue.png,o,,,,,,o,right_blue.png,right_orange.png,p,left,6104f5a9a8c67ea98c6b0af8,001,2021-08-01_11h32.33.441,arrow_simon_norep,2021.1.2,Win32,60.12144532,,,,,,,,,,,,,,,,,,,,,w,0,1.4414,57,FALSE,FALSE,14,0,56,0,1,,,,,,,
,,,,,,1,1.586318001,#f3af84,,right_orange.png,p,,,,,,o,right_blue.png,right_orange.png,p,left,6104f5a9a8c67ea98c6b0af8,001,2021-08-01_11h32.33.441,arrow_simon_norep,2021.1.2,Win32,60.12144532,,,,,,,,,,,,,,,,,,,,,o,0,1.2227,58,FALSE,TRUE,14,1,57,0,1,,,,,,,
,,,,,,1,2.386265694,#a3d0fb,,right_blue.png,o,,,,,,o,right_blue.png,right_orange.png,p,left,6104f5a9a8c67ea98c6b0af8,001,2021-08-01_11h32.33.441,arrow_simon_norep,2021.1.2,Win32,60.12144532,,,,,,,,,,,,,,,,,,,,,o,1,1.8602,59,TRUE,FALSE,14,2,58,0,1,,,,,,,
,,,,,,1,1.623172593,#f3af84,,right_orange.png,p,,,,,,o,right_blue.png,right_orange.png,p,right,6104f5a9a8c67ea98c6b0af8,001,2021-08-01_11h32.33.441,arrow_simon_norep,2021.1.2,Win32,60.12144532,,,,,,,,,,,,,,,,,,,,,p,1,1.0529,60,FALSE,TRUE,14,3,59,1,1,,,,,,,
,,,,,,,,,,,,,,,,,,,,,,6104f5a9a8c67ea98c6b0af8,001,2021-08-01_11h32.33.441,arrow_simon_norep,2021.1.2,Win32,60.12144532,,,,,,,,,,,,,,,,,,,,,,,,,,,,,,,,space,9.3427,1,0,1,0,1
,,,,,,1,2.144292985,#a3d0fb,,right_blue.png,o,,,,,,o,right_blue.png,right_orange.png,p,left,6104f5a9a8c67ea98c6b0af8,001,2021-08-01_11h32.33.441,arrow_simon_norep,2021.1.2,Win32,60.12144532,,,,,,,,,,,,,,,,,,,,,w,0,1.5039,1,FALSE,FALSE,0,0,0,0,1,,,,,,,
,,,,,,1,1.552333577,#f3af84,,left_orange.png,q,,,,,,w,left_blue.png,left_orange.png,q,left,6104f5a9a8c67ea98c6b0af8,001,2021-08-01_11h32.33.441,arrow_simon_norep,2021.1.2,Win32,60.12144532,,,,,,,,,,,,,,,,,,,,,p,0,0.8502,2,FALSE,TRUE,0,1,1,2,1,,,,,,,
,,,,,,1,1.670345476,#a3d0fb,,left_blue.png,w,,,,,,w,left_blue.png,left_orange.png,q,right,6104f5a9a8c67ea98c6b0af8,001,2021-08-01_11h32.33.441,arrow_simon_norep,2021.1.2,Win32,60.12144532,,,,,,,,,,,,,,,,,,,,,o,0,1.017,3,FALSE,TRUE,0,2,2,3,1,,,,,,,
,,,,,,1,1.60069179,#f3af84,,right_orange.png,p,,,,,,o,right_blue.png,right_orange.png,p,right,6104f5a9a8c67ea98c6b0af8,001,2021-08-01_11h32.33.441,arrow_simon_norep,2021.1.2,Win32,60.12144532,,,,,,,,,,,,,,,,,,,,,p,1,1.7519,4,TRUE,FALSE,0,3,3,1,1,,,,,,,
,,,,,,1,2.111724079,#a3d0fb,,right_blue.png,o,,,,,,o,right_blue.png,right_orange.png,p,left,6104f5a9a8c67ea98c6b0af8,001,2021-08-01_11h32.33.441,arrow_simon_norep,2021.1.2,Win32,60.12144532,,,,,,,,,,,,,,,,,,,,,w,0,1.3337,5,FALSE,TRUE,1,0,4,0,1,,,,,,,
,,,,,,1,1.622967872,#f3af84,,left_orange.png,q,,,,,,w,left_blue.png,left_orange.png,q,right,6104f5a9a8c67ea98c6b0af8,001,2021-08-01_11h32.33.441,arrow_simon_norep,2021.1.2,Win32,60.12144532,,,,,,,,,,,,,,,,,,,,,q,1,1.8242,6,TRUE,FALSE,1,1,5,3,1,,,,,,,
,,,,,,1,2.434965084,#a3d0fb,,left_blue.png,w,,,,,,w,left_blue.png,left_orange.png,q,left,6104f5a9a8c67ea98c6b0af8,001,2021-08-01_11h32.33.441,arrow_simon_norep,2021.1.2,Win32,60.12144532,,,,,,,,,,,,,,,,,,,,,o,0,1.7394,7,TRUE,FALSE,1,2,6,2,1,,,,,,,
,,,,,,1,2.293996933,#f3af84,,right_orange.png,p,,,,,,o,right_blue.png,right_orange.png,p,right,6104f5a9a8c67ea98c6b0af8,001,2021-08-01_11h32.33.441,arrow_simon_norep,2021.1.2,Win32,60.12144532,,,,,,,,,,,,,,,,,,,,,p,1,1.0776,8,FALSE,TRUE,1,3,7,1,1,,,,,,,
,,,,,,1,1.927196528,#a3d0fb,,right_blue.png,o,,,,,,o,right_blue.png,right_orange.png,p,right,6104f5a9a8c67ea98c6b0af8,001,2021-08-01_11h32.33.441,arrow_simon_norep,2021.1.2,Win32,60.12144532,,,,,,,,,,,,,,,,,,,,,p,0,1.642,9,TRUE,FALSE,2,0,8,1,1,,,,,,,
,,,,,,1,2.016796625,#f3af84,,left_orange.png,q,,,,,,w,left_blue.png,left_orange.png,q,left,6104f5a9a8c67ea98c6b0af8,001,2021-08-01_11h32.33.441,arrow_simon_norep,2021.1.2,Win32,60.12144532,,,,,,,,,,,,,,,,,,,,,q,1,1.3181,10,FALSE,TRUE,2,1,9,2,1,,,,,,,
,,,,,,1,1.800935498,#a3d0fb,,right_blue.png,o,,,,,,o,right_blue.png,right_orange.png,p,right,6104f5a9a8c67ea98c6b0af8,001,2021-08-01_11h32.33.441,arrow_simon_norep,2021.1.2,Win32,60.12144532,,,,,,,,,,,,,,,,,,,,,o,1,1.8696,11,TRUE,FALSE,2,2,10,1,1,,,,,,,
,,,,,,1,2.285656018,#f3af84,,right_orange.png,p,,,,,,o,right_blue.png,right_orange.png,p,left,6104f5a9a8c67ea98c6b0af8,001,2021-08-01_11h32.33.441,arrow_simon_norep,2021.1.2,Win32,60.12144532,,,,,,,,,,,,,,,,,,,,,q,0,1.8214,12,TRUE,FALSE,2,3,11,0,1,,,,,,,
,,,,,,1,1.620585845,#a3d0fb,,right_blue.png,o,,,,,,o,right_blue.png,right_orange.png,p,left,6104f5a9a8c67ea98c6b0af8,001,2021-08-01_11h32.33.441,arrow_simon_norep,2021.1.2,Win32,60.12144532,,,,,,,,,,,,,,,,,,,,,w,0,1.137,13,FALSE,TRUE,3,0,12,0,1,,,,,,,
,,,,,,1,2.400701109,#f3af84,,left_orange.png,q,,,,,,w,left_blue.png,left_orange.png,q,right,6104f5a9a8c67ea98c6b0af8,001,2021-08-01_11h32.33.441,arrow_simon_norep,2021.1.2,Win32,60.12144532,,,,,,,,,,,,,,,,,,,,,q,1,1.6368,14,TRUE,FALSE,3,1,13,3,1,,,,,,,
,,,,,,1,2.100246303,#a3d0fb,,left_blue.png,w,,,,,,w,left_blue.png,left_orange.png,q,right,6104f5a9a8c67ea98c6b0af8,001,2021-08-01_11h32.33.441,arrow_simon_norep,2021.1.2,Win32,60.12144532,,,,,,,,,,,,,,,,,,,,,w,1,1.2344,15,FALSE,TRUE,3,2,14,3,1,,,,,,,
,,,,,,1,2.135793149,#f3af84,,right_orange.png,p,,,,,,o,right_blue.png,right_orange.png,p,left,6104f5a9a8c67ea98c6b0af8,001,2021-08-01_11h32.33.441,arrow_simon_norep,2021.1.2,Win32,60.12144532,,,,,,,,,,,,,,,,,,,,,q,0,1.2167,16,FALSE,TRUE,3,3,15,0,1,,,,,,,
,,,,,,1,2.382437004,#a3d0fb,,left_blue.png,w,,,,,,w,left_blue.png,left_orange.png,q,right,6104f5a9a8c67ea98c6b0af8,001,2021-08-01_11h32.33.441,arrow_simon_norep,2021.1.2,Win32,60.12144532,,,,,,,,,,,,,,,,,,,,,o,0,1.5781,17,FALSE,FALSE,4,0,16,3,1,,,,,,,
,,,,,,1,2.233311409,#f3af84,,left_orange.png,q,,,,,,w,left_blue.png,left_orange.png,q,left,6104f5a9a8c67ea98c6b0af8,001,2021-08-01_11h32.33.441,arrow_simon_norep,2021.1.2,Win32,60.12144532,,,,,,,,,,,,,,,,,,,,,q,1,1.2178,18,FALSE,TRUE,4,1,17,2,1,,,,,,,
,,,,,,1,2.433803806,#a3d0fb,,right_blue.png,o,,,,,,o,right_blue.png,right_orange.png,p,right,6104f5a9a8c67ea98c6b0af8,001,2021-08-01_11h32.33.441,arrow_simon_norep,2021.1.2,Win32,60.12144532,,,,,,,,,,,,,,,,,,,,,p,0,1.7721,19,TRUE,FALSE,4,2,18,1,1,,,,,,,
,,,,,,1,2.48224545,#f3af84,,right_orange.png,p,,,,,,o,right_blue.png,right_orange.png,p,right,6104f5a9a8c67ea98c6b0af8,001,2021-08-01_11h32.33.441,arrow_simon_norep,2021.1.2,Win32,60.12144532,,,,,,,,,,,,,,,,,,,,,q,0,1.7297,20,TRUE,FALSE,4,3,19,1,1,,,,,,,
,,,,,,1,1.950359426,#a3d0fb,,right_blue.png,o,,,,,,o,right_blue.png,right_orange.png,p,left,6104f5a9a8c67ea98c6b0af8,001,2021-08-01_11h32.33.441,arrow_simon_norep,2021.1.2,Win32,60.12144532,,,,,,,,,,,,,,,,,,,,,o,1,1.0446,21,FALSE,TRUE,5,0,20,0,1,,,,,,,
,,,,,,0,2.195352588,#f3af84,,left_orange.png,q,,,,,,w,left_blue.png,left_orange.png,q,left,6104f5a9a8c67ea98c6b0af8,001,2021-08-01_11h32.33.441,arrow_simon_norep,2021.1.2,Win32,60.12144532,,,,,,,,,,,,,,,,,,,,,q,1,1.496,22,FALSE,FALSE,5,1,21,2,1,,,,,,,
,,,,,,1,2.479286622,#a3d0fb,,left_blue.png,w,,,,,,w,left_blue.png,left_orange.png,q,left,6104f5a9a8c67ea98c6b0af8,001,2021-08-01_11h32.33.441,arrow_simon_norep,2021.1.2,Win32,60.12144532,,,,,,,,,,,,,,,,,,,,,o,0,1.5797,23,FALSE,FALSE,5,2,22,2,1,,,,,,,
,,,,,,1,1.521289721,#f3af84,,right_orange.png,p,,,,,,o,right_blue.png,right_orange.png,p,right,6104f5a9a8c67ea98c6b0af8,001,2021-08-01_11h32.33.441,arrow_simon_norep,2021.1.2,Win32,60.12144532,,,,,,,,,,,,,,,,,,,,,p,1,0.9375,24,FALSE,TRUE,5,3,23,1,1,,,,,,,
,,,,,,0,1.732716934,#a3d0fb,,right_blue.png,o,,,,,,o,right_blue.png,right_orange.png,p,right,6104f5a9a8c67ea98c6b0af8,001,2021-08-01_11h32.33.441,arrow_simon_norep,2021.1.2,Win32,60.12144532,,,,,,,,,,,,,,,,,,,,,o,1,1.4892,25,FALSE,FALSE,6,0,24,1,1,,,,,,,
,,,,,,0,2.413805469,#f3af84,,left_orange.png,q,,,,,,w,left_blue.png,left_orange.png,q,right,6104f5a9a8c67ea98c6b0af8,001,2021-08-01_11h32.33.441,arrow_simon_norep,2021.1.2,Win32,60.12144532,,,,,,,,,,,,,,,,,,,,,q,1,1.7846,26,TRUE,FALSE,6,1,25,3,1,,,,,,,
,,,,,,0,2.394307911,#a3d0fb,,left_blue.png,w,,,,,,w,left_blue.png,left_orange.png,q,left,6104f5a9a8c67ea98c6b0af8,001,2021-08-01_11h32.33.441,arrow_simon_norep,2021.1.2,Win32,60.12144532,,,,,,,,,,,,,,,,,,,,,w,1,1.9409,27,TRUE,FALSE,6,2,26,2,1,,,,,,,
,,,,,,0,1.533794939,#f3af84,,left_orange.png,q,,,,,,w,left_blue.png,left_orange.png,q,right,6104f5a9a8c67ea98c6b0af8,001,2021-08-01_11h32.33.441,arrow_simon_norep,2021.1.2,Win32,60.12144532,,,,,,,,,,,,,,,,,,,,,q,1,1.1547,28,FALSE,TRUE,6,3,27,3,1,,,,,,,
,,,,,,0,2.346789227,#a3d0fb,,right_blue.png,o,,,,,,o,right_blue.png,right_orange.png,p,right,6104f5a9a8c67ea98c6b0af8,001,2021-08-01_11h32.33.441,arrow_simon_norep,2021.1.2,Win32,60.12144532,,,,,,,,,,,,,,,,,,,,,o,1,1.6339,29,TRUE,FALSE,7,0,28,1,1,,,,,,,
,,,,,,0,2.436984362,#f3af84,,left_orange.png,q,,,,,,w,left_blue.png,left_orange.png,q,left,6104f5a9a8c67ea98c6b0af8,001,2021-08-01_11h32.33.441,arrow_simon_norep,2021.1.2,Win32,60.12144532,,,,,,,,,,,,,,,,,,,,,q,1,1.8229,30,TRUE,FALSE,7,1,29,2,1,,,,,,,
,,,,,,0,1.842949088,#a3d0fb,,left_blue.png,w,,,,,,w,left_blue.png,left_orange.png,q,right,6104f5a9a8c67ea98c6b0af8,001,2021-08-01_11h32.33.441,arrow_simon_norep,2021.1.2,Win32,60.12144532,,,,,,,,,,,,,,,,,,,,,o,0,1.8366,31,TRUE,FALSE,7,2,30,3,1,,,,,,,
,,,,,,0,1.581646592,#f3af84,,left_orange.png,q,,,,,,w,left_blue.png,left_orange.png,q,left,6104f5a9a8c67ea98c6b0af8,001,2021-08-01_11h32.33.441,arrow_simon_norep,2021.1.2,Win32,60.12144532,,,,,,,,,,,,,,,,,,,,,q,1,0.9677,32,FALSE,TRUE,7,3,31,2,1,,,,,,,
,,,,,,0,1.971922722,#a3d0fb,,right_blue.png,o,,,,,,o,right_blue.png,right_orange.png,p,right,6104f5a9a8c67ea98c6b0af8,001,2021-08-01_11h32.33.441,arrow_simon_norep,2021.1.2,Win32,60.12144532,,,,,,,,,,,,,,,,,,,,,o,1,1.3663,33,FALSE,TRUE,8,0,32,1,1,,,,,,,
,,,,,,0,2.485716247,#f3af84,,left_orange.png,q,,,,,,w,left_blue.png,left_orange.png,q,right,6104f5a9a8c67ea98c6b0af8,001,2021-08-01_11h32.33.441,arrow_simon_norep,2021.1.2,Win32,60.12144532,,,,,,,,,,,,,,,,,,,,,q,1,1.8852,34,TRUE,FALSE,8,1,33,3,1,,,,,,,
,,,,,,0,1.549493942,#a3d0fb,,left_blue.png,w,,,,,,w,left_blue.png,left_orange.png,q,left,6104f5a9a8c67ea98c6b0af8,001,2021-08-01_11h32.33.441,arrow_simon_norep,2021.1.2,Win32,60.12144532,,,,,,,,,,,,,,,,,,,,,w,1,1.6332,35,TRUE,FALSE,8,2,34,2,1,,,,,,,
,,,,,,0,2.405394665,#f3af84,,left_orange.png,q,,,,,,w,left_blue.png,left_orange.png,q,right,6104f5a9a8c67ea98c6b0af8,001,2021-08-01_11h32.33.441,arrow_simon_norep,2021.1.2,Win32,60.12144532,,,,,,,,,,,,,,,,,,,,,q,1,1.8295,36,TRUE,FALSE,8,3,35,3,1,,,,,,,
,,,,,,0,2.424682051,#a3d0fb,,right_blue.png,o,,,,,,o,right_blue.png,right_orange.png,p,left,6104f5a9a8c67ea98c6b0af8,001,2021-08-01_11h32.33.441,arrow_simon_norep,2021.1.2,Win32,60.12144532,,,,,,,,,,,,,,,,,,,,,p,0,1.9922,37,TRUE,FALSE,9,0,36,0,1,,,,,,,
,,,,,,0,2.260473725,#f3af84,,right_orange.png,p,,,,,,o,right_blue.png,right_orange.png,p,left,6104f5a9a8c67ea98c6b0af8,001,2021-08-01_11h32.33.441,arrow_simon_norep,2021.1.2,Win32,60.12144532,,,,,,,,,,,,,,,,,,,,,p,1,1.7926,38,TRUE,FALSE,9,1,37,0,1,,,,,,,
,,,,,,0,1.579370915,#a3d0fb,,right_blue.png,o,,,,,,o,right_blue.png,right_orange.png,p,left,6104f5a9a8c67ea98c6b0af8,001,2021-08-01_11h32.33.441,arrow_simon_norep,2021.1.2,Win32,60.12144532,,,,,,,,,,,,,,,,,,,,,o,1,1.2925,39,FALSE,TRUE,9,2,38,0,1,,,,,,,
,,,,,,0,2.12780388,#f3af84,,left_orange.png,q,,,,,,w,left_blue.png,left_orange.png,q,right,6104f5a9a8c67ea98c6b0af8,001,2021-08-01_11h32.33.441,arrow_simon_norep,2021.1.2,Win32,60.12144532,,,,,,,,,,,,,,,,,,,,,q,1,1.7541,40,TRUE,FALSE,9,3,39,3,1,,,,,,,
,,,,,,0,1.842718824,#a3d0fb,,right_blue.png,o,,,,,,o,right_blue.png,right_orange.png,p,left,6104f5a9a8c67ea98c6b0af8,001,2021-08-01_11h32.33.441,arrow_simon_norep,2021.1.2,Win32,60.12144532,,,,,,,,,,,,,,,,,,,,,w,0,1.2272,41,FALSE,TRUE,10,0,40,0,1,,,,,,,
,,,,,,0,1.894755233,#f3af84,,left_orange.png,q,,,,,,w,left_blue.png,left_orange.png,q,right,6104f5a9a8c67ea98c6b0af8,001,2021-08-01_11h32.33.441,arrow_simon_norep,2021.1.2,Win32,60.12144532,,,,,,,,,,,,,,,,,,,,,q,1,1.689,42,TRUE,FALSE,10,1,41,3,1,,,,,,,
,,,,,,0,2.15501786,#a3d0fb,,right_blue.png,o,,,,,,o,right_blue.png,right_orange.png,p,left,6104f5a9a8c67ea98c6b0af8,001,2021-08-01_11h32.33.441,arrow_simon_norep,2021.1.2,Win32,60.12144532,,,,,,,,,,,,,,,,,,,,,o,1,1.8529,43,TRUE,FALSE,10,2,42,0,1,,,,,,,
,,,,,,0,2.094581015,#f3af84,,left_orange.png,q,,,,,,w,left_blue.png,left_orange.png,q,right,6104f5a9a8c67ea98c6b0af8,001,2021-08-01_11h32.33.441,arrow_simon_norep,2021.1.2,Win32,60.12144532,,,,,,,,,,,,,,,,,,,,,q,1,1.5411,44,FALSE,FALSE,10,3,43,3,1,,,,,,,
,,,,,,0,2.287918351,#a3d0fb,,right_blue.png,o,,,,,,o,right_blue.png,right_orange.png,p,left,6104f5a9a8c67ea98c6b0af8,001,2021-08-01_11h32.33.441,arrow_simon_norep,2021.1.2,Win32,60.12144532,,,,,,,,,,,,,,,,,,,,,o,1,1.7285,45,TRUE,FALSE,11,0,44,0,1,,,,,,,
,,,,,,0,1.916784034,#f3af84,,left_orange.png,q,,,,,,w,left_blue.png,left_orange.png,q,left,6104f5a9a8c67ea98c6b0af8,001,2021-08-01_11h32.33.441,arrow_simon_norep,2021.1.2,Win32,60.12144532,,,,,,,,,,,,,,,,,,,,,q,1,1.6186,46,TRUE,FALSE,11,1,45,2,1,,,,,,,
,,,,,,1,1.692001285,#a3d0fb,,left_blue.png,w,,,,,,w,left_blue.png,left_orange.png,q,left,6104f5a9a8c67ea98c6b0af8,001,2021-08-01_11h32.33.441,arrow_simon_norep,2021.1.2,Win32,60.12144532,,,,,,,,,,,,,,,,,,,,,q,0,1.4958,47,FALSE,FALSE,11,2,46,2,1,,,,,,,
,,,,,,0,2.082168691,#f3af84,,left_orange.png,q,,,,,,w,left_blue.png,left_orange.png,q,left,6104f5a9a8c67ea98c6b0af8,001,2021-08-01_11h32.33.441,arrow_simon_norep,2021.1.2,Win32,60.12144532,,,,,,,,,,,,,,,,,,,,,q,1,1.4004,48,FALSE,FALSE,11,3,47,2,1,,,,,,,
,,,,,,0,2.054615118,#a3d0fb,,left_blue.png,w,,,,,,w,left_blue.png,left_orange.png,q,left,6104f5a9a8c67ea98c6b0af8,001,2021-08-01_11h32.33.441,arrow_simon_norep,2021.1.2,Win32,60.12144532,,,,,,,,,,,,,,,,,,,,,w,1,1.6835,49,TRUE,FALSE,12,0,48,2,1,,,,,,,
,,,,,,0,1.825578854,#f3af84,,right_orange.png,p,,,,,,o,right_blue.png,right_orange.png,p,right,6104f5a9a8c67ea98c6b0af8,001,2021-08-01_11h32.33.441,arrow_simon_norep,2021.1.2,Win32,60.12144532,,,,,,,,,,,,,,,,,,,,,p,1,1.4555,50,FALSE,FALSE,12,1,49,1,1,,,,,,,
,,,,,,0,2.084621969,#a3d0fb,,left_blue.png,w,,,,,,w,left_blue.png,left_orange.png,q,right,6104f5a9a8c67ea98c6b0af8,001,2021-08-01_11h32.33.441,arrow_simon_norep,2021.1.2,Win32,60.12144532,,,,,,,,,,,,,,,,,,,,,w,1,1.8346,51,TRUE,FALSE,12,2,50,3,1,,,,,,,
,,,,,,0,1.764135554,#f3af84,,right_orange.png,p,,,,,,o,right_blue.png,right_orange.png,p,left,6104f5a9a8c67ea98c6b0af8,001,2021-08-01_11h32.33.441,arrow_simon_norep,2021.1.2,Win32,60.12144532,,,,,,,,,,,,,,,,,,,,,p,1,1.2123,52,FALSE,TRUE,12,3,51,0,1,,,,,,,
,,,,,,0,1.550653139,#a3d0fb,,right_blue.png,o,,,,,,o,right_blue.png,right_orange.png,p,right,6104f5a9a8c67ea98c6b0af8,001,2021-08-01_11h32.33.441,arrow_simon_norep,2021.1.2,Win32,60.12144532,,,,,,,,,,,,,,,,,,,,,o,1,1.2957,53,FALSE,TRUE,13,0,52,1,1,,,,,,,
,,,,,,0,2.428155229,#f3af84,,right_orange.png,p,,,,,,o,right_blue.png,right_orange.png,p,left,6104f5a9a8c67ea98c6b0af8,001,2021-08-01_11h32.33.441,arrow_simon_norep,2021.1.2,Win32,60.12144532,,,,,,,,,,,,,,,,,,,,,p,1,2.1348,54,TRUE,FALSE,13,1,53,0,1,,,,,,,
,,,,,,0,1.525061657,#a3d0fb,,right_blue.png,o,,,,,,o,right_blue.png,right_orange.png,p,right,6104f5a9a8c67ea98c6b0af8,001,2021-08-01_11h32.33.441,arrow_simon_norep,2021.1.2,Win32,60.12144532,,,,,,,,,,,,,,,,,,,,,o,1,0.9368,55,FALSE,TRUE,13,2,54,1,1,,,,,,,
,,,,,,0,2.033072221,#f3af84,,right_orange.png,p,,,,,,o,right_blue.png,right_orange.png,p,right,6104f5a9a8c67ea98c6b0af8,001,2021-08-01_11h32.33.441,arrow_simon_norep,2021.1.2,Win32,60.12144532,,,,,,,,,,,,,,,,,,,,,p,1,1.6167,56,TRUE,FALSE,13,3,55,1,1,,,,,,,
,,,,,,0,2.32887178,#a3d0fb,,right_blue.png,o,,,,,,o,right_blue.png,right_orange.png,p,left,6104f5a9a8c67ea98c6b0af8,001,2021-08-01_11h32.33.441,arrow_simon_norep,2021.1.2,Win32,60.12144532,,,,,,,,,,,,,,,,,,,,,o,1,1.7752,57,TRUE,FALSE,14,0,56,0,1,,,,,,,
,,,,,,0,2.331265246,#f3af84,,left_orange.png,q,,,,,,w,left_blue.png,left_orange.png,q,left,6104f5a9a8c67ea98c6b0af8,001,2021-08-01_11h32.33.441,arrow_simon_norep,2021.1.2,Win32,60.12144532,,,,,,,,,,,,,,,,,,,,,q,1,1.6468,58,TRUE,FALSE,14,1,57,2,1,,,,,,,
,,,,,,0,1.685156411,#a3d0fb,,right_blue.png,o,,,,,,o,right_blue.png,right_orange.png,p,right,6104f5a9a8c67ea98c6b0af8,001,2021-08-01_11h32.33.441,arrow_simon_norep,2021.1.2,Win32,60.12144532,,,,,,,,,,,,,,,,,,,,,o,1,1.6275,59,TRUE,FALSE,14,2,58,1,1,,,,,,,
,,,,,,0,2.320510677,#f3af84,,left_orange.png,q,,,,,,w,left_blue.png,left_orange.png,q,right,6104f5a9a8c67ea98c6b0af8,001,2021-08-01_11h32.33.441,arrow_simon_norep,2021.1.2,Win32,60.12144532,,,,,,,,,,,,,,,,,,,,,q,1,1.8611,60,TRUE,FALSE,14,3,59,3,1,,,,,,,
,,,,,,,,,,,,,,,,,,,,,,6104f5a9a8c67ea98c6b0af8,001,2021-08-01_11h32.33.441,arrow_simon_norep,2021.1.2,Win32,60.12144532,,,,,,,,,,,,,,,,,,,,,,,,,,,,,,,,space,1.5292,2,0,2,0,1
,,,,,,0,2.312383915,#a3d0fb,,right_blue.png,o,,,,,,o,right_blue.png,right_orange.png,p,right,6104f5a9a8c67ea98c6b0af8,001,2021-08-01_11h32.33.441,arrow_simon_norep,2021.1.2,Win32,60.12144532,,,,,,,,,,,,,,,,,,,,,o,1,1.7802,1,TRUE,FALSE,0,0,0,1,1,,,,,,,
,,,,,,0,1.795528265,#f3af84,,left_orange.png,q,,,,,,w,left_blue.png,left_orange.png,q,left,6104f5a9a8c67ea98c6b0af8,001,2021-08-01_11h32.33.441,arrow_simon_norep,2021.1.2,Win32,60.12144532,,,,,,,,,,,,,,,,,,,,,q,1,1.1671,2,FALSE,TRUE,0,1,1,2,1,,,,,,,
,,,,,,0,1.666461625,#a3d0fb,,right_blue.png,o,,,,,,o,right_blue.png,right_orange.png,p,left,6104f5a9a8c67ea98c6b0af8,001,2021-08-01_11h32.33.441,arrow_simon_norep,2021.1.2,Win32,60.12144532,,,,,,,,,,,,,,,,,,,,,w,0,1.0338,3,FALSE,TRUE,0,2,2,0,1,,,,,,,
,,,,,,0,1.725916872,#f3af84,,left_orange.png,q,,,,,,w,left_blue.png,left_orange.png,q,right,6104f5a9a8c67ea98c6b0af8,001,2021-08-01_11h32.33.441,arrow_simon_norep,2021.1.2,Win32,60.12144532,,,,,,,,,,,,,,,,,,,,,q,1,1.1519,4,FALSE,TRUE,0,3,3,3,1,,,,,,,
,,,,,,0,1.812049689,#a3d0fb,,right_blue.png,o,,,,,,o,right_blue.png,right_orange.png,p,right,6104f5a9a8c67ea98c6b0af8,001,2021-08-01_11h32.33.441,arrow_simon_norep,2021.1.2,Win32,60.12144532,,,,,,,,,,,,,,,,,,,,,o,1,1.2018,5,FALSE,TRUE,1,0,4,1,1,,,,,,,
,,,,,,0,1.778771229,#f3af84,,right_orange.png,p,,,,,,o,right_blue.png,right_orange.png,p,left,6104f5a9a8c67ea98c6b0af8,001,2021-08-01_11h32.33.441,arrow_simon_norep,2021.1.2,Win32,60.12144532,,,,,,,,,,,,,,,,,,,,,p,1,1.6169,6,TRUE,FALSE,1,1,5,0,1,,,,,,,
,,,,,,0,2.23914964,#a3d0fb,,left_blue.png,w,,,,,,w,left_blue.png,left_orange.png,q,left,6104f5a9a8c67ea98c6b0af8,001,2021-08-01_11h32.33.441,arrow_simon_norep,2021.1.2,Win32,60.12144532,,,,,,,,,,,,,,,,,,,,,w,1,1.6361,7,TRUE,FALSE,1,2,6,2,1,,,,,,,
,,,,,,1,2.368172215,#f3af84,,left_orange.png,q,,,,,,w,left_blue.png,left_orange.png,q,right,6104f5a9a8c67ea98c6b0af8,001,2021-08-01_11h32.33.441,arrow_simon_norep,2021.1.2,Win32,60.12144532,,,,,,,,,,,,,,,,,,,,,p,0,1.4168,8,FALSE,FALSE,1,3,7,3,1,,,,,,,
,,,,,,1,1.798512379,#a3d0fb,,right_blue.png,o,,,,,,o,right_blue.png,right_orange.png,p,right,6104f5a9a8c67ea98c6b0af8,001,2021-08-01_11h32.33.441,arrow_simon_norep,2021.1.2,Win32,60.12144532,,,,,,,,,,,,,,,,,,,,,w,0,1.1372,9,FALSE,TRUE,2,0,8,1,1,,,,,,,
,,,,,,1,1.880647395,#f3af84,,right_orange.png,p,,,,,,o,right_blue.png,right_orange.png,p,left,6104f5a9a8c67ea98c6b0af8,001,2021-08-01_11h32.33.441,arrow_simon_norep,2021.1.2,Win32,60.12144532,,,,,,,,,,,,,,,,,,,,,p,1,1.7669,10,TRUE,FALSE,2,1,9,0,1,,,,,,,
,,,,,,1,1.918682024,#a3d0fb,,right_blue.png,o,,,,,,o,right_blue.png,right_orange.png,p,left,6104f5a9a8c67ea98c6b0af8,001,2021-08-01_11h32.33.441,arrow_simon_norep,2021.1.2,Win32,60.12144532,,,,,,,,,,,,,,,,,,,,,w,0,1.6054,11,TRUE,FALSE,2,2,10,0,1,,,,,,,
,,,,,,1,2.491077232,#f3af84,,right_orange.png,p,,,,,,o,right_blue.png,right_orange.png,p,left,6104f5a9a8c67ea98c6b0af8,001,2021-08-01_11h32.33.441,arrow_simon_norep,2021.1.2,Win32,60.12144532,,,,,,,,,,,,,,,,,,,,,p,1,1.7244,12,TRUE,FALSE,2,3,11,0,1,,,,,,,
,,,,,,1,2.275458029,#a3d0fb,,right_blue.png,o,,,,,,o,right_blue.png,right_orange.png,p,left,6104f5a9a8c67ea98c6b0af8,001,2021-08-01_11h32.33.441,arrow_simon_norep,2021.1.2,Win32,60.12144532,,,,,,,,,,,,,,,,,,,,,o,1,1.8452,13,TRUE,FALSE,3,0,12,0,1,,,,,,,
,,,,,,0,2.150407571,#f3af84,,right_orange.png,p,,,,,,o,right_blue.png,right_orange.png,p,right,6104f5a9a8c67ea98c6b0af8,001,2021-08-01_11h32.33.441,arrow_simon_norep,2021.1.2,Win32,60.12144532,,,,,,,,,,,,,,,,,,,,,p,1,1.5832,14,FALSE,FALSE,3,1,13,1,1,,,,,,,
,,,,,,0,1.911910078,#a3d0fb,,right_blue.png,o,,,,,,o,right_blue.png,right_orange.png,p,left,6104f5a9a8c67ea98c6b0af8,001,2021-08-01_11h32.33.441,arrow_simon_norep,2021.1.2,Win32,60.12144532,,,,,,,,,,,,,,,,,,,,,o,1,1.3392,15,FALSE,TRUE,3,2,14,0,1,,,,,,,
,,,,,,0,1.73739159,#f3af84,,left_orange.png,q,,,,,,w,left_blue.png,left_orange.png,q,left,6104f5a9a8c67ea98c6b0af8,001,2021-08-01_11h32.33.441,arrow_simon_norep,2021.1.2,Win32,60.12144532,,,,,,,,,,,,,,,,,,,,,q,1,1.6171,16,TRUE,FALSE,3,3,15,2,1,,,,,,,
,,,,,,0,2.451163506,#a3d0fb,,right_blue.png,o,,,,,,o,right_blue.png,right_orange.png,p,right,6104f5a9a8c67ea98c6b0af8,001,2021-08-01_11h32.33.441,arrow_simon_norep,2021.1.2,Win32,60.12144532,,,,,,,,,,,,,,,,,,,,,o,1,1.5829,17,FALSE,FALSE,4,0,16,1,1,,,,,,,
,,,,,,0,1.67341966,#f3af84,,right_orange.png,p,,,,,,o,right_blue.png,right_orange.png,p,left,6104f5a9a8c67ea98c6b0af8,001,2021-08-01_11h32.33.441,arrow_simon_norep,2021.1.2,Win32,60.12144532,,,,,,,,,,,,,,,,,,,,,p,1,1.4837,18,FALSE,FALSE,4,1,17,0,1,,,,,,,
,,,,,,1,2.084399807,#a3d0fb,,left_blue.png,w,,,,,,w,left_blue.png,left_orange.png,q,right,6104f5a9a8c67ea98c6b0af8,001,2021-08-01_11h32.33.441,arrow_simon_norep,2021.1.2,Win32,60.12144532,,,,,,,,,,,,,,,,,,,,,o,0,1.5001,19,FALSE,FALSE,4,2,18,3,1,,,,,,,
,,,,,,1,1.825430952,#f3af84,,right_orange.png,p,,,,,,o,right_blue.png,right_orange.png,p,left,6104f5a9a8c67ea98c6b0af8,001,2021-08-01_11h32.33.441,arrow_simon_norep,2021.1.2,Win32,60.12144532,,,,,,,,,,,,,,,,,,,,,p,1,1.9592,20,TRUE,FALSE,4,3,19,0,1,,,,,,,
,,,,,,1,2.454798645,#a3d0fb,,right_blue.png,o,,,,,,o,right_blue.png,right_orange.png,p,right,6104f5a9a8c67ea98c6b0af8,001,2021-08-01_11h32.33.441,arrow_simon_norep,2021.1.2,Win32,60.12144532,,,,,,,,,,,,,,,,,,,,,w,0,1.55,21,FALSE,FALSE,5,0,20,1,1,,,,,,,
,,,,,,1,1.79759709,#f3af84,,left_orange.png,q,,,,,,w,left_blue.png,left_orange.png,q,left,6104f5a9a8c67ea98c6b0af8,001,2021-08-01_11h32.33.441,arrow_simon_norep,2021.1.2,Win32,60.12144532,,,,,,,,,,,,,,,,,,,,,p,0,0.9671,22,FALSE,TRUE,5,1,21,2,1,,,,,,,
,,,,,,0,2.481808864,#a3d0fb,,right_blue.png,o,,,,,,o,right_blue.png,right_orange.png,p,right,6104f5a9a8c67ea98c6b0af8,001,2021-08-01_11h32.33.441,arrow_simon_norep,2021.1.2,Win32,60.12144532,,,,,,,,,,,,,,,,,,,,,o,1,1.4264,23,FALSE,FALSE,5,2,22,1,1,,,,,,,
,,,,,,0,1.715606372,#f3af84,,left_orange.png,q,,,,,,w,left_blue.png,left_orange.png,q,left,6104f5a9a8c67ea98c6b0af8,001,2021-08-01_11h32.33.441,arrow_simon_norep,2021.1.2,Win32,60.12144532,,,,,,,,,,,,,,,,,,,,,q,1,1.6176,24,TRUE,FALSE,5,3,23,2,1,,,,,,,
,,,,,,1,2.09946015,#a3d0fb,,right_blue.png,o,,,,,,o,right_blue.png,right_orange.png,p,left,6104f5a9a8c67ea98c6b0af8,001,2021-08-01_11h32.33.441,arrow_simon_norep,2021.1.2,Win32,60.12144532,,,,,,,,,,,,,,,,,,,,,w,0,1.4503,25,FALSE,FALSE,6,0,24,0,1,,,,,,,
,,,,,,1,1.516795139,#f3af84,,left_orange.png,q,,,,,,w,left_blue.png,left_orange.png,q,left,6104f5a9a8c67ea98c6b0af8,001,2021-08-01_11h32.33.441,arrow_simon_norep,2021.1.2,Win32,60.12144532,,,,,,,,,,,,,,,,,,,,,p,0,1.1668,26,FALSE,TRUE,6,1,25,2,1,,,,,,,
,,,,,,1,2.288022485,#a3d0fb,,left_blue.png,w,,,,,,w,left_blue.png,left_orange.png,q,right,6104f5a9a8c67ea98c6b0af8,001,2021-08-01_11h32.33.441,arrow_simon_norep,2021.1.2,Win32,60.12144532,,,,,,,,,,,,,,,,,,,,,o,0,1.0558,27,FALSE,TRUE,6,2,26,3,1,,,,,,,
,,,,,,1,1.794983535,#f3af84,,right_orange.png,p,,,,,,o,right_blue.png,right_orange.png,p,right,6104f5a9a8c67ea98c6b0af8,001,2021-08-01_11h32.33.441,arrow_simon_norep,2021.1.2,Win32,60.12144532,,,,,,,,,,,,,,,,,,,,,p,1,1.1617,28,FALSE,TRUE,6,3,27,1,1,,,,,,,
,,,,,,1,1.738141212,#a3d0fb,,left_blue.png,w,,,,,,w,left_blue.png,left_orange.png,q,left,6104f5a9a8c67ea98c6b0af8,001,2021-08-01_11h32.33.441,arrow_simon_norep,2021.1.2,Win32,60.12144532,,,,,,,,,,,,,,,,,,,,,o,0,1.0527,29,FALSE,TRUE,7,0,28,2,1,,,,,,,
,,,,,,1,2.194196902,#f3af84,,left_orange.png,q,,,,,,w,left_blue.png,left_orange.png,q,right,6104f5a9a8c67ea98c6b0af8,001,2021-08-01_11h32.33.441,arrow_simon_norep,2021.1.2,Win32,60.12144532,,,,,,,,,,,,,,,,,,,,,q,1,1.7334,30,TRUE,FALSE,7,1,29,3,1,,,,,,,
,,,,,,1,2.323168218,#a3d0fb,,left_blue.png,w,,,,,,w,left_blue.png,left_orange.png,q,right,6104f5a9a8c67ea98c6b0af8,001,2021-08-01_11h32.33.441,arrow_simon_norep,2021.1.2,Win32,60.12144532,,,,,,,,,,,,,,,,,,,,,w,1,1.8922,31,TRUE,FALSE,7,2,30,3,1,,,,,,,
,,,,,,0,1.534075392,#f3af84,,left_orange.png,q,,,,,,w,left_blue.png,left_orange.png,q,right,6104f5a9a8c67ea98c6b0af8,001,2021-08-01_11h32.33.441,arrow_simon_norep,2021.1.2,Win32,60.12144532,,,,,,,,,,,,,,,,,,,,,q,1,1.5834,32,FALSE,FALSE,7,3,31,3,1,,,,,,,
,,,,,,0,2.227123364,#a3d0fb,,right_blue.png,o,,,,,,o,right_blue.png,right_orange.png,p,right,6104f5a9a8c67ea98c6b0af8,001,2021-08-01_11h32.33.441,arrow_simon_norep,2021.1.2,Win32,60.12144532,,,,,,,,,,,,,,,,,,,,,o,1,1.6432,33,TRUE,FALSE,8,0,32,1,1,,,,,,,
,,,,,,1,2.464142078,#f3af84,,left_orange.png,q,,,,,,w,left_blue.png,left_orange.png,q,left,6104f5a9a8c67ea98c6b0af8,001,2021-08-01_11h32.33.441,arrow_simon_norep,2021.1.2,Win32,60.12144532,,,,,,,,,,,,,,,,,,,,,w,0,1.5093,34,FALSE,FALSE,8,1,33,2,1,,,,,,,
,,,,,,1,1.931608275,#a3d0fb,,left_blue.png,w,,,,,,w,left_blue.png,left_orange.png,q,left,6104f5a9a8c67ea98c6b0af8,001,2021-08-01_11h32.33.441,arrow_simon_norep,2021.1.2,Win32,60.12144532,,,,,,,,,,,,,,,,,,,,,w,1,1.3356,35,FALSE,TRUE,8,2,34,2,1,,,,,,,
,,,,,,1,2.258510925,#f3af84,,right_orange.png,p,,,,,,o,right_blue.png,right_orange.png,p,right,6104f5a9a8c67ea98c6b0af8,001,2021-08-01_11h32.33.441,arrow_simon_norep,2021.1.2,Win32,60.12144532,,,,,,,,,,,,,,,,,,,,,p,1,1.7667,36,TRUE,FALSE,8,3,35,1,1,,,,,,,
,,,,,,1,2.041988303,#a3d0fb,,right_blue.png,o,,,,,,o,right_blue.png,right_orange.png,p,left,6104f5a9a8c67ea98c6b0af8,001,2021-08-01_11h32.33.441,arrow_simon_norep,2021.1.2,Win32,60.12144532,,,,,,,,,,,,,,,,,,,,,o,1,2.1032,37,TRUE,FALSE,9,0,36,0,1,,,,,,,
,,,,,,1,1.68377978,#f3af84,,left_orange.png,q,,,,,,w,left_blue.png,left_orange.png,q,right,6104f5a9a8c67ea98c6b0af8,001,2021-08-01_11h32.33.441,arrow_simon_norep,2021.1.2,Win32,60.12144532,,,,,,,,,,,,,,,,,,,,,q,1,1.2573,38,FALSE,TRUE,9,1,37,3,1,,,,,,,
,,,,,,1,1.987274357,#a3d0fb,,left_blue.png,w,,,,,,w,left_blue.png,left_orange.png,q,right,6104f5a9a8c67ea98c6b0af8,001,2021-08-01_11h32.33.441,arrow_simon_norep,2021.1.2,Win32,60.12144532,,,,,,,,,,,,,,,,,,,,,w,1,1.7249,39,TRUE,FALSE,9,2,38,3,1,,,,,,,
,,,,,,1,2.351404395,#f3af84,,right_orange.png,p,,,,,,o,right_blue.png,right_orange.png,p,right,6104f5a9a8c67ea98c6b0af8,001,2021-08-01_11h32.33.441,arrow_simon_norep,2021.1.2,Win32,60.12144532,,,,,,,,,,,,,,,,,,,,,p,1,1.7541,40,TRUE,FALSE,9,3,39,1,1,,,,,,,
,,,,,,1,1.633932729,#a3d0fb,,right_blue.png,o,,,,,,o,right_blue.png,right_orange.png,p,right,6104f5a9a8c67ea98c6b0af8,001,2021-08-01_11h32.33.441,arrow_simon_norep,2021.1.2,Win32,60.12144532,,,,,,,,,,,,,,,,,,,,,o,1,1.1881,41,FALSE,TRUE,10,0,40,1,1,,,,,,,
,,,,,,1,1.939432166,#f3af84,,left_orange.png,q,,,,,,w,left_blue.png,left_orange.png,q,left,6104f5a9a8c67ea98c6b0af8,001,2021-08-01_11h32.33.441,arrow_simon_norep,2021.1.2,Win32,60.12144532,,,,,,,,,,,,,,,,,,,,,q,1,1.6236,42,TRUE,FALSE,10,1,41,2,1,,,,,,,
,,,,,,1,2.342705041,#a3d0fb,,left_blue.png,w,,,,,,w,left_blue.png,left_orange.png,q,right,6104f5a9a8c67ea98c6b0af8,001,2021-08-01_11h32.33.441,arrow_simon_norep,2021.1.2,Win32,60.12144532,,,,,,,,,,,,,,,,,,,,,w,1,1.8797,43,TRUE,FALSE,10,2,42,3,1,,,,,,,
,,,,,,1,2.208364999,#f3af84,,left_orange.png,q,,,,,,w,left_blue.png,left_orange.png,q,left,6104f5a9a8c67ea98c6b0af8,001,2021-08-01_11h32.33.441,arrow_simon_norep,2021.1.2,Win32,60.12144532,,,,,,,,,,,,,,,,,,,,,q,1,1.8094,44,TRUE,FALSE,10,3,43,2,1,,,,,,,
,,,,,,1,1.552420177,#a3d0fb,,right_blue.png,o,,,,,,o,right_blue.png,right_orange.png,p,left,6104f5a9a8c67ea98c6b0af8,001,2021-08-01_11h32.33.441,arrow_simon_norep,2021.1.2,Win32,60.12144532,,,,,,,,,,,,,,,,,,,,,o,1,0.9002,45,FALSE,TRUE,11,0,44,0,1,,,,,,,
,,,,,,1,1.610126053,#f3af84,,right_orange.png,p,,,,,,o,right_blue.png,right_orange.png,p,right,6104f5a9a8c67ea98c6b0af8,001,2021-08-01_11h32.33.441,arrow_simon_norep,2021.1.2,Win32,60.12144532,,,,,,,,,,,,,,,,,,,,,p,1,1.6813,46,TRUE,FALSE,11,1,45,1,1,,,,,,,
,,,,,,1,1.631463273,#a3d0fb,,right_blue.png,o,,,,,,o,right_blue.png,right_orange.png,p,right,6104f5a9a8c67ea98c6b0af8,001,2021-08-01_11h32.33.441,arrow_simon_norep,2021.1.2,Win32,60.12144532,,,,,,,,,,,,,,,,,,,,,o,1,1.843,47,TRUE,FALSE,11,2,46,1,1,,,,,,,
,,,,,,0,2.162020236,#f3af84,,left_orange.png,q,,,,,,w,left_blue.png,left_orange.png,q,right,6104f5a9a8c67ea98c6b0af8,001,2021-08-01_11h32.33.441,arrow_simon_norep,2021.1.2,Win32,60.12144532,,,,,,,,,,,,,,,,,,,,,q,1,1.5635,48,FALSE,FALSE,11,3,47,3,1,,,,,,,
,,,,,,0,1.914796487,#a3d0fb,,left_blue.png,w,,,,,,w,left_blue.png,left_orange.png,q,left,6104f5a9a8c67ea98c6b0af8,001,2021-08-01_11h32.33.441,arrow_simon_norep,2021.1.2,Win32,60.12144532,,,,,,,,,,,,,,,,,,,,,w,1,1.5852,49,FALSE,FALSE,12,0,48,2,1,,,,,,,
,,,,,,0,2.489204978,#f3af84,,left_orange.png,q,,,,,,w,left_blue.png,left_orange.png,q,right,6104f5a9a8c67ea98c6b0af8,001,2021-08-01_11h32.33.441,arrow_simon_norep,2021.1.2,Win32,60.12144532,,,,,,,,,,,,,,,,,,,,,w,0,1.9198,50,TRUE,FALSE,12,1,49,3,1,,,,,,,
,,,,,,0,2.047581576,#a3d0fb,,right_blue.png,o,,,,,,o,right_blue.png,right_orange.png,p,left,6104f5a9a8c67ea98c6b0af8,001,2021-08-01_11h32.33.441,arrow_simon_norep,2021.1.2,Win32,60.12144532,,,,,,,,,,,,,,,,,,,,,o,1,1.5697,51,FALSE,FALSE,12,2,50,0,1,,,,,,,
