instruct_resp_simon.keys,instruct_resp_simon.corr,instruct_resp_simon.rt,trial_resp_simon.keys,trial_resp_simon.corr,trial_resp_simon.rt,kerr,target_onset,target_color,target_pos,target_file,target_resp,trials_train_simon.thisRepN,trials_train_simon.thisTrialN,trials_train_simon.thisN,trials_train_simon.thisIndex,trials_train_simon.ran,odd_target_resp,odd_target_file,even_target_file,even_target_resp,target_side,participant,session,date,expName,psychopyVersion,OS,frameRate,train_block_note_resp.keys,train_block_note_resp.rt,blocks_train.thisRepN,blocks_train.thisTrialN,blocks_train.thisN,blocks_train.thisIndex,blocks_train.ran,instruct_resp_timing.keys,instruct_resp_timing.corr,instruct_resp_timing.rt,trial_resp_timing.keys,trial_resp_timing.rt,trials_train_timing.thisRepN,trials_train_timing.thisTrialN,trials_train_timing.thisN,trials_train_timing.thisIndex,trials_train_timing.ran,instruct_resp.keys,instruct_resp.corr,instruct_resp.rt,trial_resp.keys,trial_resp.corr,trial_resp.rt,trial_num,too_slow,too_soon,trials.thisRepN,trials.thisTrialN,trials.thisN,trials.thisIndex,trials.ran,block_note_resp.keys,block_note_resp.rt,blocks.thisRepN,blocks.thisTrialN,blocks.thisN,blocks.thisIndex,blocks.ran
space,0,169.6451,w,0,7.0025,1,0.612292575,#a3d0fb,,right_blue.png,o,0,0,0,0,1,o,right_blue.png,right_orange.png,p,left,610536bd3533c7e93ce89d2f,001,2021-08-09_09h18.53.795,arrow_simon_norep,2021.1.2,MacIntel,60.0024001,,,,,,,,,,,,,,,,,,,,,,,,,,,,,,,,,,,,,,
,,,p,1,8.1761,0,0.514241573,#f3af84,,right_orange.png,p,0,1,1,0,1,o,right_blue.png,right_orange.png,p,left,610536bd3533c7e93ce89d2f,001,2021-08-09_09h18.53.795,arrow_simon_norep,2021.1.2,MacIntel,60.0024001,,,,,,,,,,,,,,,,,,,,,,,,,,,,,,,,,,,,,,
,,,w,1,5.9504,0,0.11248971,#a3d0fb,,left_blue.png,w,0,2,2,2,1,w,left_blue.png,left_orange.png,q,left,610536bd3533c7e93ce89d2f,001,2021-08-09_09h18.53.795,arrow_simon_norep,2021.1.2,MacIntel,60.0024001,,,,,,,,,,,,,,,,,,,,,,,,,,,,,,,,,,,,,,
,,,p,0,2.6113,1,0.577320801,#f3af84,,left_orange.png,q,0,3,3,3,1,w,left_blue.png,left_orange.png,q,right,610536bd3533c7e93ce89d2f,001,2021-08-09_09h18.53.795,arrow_simon_norep,2021.1.2,MacIntel,60.0024001,,,,,,,,,,,,,,,,,,,,,,,,,,,,,,,,,,,,,,
,,,w,1,5.9497,0,0.648298723,#a3d0fb,,left_blue.png,w,1,0,4,2,1,w,left_blue.png,left_orange.png,q,left,610536bd3533c7e93ce89d2f,001,2021-08-09_09h18.53.795,arrow_simon_norep,2021.1.2,MacIntel,60.0024001,,,,,,,,,,,,,,,,,,,,,,,,,,,,,,,,,,,,,,
,,,p,1,2.7343,0,0.454151046,#f3af84,,right_orange.png,p,1,1,5,1,1,o,right_blue.png,right_orange.png,p,right,610536bd3533c7e93ce89d2f,001,2021-08-09_09h18.53.795,arrow_simon_norep,2021.1.2,MacIntel,60.0024001,,,,,,,,,,,,,,,,,,,,,,,,,,,,,,,,,,,,,,
,,,w,1,2.8632,0,0.243306905,#a3d0fb,,left_blue.png,w,1,2,6,2,1,w,left_blue.png,left_orange.png,q,left,610536bd3533c7e93ce89d2f,001,2021-08-09_09h18.53.795,arrow_simon_norep,2021.1.2,MacIntel,60.0024001,,,,,,,,,,,,,,,,,,,,,,,,,,,,,,,,,,,,,,
,,,q,1,3.1824,0,0.473887077,#f3af84,,left_orange.png,q,1,3,7,3,1,w,left_blue.png,left_orange.png,q,right,610536bd3533c7e93ce89d2f,001,2021-08-09_09h18.53.795,arrow_simon_norep,2021.1.2,MacIntel,60.0024001,,,,,,,,,,,,,,,,,,,,,,,,,,,,,,,,,,,,,,
,,,w,1,1.7451,0,0.642519358,#a3d0fb,,left_blue.png,w,2,0,8,2,1,w,left_blue.png,left_orange.png,q,left,610536bd3533c7e93ce89d2f,001,2021-08-09_09h18.53.795,arrow_simon_norep,2021.1.2,MacIntel,60.0024001,,,,,,,,,,,,,,,,,,,,,,,,,,,,,,,,,,,,,,
,,,q,1,2.2317,0,0.822445605,#f3af84,,left_orange.png,q,2,1,9,3,1,w,left_blue.png,left_orange.png,q,right,610536bd3533c7e93ce89d2f,001,2021-08-09_09h18.53.795,arrow_simon_norep,2021.1.2,MacIntel,60.0024001,,,,,,,,,,,,,,,,,,,,,,,,,,,,,,,,,,,,,,
,,,o,1,1.8165,0,0.378494388,#a3d0fb,,right_blue.png,o,2,2,10,0,1,o,right_blue.png,right_orange.png,p,left,610536bd3533c7e93ce89d2f,001,2021-08-09_09h18.53.795,arrow_simon_norep,2021.1.2,MacIntel,60.0024001,,,,,,,,,,,,,,,,,,,,,,,,,,,,,,,,,,,,,,
,,,p,1,1.3181,0,0.095068088,#f3af84,,right_orange.png,p,2,3,11,1,1,o,right_blue.png,right_orange.png,p,right,610536bd3533c7e93ce89d2f,001,2021-08-09_09h18.53.795,arrow_simon_norep,2021.1.2,MacIntel,60.0024001,,,,,,,,,,,,,,,,,,,,,,,,,,,,,,,,,,,,,,
,,,o,0,2.3809,1,0.359937821,#a3d0fb,,left_blue.png,w,3,0,12,3,1,w,left_blue.png,left_orange.png,q,right,610536bd3533c7e93ce89d2f,001,2021-08-09_09h18.53.795,arrow_simon_norep,2021.1.2,MacIntel,60.0024001,,,,,,,,,,,,,,,,,,,,,,,,,,,,,,,,,,,,,,
,,,p,1,4.4031,0,0.862700166,#f3af84,,right_orange.png,p,3,1,13,0,1,o,right_blue.png,right_orange.png,p,left,610536bd3533c7e93ce89d2f,001,2021-08-09_09h18.53.795,arrow_simon_norep,2021.1.2,MacIntel,60.0024001,,,,,,,,,,,,,,,,,,,,,,,,,,,,,,,,,,,,,,
,,,w,1,2.2197,0,0.61747485,#a3d0fb,,left_blue.png,w,3,2,14,3,1,w,left_blue.png,left_orange.png,q,right,610536bd3533c7e93ce89d2f,001,2021-08-09_09h18.53.795,arrow_simon_norep,2021.1.2,MacIntel,60.0024001,,,,,,,,,,,,,,,,,,,,,,,,,,,,,,,,,,,,,,
,,,p,1,3.0344,0,0.915359258,#f3af84,,right_orange.png,p,3,3,15,0,1,o,right_blue.png,right_orange.png,p,left,610536bd3533c7e93ce89d2f,001,2021-08-09_09h18.53.795,arrow_simon_norep,2021.1.2,MacIntel,60.0024001,,,,,,,,,,,,,,,,,,,,,,,,,,,,,,,,,,,,,,
,,,w,1,2.8484,0,0.689952813,#a3d0fb,,left_blue.png,w,4,0,16,3,1,w,left_blue.png,left_orange.png,q,right,610536bd3533c7e93ce89d2f,001,2021-08-09_09h18.53.795,arrow_simon_norep,2021.1.2,MacIntel,60.0024001,,,,,,,,,,,,,,,,,,,,,,,,,,,,,,,,,,,,,,
,,,p,1,1.3666,0,0.259165069,#f3af84,,right_orange.png,p,4,1,17,1,1,o,right_blue.png,right_orange.png,p,right,610536bd3533c7e93ce89d2f,001,2021-08-09_09h18.53.795,arrow_simon_norep,2021.1.2,MacIntel,60.0024001,,,,,,,,,,,,,,,,,,,,,,,,,,,,,,,,,,,,,,
,,,o,1,1.5842,0,0.350903257,#a3d0fb,,right_blue.png,o,4,2,18,1,1,o,right_blue.png,right_orange.png,p,right,610536bd3533c7e93ce89d2f,001,2021-08-09_09h18.53.795,arrow_simon_norep,2021.1.2,MacIntel,60.0024001,,,,,,,,,,,,,,,,,,,,,,,,,,,,,,,,,,,,,,
,,,q,1,1.9495,0,0.952240986,#f3af84,,left_orange.png,q,4,3,19,2,1,w,left_blue.png,left_orange.png,q,left,610536bd3533c7e93ce89d2f,001,2021-08-09_09h18.53.795,arrow_simon_norep,2021.1.2,MacIntel,60.0024001,,,,,,,,,,,,,,,,,,,,,,,,,,,,,,,,,,,,,,
,,,w,1,1.2327,0,0.154067664,#a3d0fb,,left_blue.png,w,5,0,20,2,1,w,left_blue.png,left_orange.png,q,left,610536bd3533c7e93ce89d2f,001,2021-08-09_09h18.53.795,arrow_simon_norep,2021.1.2,MacIntel,60.0024001,,,,,,,,,,,,,,,,,,,,,,,,,,,,,,,,,,,,,,
,,,p,1,1.2487,0,0.332415445,#f3af84,,right_orange.png,p,5,1,21,1,1,o,right_blue.png,right_orange.png,p,right,610536bd3533c7e93ce89d2f,001,2021-08-09_09h18.53.795,arrow_simon_norep,2021.1.2,MacIntel,60.0024001,,,,,,,,,,,,,,,,,,,,,,,,,,,,,,,,,,,,,,
,,,o,1,1.8348,0,0.095592844,#a3d0fb,,right_blue.png,o,5,2,22,1,1,o,right_blue.png,right_orange.png,p,right,610536bd3533c7e93ce89d2f,001,2021-08-09_09h18.53.795,arrow_simon_norep,2021.1.2,MacIntel,60.0024001,,,,,,,,,,,,,,,,,,,,,,,,,,,,,,,,,,,,,,
,,,p,1,1.9007,0,0.849946129,#f3af84,,right_orange.png,p,5,3,23,1,1,o,right_blue.png,right_orange.png,p,right,610536bd3533c7e93ce89d2f,001,2021-08-09_09h18.53.795,arrow_simon_norep,2021.1.2,MacIntel,60.0024001,,,,,,,,,,,,,,,,,,,,,,,,,,,,,,,,,,,,,,
,,,o,0,1.7305,1,0.90618973,#a3d0fb,,left_blue.png,w,6,0,24,3,1,w,left_blue.png,left_orange.png,q,right,610536bd3533c7e93ce89d2f,001,2021-08-09_09h18.53.795,arrow_simon_norep,2021.1.2,MacIntel,60.0024001,,,,,,,,,,,,,,,,,,,,,,,,,,,,,,,,,,,,,,
,,,p,1,3.0313,0,0.967803202,#f3af84,,right_orange.png,p,6,1,25,0,1,o,right_blue.png,right_orange.png,p,left,610536bd3533c7e93ce89d2f,001,2021-08-09_09h18.53.795,arrow_simon_norep,2021.1.2,MacIntel,60.0024001,,,,,,,,,,,,,,,,,,,,,,,,,,,,,,,,,,,,,,
,,,w,1,1.6692,0,0.09823349,#a3d0fb,,left_blue.png,w,6,2,26,3,1,w,left_blue.png,left_orange.png,q,right,610536bd3533c7e93ce89d2f,001,2021-08-09_09h18.53.795,arrow_simon_norep,2021.1.2,MacIntel,60.0024001,,,,,,,,,,,,,,,,,,,,,,,,,,,,,,,,,,,,,,
,,,q,1,2.252,0,0.994725197,#f3af84,,left_orange.png,q,6,3,27,2,1,w,left_blue.png,left_orange.png,q,left,610536bd3533c7e93ce89d2f,001,2021-08-09_09h18.53.795,arrow_simon_norep,2021.1.2,MacIntel,60.0024001,,,,,,,,,,,,,,,,,,,,,,,,,,,,,,,,,,,,,,
,,,w,1,2.1781,0,0.605338102,#a3d0fb,,left_blue.png,w,7,0,28,3,1,w,left_blue.png,left_orange.png,q,right,610536bd3533c7e93ce89d2f,001,2021-08-09_09h18.53.795,arrow_simon_norep,2021.1.2,MacIntel,60.0024001,,,,,,,,,,,,,,,,,,,,,,,,,,,,,,,,,,,,,,
,,,q,1,1.7676,0,0.831628753,#f3af84,,left_orange.png,q,7,1,29,2,1,w,left_blue.png,left_orange.png,q,left,610536bd3533c7e93ce89d2f,001,2021-08-09_09h18.53.795,arrow_simon_norep,2021.1.2,MacIntel,60.0024001,,,,,,,,,,,,,,,,,,,,,,,,,,,,,,,,,,,,,,
,,,p,0,1.601,1,0.294779896,#a3d0fb,,right_blue.png,o,7,2,30,1,1,o,right_blue.png,right_orange.png,p,right,610536bd3533c7e93ce89d2f,001,2021-08-09_09h18.53.795,arrow_simon_norep,2021.1.2,MacIntel,60.0024001,,,,,,,,,,,,,,,,,,,,,,,,,,,,,,,,,,,,,,
,,,p,1,1.9482,0,0.979303515,#f3af84,,right_orange.png,p,7,3,31,1,1,o,right_blue.png,right_orange.png,p,right,610536bd3533c7e93ce89d2f,001,2021-08-09_09h18.53.795,arrow_simon_norep,2021.1.2,MacIntel,60.0024001,,,,,,,,,,,,,,,,,,,,,,,,,,,,,,,,,,,,,,
,,,o,1,1.6339,0,0.307199235,#a3d0fb,,right_blue.png,o,8,0,32,0,1,o,right_blue.png,right_orange.png,p,left,610536bd3533c7e93ce89d2f,001,2021-08-09_09h18.53.795,arrow_simon_norep,2021.1.2,MacIntel,60.0024001,,,,,,,,,,,,,,,,,,,,,,,,,,,,,,,,,,,,,,
,,,p,1,2.2022,0,0.93001862,#f3af84,,right_orange.png,p,8,1,33,0,1,o,right_blue.png,right_orange.png,p,left,610536bd3533c7e93ce89d2f,001,2021-08-09_09h18.53.795,arrow_simon_norep,2021.1.2,MacIntel,60.0024001,,,,,,,,,,,,,,,,,,,,,,,,,,,,,,,,,,,,,,
,,,o,1,3.1867,0,0.394840531,#a3d0fb,,right_blue.png,o,8,2,34,1,1,o,right_blue.png,right_orange.png,p,right,610536bd3533c7e93ce89d2f,001,2021-08-09_09h18.53.795,arrow_simon_norep,2021.1.2,MacIntel,60.0024001,,,,,,,,,,,,,,,,,,,,,,,,,,,,,,,,,,,,,,
,,,q,1,1.8664,0,0.416242818,#f3af84,,left_orange.png,q,8,3,35,2,1,w,left_blue.png,left_orange.png,q,left,610536bd3533c7e93ce89d2f,001,2021-08-09_09h18.53.795,arrow_simon_norep,2021.1.2,MacIntel,60.0024001,,,,,,,,,,,,,,,,,,,,,,,,,,,,,,,,,,,,,,
,,,w,1,1.8508,0,0.803991147,#a3d0fb,,left_blue.png,w,9,0,36,2,1,w,left_blue.png,left_orange.png,q,left,610536bd3533c7e93ce89d2f,001,2021-08-09_09h18.53.795,arrow_simon_norep,2021.1.2,MacIntel,60.0024001,,,,,,,,,,,,,,,,,,,,,,,,,,,,,,,,,,,,,,
,,,q,1,1.5364,0,0.461092098,#f3af84,,left_orange.png,q,9,1,37,3,1,w,left_blue.png,left_orange.png,q,right,610536bd3533c7e93ce89d2f,001,2021-08-09_09h18.53.795,arrow_simon_norep,2021.1.2,MacIntel,60.0024001,,,,,,,,,,,,,,,,,,,,,,,,,,,,,,,,,,,,,,
,,,w,1,1.016,0,0.053850757,#a3d0fb,,left_blue.png,w,9,2,38,3,1,w,left_blue.png,left_orange.png,q,right,610536bd3533c7e93ce89d2f,001,2021-08-09_09h18.53.795,arrow_simon_norep,2021.1.2,MacIntel,60.0024001,,,,,,,,,,,,,,,,,,,,,,,,,,,,,,,,,,,,,,
,,,q,1,1.5629,0,0.711292215,#f3af84,,left_orange.png,q,9,3,39,2,1,w,left_blue.png,left_orange.png,q,left,610536bd3533c7e93ce89d2f,001,2021-08-09_09h18.53.795,arrow_simon_norep,2021.1.2,MacIntel,60.0024001,,,,,,,,,,,,,,,,,,,,,,,,,,,,,,,,,,,,,,
,,,o,1,2.1342,0,0.638485665,#a3d0fb,,right_blue.png,o,10,0,40,0,1,o,right_blue.png,right_orange.png,p,left,610536bd3533c7e93ce89d2f,001,2021-08-09_09h18.53.795,arrow_simon_norep,2021.1.2,MacIntel,60.0024001,,,,,,,,,,,,,,,,,,,,,,,,,,,,,,,,,,,,,,
,,,q,1,1.9338,0,0.886100239,#f3af84,,left_orange.png,q,10,1,41,3,1,w,left_blue.png,left_orange.png,q,right,610536bd3533c7e93ce89d2f,001,2021-08-09_09h18.53.795,arrow_simon_norep,2021.1.2,MacIntel,60.0024001,,,,,,,,,,,,,,,,,,,,,,,,,,,,,,,,,,,,,,
,,,w,0,1.1354,1,0.392367239,#a3d0fb,,right_blue.png,o,10,2,42,0,1,o,right_blue.png,right_orange.png,p,left,610536bd3533c7e93ce89d2f,001,2021-08-09_09h18.53.795,arrow_simon_norep,2021.1.2,MacIntel,60.0024001,,,,,,,,,,,,,,,,,,,,,,,,,,,,,,,,,,,,,,
,,,p,1,1.3325,0,0.141359546,#f3af84,,right_orange.png,p,10,3,43,1,1,o,right_blue.png,right_orange.png,p,right,610536bd3533c7e93ce89d2f,001,2021-08-09_09h18.53.795,arrow_simon_norep,2021.1.2,MacIntel,60.0024001,,,,,,,,,,,,,,,,,,,,,,,,,,,,,,,,,,,,,,
,,,w,1,2.2161,0,0.966717262,#a3d0fb,,left_blue.png,w,11,0,44,2,1,w,left_blue.png,left_orange.png,q,left,610536bd3533c7e93ce89d2f,001,2021-08-09_09h18.53.795,arrow_simon_norep,2021.1.2,MacIntel,60.0024001,,,,,,,,,,,,,,,,,,,,,,,,,,,,,,,,,,,,,,
,,,q,1,1.0899,0,0.236156329,#f3af84,,left_orange.png,q,11,1,45,2,1,w,left_blue.png,left_orange.png,q,left,610536bd3533c7e93ce89d2f,001,2021-08-09_09h18.53.795,arrow_simon_norep,2021.1.2,MacIntel,60.0024001,,,,,,,,,,,,,,,,,,,,,,,,,,,,,,,,,,,,,,
,,,o,1,1.652,0,0.355586204,#a3d0fb,,right_blue.png,o,11,2,46,0,1,o,right_blue.png,right_orange.png,p,left,610536bd3533c7e93ce89d2f,001,2021-08-09_09h18.53.795,arrow_simon_norep,2021.1.2,MacIntel,60.0024001,,,,,,,,,,,,,,,,,,,,,,,,,,,,,,,,,,,,,,
,,,p,1,1.4833,0,0.862899544,#f3af84,,right_orange.png,p,11,3,47,1,1,o,right_blue.png,right_orange.png,p,right,610536bd3533c7e93ce89d2f,001,2021-08-09_09h18.53.795,arrow_simon_norep,2021.1.2,MacIntel,60.0024001,,,,,,,,,,,,,,,,,,,,,,,,,,,,,,,,,,,,,,
,,,w,1,1.0501,0,0.10221769,#a3d0fb,,left_blue.png,w,12,0,48,2,1,w,left_blue.png,left_orange.png,q,left,610536bd3533c7e93ce89d2f,001,2021-08-09_09h18.53.795,arrow_simon_norep,2021.1.2,MacIntel,60.0024001,,,,,,,,,,,,,,,,,,,,,,,,,,,,,,,,,,,,,,
,,,q,1,1.7001,0,0.508312247,#f3af84,,left_orange.png,q,12,1,49,3,1,w,left_blue.png,left_orange.png,q,right,610536bd3533c7e93ce89d2f,001,2021-08-09_09h18.53.795,arrow_simon_norep,2021.1.2,MacIntel,60.0024001,,,,,,,,,,,,,,,,,,,,,,,,,,,,,,,,,,,,,,
,,,o,1,1.2153,0,0.085869546,#a3d0fb,,right_blue.png,o,12,2,50,1,1,o,right_blue.png,right_orange.png,p,right,610536bd3533c7e93ce89d2f,001,2021-08-09_09h18.53.795,arrow_simon_norep,2021.1.2,MacIntel,60.0024001,,,,,,,,,,,,,,,,,,,,,,,,,,,,,,,,,,,,,,
,,,p,1,1.7671,0,0.944546961,#f3af84,,right_orange.png,p,12,3,51,1,1,o,right_blue.png,right_orange.png,p,right,610536bd3533c7e93ce89d2f,001,2021-08-09_09h18.53.795,arrow_simon_norep,2021.1.2,MacIntel,60.0024001,,,,,,,,,,,,,,,,,,,,,,,,,,,,,,,,,,,,,,
,,,o,1,1.4845,0,0.427919502,#a3d0fb,,right_blue.png,o,13,0,52,0,1,o,right_blue.png,right_orange.png,p,left,610536bd3533c7e93ce89d2f,001,2021-08-09_09h18.53.795,arrow_simon_norep,2021.1.2,MacIntel,60.0024001,,,,,,,,,,,,,,,,,,,,,,,,,,,,,,,,,,,,,,
,,,p,1,1.052,0,0.065935571,#f3af84,,right_orange.png,p,13,1,53,0,1,o,right_blue.png,right_orange.png,p,left,610536bd3533c7e93ce89d2f,001,2021-08-09_09h18.53.795,arrow_simon_norep,2021.1.2,MacIntel,60.0024001,,,,,,,,,,,,,,,,,,,,,,,,,,,,,,,,,,,,,,
,,,o,1,1.549,0,0.674351549,#a3d0fb,,right_blue.png,o,13,2,54,0,1,o,right_blue.png,right_orange.png,p,left,610536bd3533c7e93ce89d2f,001,2021-08-09_09h18.53.795,arrow_simon_norep,2021.1.2,MacIntel,60.0024001,,,,,,,,,,,,,,,,,,,,,,,,,,,,,,,,,,,,,,
,,,q,1,1.1291,0,0.319108392,#f3af84,,left_orange.png,q,13,3,55,3,1,w,left_blue.png,left_orange.png,q,right,610536bd3533c7e93ce89d2f,001,2021-08-09_09h18.53.795,arrow_simon_norep,2021.1.2,MacIntel,60.0024001,,,,,,,,,,,,,,,,,,,,,,,,,,,,,,,,,,,,,,
,,,o,1,1.1605,0,0.594464817,#a3d0fb,,right_blue.png,o,14,0,56,1,1,o,right_blue.png,right_orange.png,p,right,610536bd3533c7e93ce89d2f,001,2021-08-09_09h18.53.795,arrow_simon_norep,2021.1.2,MacIntel,60.0024001,,,,,,,,,,,,,,,,,,,,,,,,,,,,,,,,,,,,,,
,,,p,1,1.2971,0,0.67207435,#f3af84,,right_orange.png,p,14,1,57,0,1,o,right_blue.png,right_orange.png,p,left,610536bd3533c7e93ce89d2f,001,2021-08-09_09h18.53.795,arrow_simon_norep,2021.1.2,MacIntel,60.0024001,,,,,,,,,,,,,,,,,,,,,,,,,,,,,,,,,,,,,,
,,,w,1,1.299,0,0.275168984,#a3d0fb,,left_blue.png,w,14,2,58,3,1,w,left_blue.png,left_orange.png,q,right,610536bd3533c7e93ce89d2f,001,2021-08-09_09h18.53.795,arrow_simon_norep,2021.1.2,MacIntel,60.0024001,,,,,,,,,,,,,,,,,,,,,,,,,,,,,,,,,,,,,,
,,,q,1,1.6514,0,0.833104922,#f3af84,,left_orange.png,q,14,3,59,2,1,w,left_blue.png,left_orange.png,q,left,610536bd3533c7e93ce89d2f,001,2021-08-09_09h18.53.795,arrow_simon_norep,2021.1.2,MacIntel,60.0024001,,,,,,,,,,,,,,,,,,,,,,,,,,,,,,,,,,,,,,
,,,,,,,,,,,,,,,,,,,,,,610536bd3533c7e93ce89d2f,001,2021-08-09_09h18.53.795,arrow_simon_norep,2021.1.2,MacIntel,60.0024001,space,195.3782,0,0,0,0,1,,,,,,,,,,,,,,,,,,,,,,,,,,,,,,,
,,,p,0,1.2074,1,0.364064098,#a3d0fb,,right_blue.png,o,0,0,0,0,1,o,right_blue.png,right_orange.png,p,left,610536bd3533c7e93ce89d2f,001,2021-08-09_09h18.53.795,arrow_simon_norep,2021.1.2,MacIntel,60.0024001,,,,,,,,,,,,,,,,,,,,,,,,,,,,,,,,,,,,,,
,,,q,1,1.5647,0,0.838046524,#f3af84,,left_orange.png,q,0,1,1,2,1,w,left_blue.png,left_orange.png,q,left,610536bd3533c7e93ce89d2f,001,2021-08-09_09h18.53.795,arrow_simon_norep,2021.1.2,MacIntel,60.0024001,,,,,,,,,,,,,,,,,,,,,,,,,,,,,,,,,,,,,,
,,,o,1,1.5025,0,0.817669765,#a3d0fb,,right_blue.png,o,0,2,2,1,1,o,right_blue.png,right_orange.png,p,right,610536bd3533c7e93ce89d2f,001,2021-08-09_09h18.53.795,arrow_simon_norep,2021.1.2,MacIntel,60.0024001,,,,,,,,,,,,,,,,,,,,,,,,,,,,,,,,,,,,,,
,,,q,1,1.0938,0,0.416724219,#f3af84,,left_orange.png,q,0,3,3,2,1,w,left_blue.png,left_orange.png,q,left,610536bd3533c7e93ce89d2f,001,2021-08-09_09h18.53.795,arrow_simon_norep,2021.1.2,MacIntel,60.0024001,,,,,,,,,,,,,,,,,,,,,,,,,,,,,,,,,,,,,,
,,,w,1,1.2272,0,0.498205585,#a3d0fb,,left_blue.png,w,1,0,4,2,1,w,left_blue.png,left_orange.png,q,left,610536bd3533c7e93ce89d2f,001,2021-08-09_09h18.53.795,arrow_simon_norep,2021.1.2,MacIntel,60.0024001,,,,,,,,,,,,,,,,,,,,,,,,,,,,,,,,,,,,,,
,,,q,1,1.8676,0,0.963821095,#f3af84,,left_orange.png,q,1,1,5,3,1,w,left_blue.png,left_orange.png,q,right,610536bd3533c7e93ce89d2f,001,2021-08-09_09h18.53.795,arrow_simon_norep,2021.1.2,MacIntel,60.0024001,,,,,,,,,,,,,,,,,,,,,,,,,,,,,,,,,,,,,,
,,,w,1,0.9836,0,0.279911042,#a3d0fb,,left_blue.png,w,1,2,6,2,1,w,left_blue.png,left_orange.png,q,left,610536bd3533c7e93ce89d2f,001,2021-08-09_09h18.53.795,arrow_simon_norep,2021.1.2,MacIntel,60.0024001,,,,,,,,,,,,,,,,,,,,,,,,,,,,,,,,,,,,,,
,,,q,1,1.3999,0,0.831310747,#f3af84,,left_orange.png,q,1,3,7,2,1,w,left_blue.png,left_orange.png,q,left,610536bd3533c7e93ce89d2f,001,2021-08-09_09h18.53.795,arrow_simon_norep,2021.1.2,MacIntel,60.0024001,,,,,,,,,,,,,,,,,,,,,,,,,,,,,,,,,,,,,,
,,,w,1,1.1655,0,0.500588447,#a3d0fb,,left_blue.png,w,2,0,8,2,1,w,left_blue.png,left_orange.png,q,left,610536bd3533c7e93ce89d2f,001,2021-08-09_09h18.53.795,arrow_simon_norep,2021.1.2,MacIntel,60.0024001,,,,,,,,,,,,,,,,,,,,,,,,,,,,,,,,,,,,,,
,,,q,1,1.6657,0,0.899466259,#f3af84,,left_orange.png,q,2,1,9,3,1,w,left_blue.png,left_orange.png,q,right,610536bd3533c7e93ce89d2f,001,2021-08-09_09h18.53.795,arrow_simon_norep,2021.1.2,MacIntel,60.0024001,,,,,,,,,,,,,,,,,,,,,,,,,,,,,,,,,,,,,,
,,,o,1,1.3823,0,0.472366095,#a3d0fb,,right_blue.png,o,2,2,10,1,1,o,right_blue.png,right_orange.png,p,right,610536bd3533c7e93ce89d2f,001,2021-08-09_09h18.53.795,arrow_simon_norep,2021.1.2,MacIntel,60.0024001,,,,,,,,,,,,,,,,,,,,,,,,,,,,,,,,,,,,,,
,,,q,1,1.0769,0,0.140221734,#f3af84,,left_orange.png,q,2,3,11,2,1,w,left_blue.png,left_orange.png,q,left,610536bd3533c7e93ce89d2f,001,2021-08-09_09h18.53.795,arrow_simon_norep,2021.1.2,MacIntel,60.0024001,,,,,,,,,,,,,,,,,,,,,,,,,,,,,,,,,,,,,,
,,,o,1,1.0657,0,0.178722725,#a3d0fb,,right_blue.png,o,3,0,12,1,1,o,right_blue.png,right_orange.png,p,right,610536bd3533c7e93ce89d2f,001,2021-08-09_09h18.53.795,arrow_simon_norep,2021.1.2,MacIntel,60.0024001,,,,,,,,,,,,,,,,,,,,,,,,,,,,,,,,,,,,,,
,,,q,1,1.9504,0,0.926249468,#f3af84,,left_orange.png,q,3,1,13,3,1,w,left_blue.png,left_orange.png,q,right,610536bd3533c7e93ce89d2f,001,2021-08-09_09h18.53.795,arrow_simon_norep,2021.1.2,MacIntel,60.0024001,,,,,,,,,,,,,,,,,,,,,,,,,,,,,,,,,,,,,,
,,,w,1,0.8452,0,0.02032016,#a3d0fb,,left_blue.png,w,3,2,14,2,1,w,left_blue.png,left_orange.png,q,left,610536bd3533c7e93ce89d2f,001,2021-08-09_09h18.53.795,arrow_simon_norep,2021.1.2,MacIntel,60.0024001,,,,,,,,,,,,,,,,,,,,,,,,,,,,,,,,,,,,,,
,,,p,1,1.8974,0,0.895139891,#f3af84,,right_orange.png,p,3,3,15,0,1,o,right_blue.png,right_orange.png,p,left,610536bd3533c7e93ce89d2f,001,2021-08-09_09h18.53.795,arrow_simon_norep,2021.1.2,MacIntel,60.0024001,,,,,,,,,,,,,,,,,,,,,,,,,,,,,,,,,,,,,,
,,,w,1,1.5127,0,0.542142384,#a3d0fb,,left_blue.png,w,4,0,16,3,1,w,left_blue.png,left_orange.png,q,right,610536bd3533c7e93ce89d2f,001,2021-08-09_09h18.53.795,arrow_simon_norep,2021.1.2,MacIntel,60.0024001,,,,,,,,,,,,,,,,,,,,,,,,,,,,,,,,,,,,,,
,,,q,1,0.9516,0,0.22523261,#f3af84,,left_orange.png,q,4,1,17,2,1,w,left_blue.png,left_orange.png,q,left,610536bd3533c7e93ce89d2f,001,2021-08-09_09h18.53.795,arrow_simon_norep,2021.1.2,MacIntel,60.0024001,,,,,,,,,,,,,,,,,,,,,,,,,,,,,,,,,,,,,,
,,,o,1,1.1832,0,0.495889379,#a3d0fb,,right_blue.png,o,4,2,18,1,1,o,right_blue.png,right_orange.png,p,right,610536bd3533c7e93ce89d2f,001,2021-08-09_09h18.53.795,arrow_simon_norep,2021.1.2,MacIntel,60.0024001,,,,,,,,,,,,,,,,,,,,,,,,,,,,,,,,,,,,,,
,,,q,1,1.0328,0,0.19505587,#f3af84,,left_orange.png,q,4,3,19,3,1,w,left_blue.png,left_orange.png,q,right,610536bd3533c7e93ce89d2f,001,2021-08-09_09h18.53.795,arrow_simon_norep,2021.1.2,MacIntel,60.0024001,,,,,,,,,,,,,,,,,,,,,,,,,,,,,,,,,,,,,,
,,,o,1,1.65,0,0.696919317,#a3d0fb,,right_blue.png,o,5,0,20,0,1,o,right_blue.png,right_orange.png,p,left,610536bd3533c7e93ce89d2f,001,2021-08-09_09h18.53.795,arrow_simon_norep,2021.1.2,MacIntel,60.0024001,,,,,,,,,,,,,,,,,,,,,,,,,,,,,,,,,,,,,,
,,,q,1,0.8003,0,0.159532365,#f3af84,,left_orange.png,q,5,1,21,2,1,w,left_blue.png,left_orange.png,q,left,610536bd3533c7e93ce89d2f,001,2021-08-09_09h18.53.795,arrow_simon_norep,2021.1.2,MacIntel,60.0024001,,,,,,,,,,,,,,,,,,,,,,,,,,,,,,,,,,,,,,
,,,o,1,0.8658,0,0.180356864,#a3d0fb,,right_blue.png,o,5,2,22,0,1,o,right_blue.png,right_orange.png,p,left,610536bd3533c7e93ce89d2f,001,2021-08-09_09h18.53.795,arrow_simon_norep,2021.1.2,MacIntel,60.0024001,,,,,,,,,,,,,,,,,,,,,,,,,,,,,,,,,,,,,,
,,,p,1,0.7827,0,0.056050915,#f3af84,,right_orange.png,p,5,3,23,1,1,o,right_blue.png,right_orange.png,p,right,610536bd3533c7e93ce89d2f,001,2021-08-09_09h18.53.795,arrow_simon_norep,2021.1.2,MacIntel,60.0024001,,,,,,,,,,,,,,,,,,,,,,,,,,,,,,,,,,,,,,
,,,o,1,1.7703,0,0.832143667,#a3d0fb,,right_blue.png,o,6,0,24,0,1,o,right_blue.png,right_orange.png,p,left,610536bd3533c7e93ce89d2f,001,2021-08-09_09h18.53.795,arrow_simon_norep,2021.1.2,MacIntel,60.0024001,,,,,,,,,,,,,,,,,,,,,,,,,,,,,,,,,,,,,,
,,,p,1,0.9191,0,0.011187438,#f3af84,,right_orange.png,p,6,1,25,0,1,o,right_blue.png,right_orange.png,p,left,610536bd3533c7e93ce89d2f,001,2021-08-09_09h18.53.795,arrow_simon_norep,2021.1.2,MacIntel,60.0024001,,,,,,,,,,,,,,,,,,,,,,,,,,,,,,,,,,,,,,
,,,w,1,1.7109,0,0.953882107,#a3d0fb,,left_blue.png,w,6,2,26,3,1,w,left_blue.png,left_orange.png,q,right,610536bd3533c7e93ce89d2f,001,2021-08-09_09h18.53.795,arrow_simon_norep,2021.1.2,MacIntel,60.0024001,,,,,,,,,,,,,,,,,,,,,,,,,,,,,,,,,,,,,,
,,,p,1,1.396,0,0.600846896,#f3af84,,right_orange.png,p,6,3,27,1,1,o,right_blue.png,right_orange.png,p,right,610536bd3533c7e93ce89d2f,001,2021-08-09_09h18.53.795,arrow_simon_norep,2021.1.2,MacIntel,60.0024001,,,,,,,,,,,,,,,,,,,,,,,,,,,,,,,,,,,,,,
,,,w,1,1.3001,0,0.593777012,#a3d0fb,,left_blue.png,w,7,0,28,2,1,w,left_blue.png,left_orange.png,q,left,610536bd3533c7e93ce89d2f,001,2021-08-09_09h18.53.795,arrow_simon_norep,2021.1.2,MacIntel,60.0024001,,,,,,,,,,,,,,,,,,,,,,,,,,,,,,,,,,,,,,
,,,p,1,1.4006,0,0.574409006,#f3af84,,right_orange.png,p,7,1,29,1,1,o,right_blue.png,right_orange.png,p,right,610536bd3533c7e93ce89d2f,001,2021-08-09_09h18.53.795,arrow_simon_norep,2021.1.2,MacIntel,60.0024001,,,,,,,,,,,,,,,,,,,,,,,,,,,,,,,,,,,,,,
,,,o,1,1.3816,0,0.652792953,#a3d0fb,,right_blue.png,o,7,2,30,0,1,o,right_blue.png,right_orange.png,p,left,610536bd3533c7e93ce89d2f,001,2021-08-09_09h18.53.795,arrow_simon_norep,2021.1.2,MacIntel,60.0024001,,,,,,,,,,,,,,,,,,,,,,,,,,,,,,,,,,,,,,
,,,p,1,1.378,0,0.835444413,#f3af84,,right_orange.png,p,7,3,31,0,1,o,right_blue.png,right_orange.png,p,left,610536bd3533c7e93ce89d2f,001,2021-08-09_09h18.53.795,arrow_simon_norep,2021.1.2,MacIntel,60.0024001,,,,,,,,,,,,,,,,,,,,,,,,,,,,,,,,,,,,,,
,,,w,1,0.9991,0,0.416658927,#a3d0fb,,left_blue.png,w,8,0,32,3,1,w,left_blue.png,left_orange.png,q,right,610536bd3533c7e93ce89d2f,001,2021-08-09_09h18.53.795,arrow_simon_norep,2021.1.2,MacIntel,60.0024001,,,,,,,,,,,,,,,,,,,,,,,,,,,,,,,,,,,,,,
,,,q,1,1.1493,0,0.251100397,#f3af84,,left_orange.png,q,8,1,33,3,1,w,left_blue.png,left_orange.png,q,right,610536bd3533c7e93ce89d2f,001,2021-08-09_09h18.53.795,arrow_simon_norep,2021.1.2,MacIntel,60.0024001,,,,,,,,,,,,,,,,,,,,,,,,,,,,,,,,,,,,,,
,,,w,1,1.7035,0,0.879162719,#a3d0fb,,left_blue.png,w,8,2,34,3,1,w,left_blue.png,left_orange.png,q,right,610536bd3533c7e93ce89d2f,001,2021-08-09_09h18.53.795,arrow_simon_norep,2021.1.2,MacIntel,60.0024001,,,,,,,,,,,,,,,,,,,,,,,,,,,,,,,,,,,,,,
,,,q,1,0.766,0,0.076020867,#f3af84,,left_orange.png,q,8,3,35,2,1,w,left_blue.png,left_orange.png,q,left,610536bd3533c7e93ce89d2f,001,2021-08-09_09h18.53.795,arrow_simon_norep,2021.1.2,MacIntel,60.0024001,,,,,,,,,,,,,,,,,,,,,,,,,,,,,,,,,,,,,,
,,,o,1,1.8359,0,0.962505096,#a3d0fb,,right_blue.png,o,9,0,36,0,1,o,right_blue.png,right_orange.png,p,left,610536bd3533c7e93ce89d2f,001,2021-08-09_09h18.53.795,arrow_simon_norep,2021.1.2,MacIntel,60.0024001,,,,,,,,,,,,,,,,,,,,,,,,,,,,,,,,,,,,,,
,,,p,1,0.8178,0,0.283085091,#f3af84,,right_orange.png,p,9,1,37,1,1,o,right_blue.png,right_orange.png,p,right,610536bd3533c7e93ce89d2f,001,2021-08-09_09h18.53.795,arrow_simon_norep,2021.1.2,MacIntel,60.0024001,,,,,,,,,,,,,,,,,,,,,,,,,,,,,,,,,,,,,,
,,,w,1,1.9839,0,0.960856633,#a3d0fb,,left_blue.png,w,9,2,38,3,1,w,left_blue.png,left_orange.png,q,right,610536bd3533c7e93ce89d2f,001,2021-08-09_09h18.53.795,arrow_simon_norep,2021.1.2,MacIntel,60.0024001,,,,,,,,,,,,,,,,,,,,,,,,,,,,,,,,,,,,,,
,,,p,1,1.0666,0,0.447401908,#f3af84,,right_orange.png,p,9,3,39,1,1,o,right_blue.png,right_orange.png,p,right,610536bd3533c7e93ce89d2f,001,2021-08-09_09h18.53.795,arrow_simon_norep,2021.1.2,MacIntel,60.0024001,,,,,,,,,,,,,,,,,,,,,,,,,,,,,,,,,,,,,,
,,,w,1,1.2306,0,0.447026207,#a3d0fb,,left_blue.png,w,10,0,40,2,1,w,left_blue.png,left_orange.png,q,left,610536bd3533c7e93ce89d2f,001,2021-08-09_09h18.53.795,arrow_simon_norep,2021.1.2,MacIntel,60.0024001,,,,,,,,,,,,,,,,,,,,,,,,,,,,,,,,,,,,,,
,,,p,1,1.2175,0,0.559156469,#f3af84,,right_orange.png,p,10,1,41,0,1,o,right_blue.png,right_orange.png,p,left,610536bd3533c7e93ce89d2f,001,2021-08-09_09h18.53.795,arrow_simon_norep,2021.1.2,MacIntel,60.0024001,,,,,,,,,,,,,,,,,,,,,,,,,,,,,,,,,,,,,,
,,,o,1,1.4846,0,0.759481216,#a3d0fb,,right_blue.png,o,10,2,42,0,1,o,right_blue.png,right_orange.png,p,left,610536bd3533c7e93ce89d2f,001,2021-08-09_09h18.53.795,arrow_simon_norep,2021.1.2,MacIntel,60.0024001,,,,,,,,,,,,,,,,,,,,,,,,,,,,,,,,,,,,,,
,,,q,1,1.4507,0,0.560197055,#f3af84,,left_orange.png,q,10,3,43,3,1,w,left_blue.png,left_orange.png,q,right,610536bd3533c7e93ce89d2f,001,2021-08-09_09h18.53.795,arrow_simon_norep,2021.1.2,MacIntel,60.0024001,,,,,,,,,,,,,,,,,,,,,,,,,,,,,,,,,,,,,,
,,,w,1,1.1677,0,0.302104741,#a3d0fb,,left_blue.png,w,11,0,44,3,1,w,left_blue.png,left_orange.png,q,right,610536bd3533c7e93ce89d2f,001,2021-08-09_09h18.53.795,arrow_simon_norep,2021.1.2,MacIntel,60.0024001,,,,,,,,,,,,,,,,,,,,,,,,,,,,,,,,,,,,,,
,,,q,1,1.0863,0,0.438158354,#f3af84,,left_orange.png,q,11,1,45,2,1,w,left_blue.png,left_orange.png,q,left,610536bd3533c7e93ce89d2f,001,2021-08-09_09h18.53.795,arrow_simon_norep,2021.1.2,MacIntel,60.0024001,,,,,,,,,,,,,,,,,,,,,,,,,,,,,,,,,,,,,,
,,,o,1,1.5831,0,0.747149281,#a3d0fb,,right_blue.png,o,11,2,46,1,1,o,right_blue.png,right_orange.png,p,right,610536bd3533c7e93ce89d2f,001,2021-08-09_09h18.53.795,arrow_simon_norep,2021.1.2,MacIntel,60.0024001,,,,,,,,,,,,,,,,,,,,,,,,,,,,,,,,,,,,,,
,,,q,1,0.966,0,0.456214703,#f3af84,,left_orange.png,q,11,3,47,2,1,w,left_blue.png,left_orange.png,q,left,610536bd3533c7e93ce89d2f,001,2021-08-09_09h18.53.795,arrow_simon_norep,2021.1.2,MacIntel,60.0024001,,,,,,,,,,,,,,,,,,,,,,,,,,,,,,,,,,,,,,
,,,o,1,1.7159,0,0.536681041,#a3d0fb,,right_blue.png,o,12,0,48,0,1,o,right_blue.png,right_orange.png,p,left,610536bd3533c7e93ce89d2f,001,2021-08-09_09h18.53.795,arrow_simon_norep,2021.1.2,MacIntel,60.0024001,,,,,,,,,,,,,,,,,,,,,,,,,,,,,,,,,,,,,,
,,,p,1,0.9846,0,0.273335277,#f3af84,,right_orange.png,p,12,1,49,0,1,o,right_blue.png,right_orange.png,p,left,610536bd3533c7e93ce89d2f,001,2021-08-09_09h18.53.795,arrow_simon_norep,2021.1.2,MacIntel,60.0024001,,,,,,,,,,,,,,,,,,,,,,,,,,,,,,,,,,,,,,
,,,o,1,1.5319,0,0.483289356,#a3d0fb,,right_blue.png,o,12,2,50,1,1,o,right_blue.png,right_orange.png,p,right,610536bd3533c7e93ce89d2f,001,2021-08-09_09h18.53.795,arrow_simon_norep,2021.1.2,MacIntel,60.0024001,,,,,,,,,,,,,,,,,,,,,,,,,,,,,,,,,,,,,,
,,,p,1,1.1024,0,0.41239894,#f3af84,,right_orange.png,p,12,3,51,1,1,o,right_blue.png,right_orange.png,p,right,610536bd3533c7e93ce89d2f,001,2021-08-09_09h18.53.795,arrow_simon_norep,2021.1.2,MacIntel,60.0024001,,,,,,,,,,,,,,,,,,,,,,,,,,,,,,,,,,,,,,
,,,w,1,1.1627,0,0.295947895,#a3d0fb,,left_blue.png,w,13,0,52,3,1,w,left_blue.png,left_orange.png,q,right,610536bd3533c7e93ce89d2f,001,2021-08-09_09h18.53.795,arrow_simon_norep,2021.1.2,MacIntel,60.0024001,,,,,,,,,,,,,,,,,,,,,,,,,,,,,,,,,,,,,,
,,,p,1,0.9861,0,0.403119796,#f3af84,,right_orange.png,p,13,1,53,1,1,o,right_blue.png,right_orange.png,p,right,610536bd3533c7e93ce89d2f,001,2021-08-09_09h18.53.795,arrow_simon_norep,2021.1.2,MacIntel,60.0024001,,,,,,,,,,,,,,,,,,,,,,,,,,,,,,,,,,,,,,
,,,o,1,1.4515,0,0.718075797,#a3d0fb,,right_blue.png,o,13,2,54,1,1,o,right_blue.png,right_orange.png,p,right,610536bd3533c7e93ce89d2f,001,2021-08-09_09h18.53.795,arrow_simon_norep,2021.1.2,MacIntel,60.0024001,,,,,,,,,,,,,,,,,,,,,,,,,,,,,,,,,,,,,,
,,,q,1,1.2338,0,0.375695402,#f3af84,,left_orange.png,q,13,3,55,3,1,w,left_blue.png,left_orange.png,q,right,610536bd3533c7e93ce89d2f,001,2021-08-09_09h18.53.795,arrow_simon_norep,2021.1.2,MacIntel,60.0024001,,,,,,,,,,,,,,,,,,,,,,,,,,,,,,,,,,,,,,
,,,o,1,1.2349,0,0.588691877,#a3d0fb,,right_blue.png,o,14,0,56,0,1,o,right_blue.png,right_orange.png,p,left,610536bd3533c7e93ce89d2f,001,2021-08-09_09h18.53.795,arrow_simon_norep,2021.1.2,MacIntel,60.0024001,,,,,,,,,,,,,,,,,,,,,,,,,,,,,,,,,,,,,,
,,,p,1,0.8846,0,0.297806202,#f3af84,,right_orange.png,p,14,1,57,0,1,o,right_blue.png,right_orange.png,p,left,610536bd3533c7e93ce89d2f,001,2021-08-09_09h18.53.795,arrow_simon_norep,2021.1.2,MacIntel,60.0024001,,,,,,,,,,,,,,,,,,,,,,,,,,,,,,,,,,,,,,
,,,w,1,1.2012,0,0.546948919,#a3d0fb,,left_blue.png,w,14,2,58,3,1,w,left_blue.png,left_orange.png,q,right,610536bd3533c7e93ce89d2f,001,2021-08-09_09h18.53.795,arrow_simon_norep,2021.1.2,MacIntel,60.0024001,,,,,,,,,,,,,,,,,,,,,,,,,,,,,,,,,,,,,,
,,,p,1,1.0849,0,0.507121611,#f3af84,,right_orange.png,p,14,3,59,1,1,o,right_blue.png,right_orange.png,p,right,610536bd3533c7e93ce89d2f,001,2021-08-09_09h18.53.795,arrow_simon_norep,2021.1.2,MacIntel,60.0024001,,,,,,,,,,,,,,,,,,,,,,,,,,,,,,,,,,,,,,
,,,,,,,,,,,,,,,,,,,,,,610536bd3533c7e93ce89d2f,001,2021-08-09_09h18.53.795,arrow_simon_norep,2021.1.2,MacIntel,60.0024001,space,54.75,1,0,1,0,1,,,,,,,,,,,,,,,,,,,,,,,,,,,,,,,
,,,,,,,,,,,,,,,,,,,,,,610536bd3533c7e93ce89d2f,001,2021-08-09_09h18.53.795,arrow_simon_norep,2021.1.2,MacIntel,60.0024001,,,,,,,,space,0,52.3834,w,3.0995,0,0,0,0,1,,,,,,,,,,,,,,,,,,,,,
,,,,,,,,,,,,,,,,,,,,,,610536bd3533c7e93ce89d2f,001,2021-08-09_09h18.53.795,arrow_simon_norep,2021.1.2,MacIntel,60.0024001,,,,,,,,,,,o,2.9527,1,0,1,0,1,,,,,,,,,,,,,,,,,,,,,
,,,,,,,,,,,,,,,,,,,,,,610536bd3533c7e93ce89d2f,001,2021-08-09_09h18.53.795,arrow_simon_norep,2021.1.2,MacIntel,60.0024001,,,,,,,,,,,q,3.4344,2,0,2,0,1,,,,,,,,,,,,,,,,,,,,,
,,,,,,,,,,,,,,,,,,,,,,610536bd3533c7e93ce89d2f,001,2021-08-09_09h18.53.795,arrow_simon_norep,2021.1.2,MacIntel,60.0024001,,,,,,,,,,,p,2.8044,3,0,3,0,1,,,,,,,,,,,,,,,,,,,,,
,,,,,,,,,,,,,,,,,,,,,,610536bd3533c7e93ce89d2f,001,2021-08-09_09h18.53.795,arrow_simon_norep,2021.1.2,MacIntel,60.0024001,,,,,,,,,,,w,2.834,4,0,4,0,1,,,,,,,,,,,,,,,,,,,,,
,,,,,,,,,,,,,,,,,,,,,,610536bd3533c7e93ce89d2f,001,2021-08-09_09h18.53.795,arrow_simon_norep,2021.1.2,MacIntel,60.0024001,,,,,,,,,,,q,2.9197,5,0,5,0,1,,,,,,,,,,,,,,,,,,,,,
,,,,,,,,,,,,,,,,,,,,,,610536bd3533c7e93ce89d2f,001,2021-08-09_09h18.53.795,arrow_simon_norep,2021.1.2,MacIntel,60.0024001,,,,,,,,,,,w,2.1449,6,0,6,0,1,,,,,,,,,,,,,,,,,,,,,
,,,,,,,,,,,,,,,,,,,,,,610536bd3533c7e93ce89d2f,001,2021-08-09_09h18.53.795,arrow_simon_norep,2021.1.2,MacIntel,60.0024001,,,,,,,,,,,p,2.6508,7,0,7,0,1,,,,,,,,,,,,,,,,,,,,,
,,,,,,,,,,,,,,,,,,,,,,610536bd3533c7e93ce89d2f,001,2021-08-09_09h18.53.795,arrow_simon_norep,2021.1.2,MacIntel,60.0024001,,,,,,,,,,,w,2.8008,8,0,8,0,1,,,,,,,,,,,,,,,,,,,,,
,,,,,,,,,,,,,,,,,,,,,,610536bd3533c7e93ce89d2f,001,2021-08-09_09h18.53.795,arrow_simon_norep,2021.1.2,MacIntel,60.0024001,,,,,,,,,,,p,2.1664,9,0,9,0,1,,,,,,,,,,,,,,,,,,,,,
,,,,,,,,,,,,,,,,,,,,,,610536bd3533c7e93ce89d2f,001,2021-08-09_09h18.53.795,arrow_simon_norep,2021.1.2,MacIntel,60.0024001,,,,,,,,,,,w,2.2331,10,0,10,0,1,,,,,,,,,,,,,,,,,,,,,
,,,,,,,,,,,,,,,,,,,,,,610536bd3533c7e93ce89d2f,001,2021-08-09_09h18.53.795,arrow_simon_norep,2021.1.2,MacIntel,60.0024001,,,,,,,,,,,p,2.6703,11,0,11,0,1,,,,,,,,,,,,,,,,,,,,,
,,,,,,,,,,,,,,,,,,,,,,610536bd3533c7e93ce89d2f,001,2021-08-09_09h18.53.795,arrow_simon_norep,2021.1.2,MacIntel,60.0024001,,,,,,,,,,,w,2.2608,12,0,12,0,1,,,,,,,,,,,,,,,,,,,,,
,,,,,,,,,,,,,,,,,,,,,,610536bd3533c7e93ce89d2f,001,2021-08-09_09h18.53.795,arrow_simon_norep,2021.1.2,MacIntel,60.0024001,,,,,,,,,,,p,2.5688,13,0,13,0,1,,,,,,,,,,,,,,,,,,,,,
,,,,,,,,,,,,,,,,,,,,,,610536bd3533c7e93ce89d2f,001,2021-08-09_09h18.53.795,arrow_simon_norep,2021.1.2,MacIntel,60.0024001,,,,,,,,,,,w,2.2344,14,0,14,0,1,,,,,,,,,,,,,,,,,,,,,
,,,,,,,,,,,,,,,,,,,,,,610536bd3533c7e93ce89d2f,001,2021-08-09_09h18.53.795,arrow_simon_norep,2021.1.2,MacIntel,60.0024001,,,,,,,,,,,p,2.6332,15,0,15,0,1,,,,,,,,,,,,,,,,,,,,,
,,,,,,,,,,,,,,,,,,,,,,610536bd3533c7e93ce89d2f,001,2021-08-09_09h18.53.795,arrow_simon_norep,2021.1.2,MacIntel,60.0024001,,,,,,,,,,,w,2.4324,16,0,16,0,1,,,,,,,,,,,,,,,,,,,,,
,,,,,,,,,,,,,,,,,,,,,,610536bd3533c7e93ce89d2f,001,2021-08-09_09h18.53.795,arrow_simon_norep,2021.1.2,MacIntel,60.0024001,,,,,,,,,,,p,2.6289,17,0,17,0,1,,,,,,,,,,,,,,,,,,,,,
,,,,,,,,,,,,,,,,,,,,,,610536bd3533c7e93ce89d2f,001,2021-08-09_09h18.53.795,arrow_simon_norep,2021.1.2,MacIntel,60.0024001,,,,,,,,,,,w,2.3938,18,0,18,0,1,,,,,,,,,,,,,,,,,,,,,
,,,,,,,,,,,,,,,,,,,,,,610536bd3533c7e93ce89d2f,001,2021-08-09_09h18.53.795,arrow_simon_norep,2021.1.2,MacIntel,60.0024001,,,,,,,,,,,p,2.184,19,0,19,0,1,,,,,,,,,,,,,,,,,,,,,
,,,,,,,,,,,,,,,,,,,,,,610536bd3533c7e93ce89d2f,001,2021-08-09_09h18.53.795,arrow_simon_norep,2021.1.2,MacIntel,60.0024001,,,,,,,,,,,w,2.4471,20,0,20,0,1,,,,,,,,,,,,,,,,,,,,,
,,,,,,,,,,,,,,,,,,,,,,610536bd3533c7e93ce89d2f,001,2021-08-09_09h18.53.795,arrow_simon_norep,2021.1.2,MacIntel,60.0024001,,,,,,,,,,,p,2.3331,21,0,21,0,1,,,,,,,,,,,,,,,,,,,,,
,,,,,,,,,,,,,,,,,,,,,,610536bd3533c7e93ce89d2f,001,2021-08-09_09h18.53.795,arrow_simon_norep,2021.1.2,MacIntel,60.0024001,,,,,,,,,,,w,2.3844,22,0,22,0,1,,,,,,,,,,,,,,,,,,,,,
,,,,,,,,,,,,,,,,,,,,,,610536bd3533c7e93ce89d2f,001,2021-08-09_09h18.53.795,arrow_simon_norep,2021.1.2,MacIntel,60.0024001,,,,,,,,,,,p,2.4011,23,0,23,0,1,,,,,,,,,,,,,,,,,,,,,
,,,,,,,,,,,,,,,,,,,,,,610536bd3533c7e93ce89d2f,001,2021-08-09_09h18.53.795,arrow_simon_norep,2021.1.2,MacIntel,60.0024001,,,,,,,,,,,w,2.4119,24,0,24,0,1,,,,,,,,,,,,,,,,,,,,,
,,,,,,,,,,,,,,,,,,,,,,610536bd3533c7e93ce89d2f,001,2021-08-09_09h18.53.795,arrow_simon_norep,2021.1.2,MacIntel,60.0024001,,,,,,,,,,,p,2.2456,25,0,25,0,1,,,,,,,,,,,,,,,,,,,,,
,,,,,,,,,,,,,,,,,,,,,,610536bd3533c7e93ce89d2f,001,2021-08-09_09h18.53.795,arrow_simon_norep,2021.1.2,MacIntel,60.0024001,,,,,,,,,,,w,2.6842,26,0,26,0,1,,,,,,,,,,,,,,,,,,,,,
,,,,,,,,,,,,,,,,,,,,,,610536bd3533c7e93ce89d2f,001,2021-08-09_09h18.53.795,arrow_simon_norep,2021.1.2,MacIntel,60.0024001,,,,,,,,,,,p,1.8663,27,0,27,0,1,,,,,,,,,,,,,,,,,,,,,
,,,,,,,,,,,,,,,,,,,,,,610536bd3533c7e93ce89d2f,001,2021-08-09_09h18.53.795,arrow_simon_norep,2021.1.2,MacIntel,60.0024001,,,,,,,,,,,w,2.4168,28,0,28,0,1,,,,,,,,,,,,,,,,,,,,,
,,,,,,,,,,,,,,,,,,,,,,610536bd3533c7e93ce89d2f,001,2021-08-09_09h18.53.795,arrow_simon_norep,2021.1.2,MacIntel,60.0024001,,,,,,,,,,,p,2.2527,29,0,29,0,1,,,,,,,,,,,,,,,,,,,,,
,,,,,,,,,,,,,,,,,,,,,,610536bd3533c7e93ce89d2f,001,2021-08-09_09h18.53.795,arrow_simon_norep,2021.1.2,MacIntel,60.0024001,,,,,,,,,,,w,2.6351,30,0,30,0,1,,,,,,,,,,,,,,,,,,,,,
,,,,,,,,,,,,,,,,,,,,,,610536bd3533c7e93ce89d2f,001,2021-08-09_09h18.53.795,arrow_simon_norep,2021.1.2,MacIntel,60.0024001,,,,,,,,,,,p,2.2681,31,0,31,0,1,,,,,,,,,,,,,,,,,,,,,
,,,,,,,,,,,,,,,,,,,,,,610536bd3533c7e93ce89d2f,001,2021-08-09_09h18.53.795,arrow_simon_norep,2021.1.2,MacIntel,60.0024001,,,,,,,,,,,w,2.5766,32,0,32,0,1,,,,,,,,,,,,,,,,,,,,,
,,,,,,,,,,,,,,,,,,,,,,610536bd3533c7e93ce89d2f,001,2021-08-09_09h18.53.795,arrow_simon_norep,2021.1.2,MacIntel,60.0024001,,,,,,,,,,,p,2.4361,33,0,33,0,1,,,,,,,,,,,,,,,,,,,,,
,,,,,,,,,,,,,,,,,,,,,,610536bd3533c7e93ce89d2f,001,2021-08-09_09h18.53.795,arrow_simon_norep,2021.1.2,MacIntel,60.0024001,,,,,,,,,,,w,2.4668,34,0,34,0,1,,,,,,,,,,,,,,,,,,,,,
,,,,,,,,,,,,,,,,,,,,,,610536bd3533c7e93ce89d2f,001,2021-08-09_09h18.53.795,arrow_simon_norep,2021.1.2,MacIntel,60.0024001,,,,,,,,,,,p,2.4655,35,0,35,0,1,,,,,,,,,,,,,,,,,,,,,
,,,,,,,,,,,,,,,,,,,,,,610536bd3533c7e93ce89d2f,001,2021-08-09_09h18.53.795,arrow_simon_norep,2021.1.2,MacIntel,60.0024001,,,,,,,,,,,w,2.5509,36,0,36,0,1,,,,,,,,,,,,,,,,,,,,,
,,,,,,,,,,,,,,,,,,,,,,610536bd3533c7e93ce89d2f,001,2021-08-09_09h18.53.795,arrow_simon_norep,2021.1.2,MacIntel,60.0024001,,,,,,,,,,,p,2.4455,37,0,37,0,1,,,,,,,,,,,,,,,,,,,,,
,,,,,,,,,,,,,,,,,,,,,,610536bd3533c7e93ce89d2f,001,2021-08-09_09h18.53.795,arrow_simon_norep,2021.1.2,MacIntel,60.0024001,,,,,,,,,,,w,2.4172,38,0,38,0,1,,,,,,,,,,,,,,,,,,,,,
,,,,,,,,,,,,,,,,,,,,,,610536bd3533c7e93ce89d2f,001,2021-08-09_09h18.53.795,arrow_simon_norep,2021.1.2,MacIntel,60.0024001,,,,,,,,,,,p,2.6338,39,0,39,0,1,,,,,,,,,,,,,,,,,,,,,
,,,,,,,,,,,,,,,,,,,,,,610536bd3533c7e93ce89d2f,001,2021-08-09_09h18.53.795,arrow_simon_norep,2021.1.2,MacIntel,60.0024001,,,,,,,,,,,w,2.2015,40,0,40,0,1,,,,,,,,,,,,,,,,,,,,,
,,,,,,,,,,,,,,,,,,,,,,610536bd3533c7e93ce89d2f,001,2021-08-09_09h18.53.795,arrow_simon_norep,2021.1.2,MacIntel,60.0024001,,,,,,,,,,,p,2.4286,41,0,41,0,1,,,,,,,,,,,,,,,,,,,,,
,,,,,,,,,,,,,,,,,,,,,,610536bd3533c7e93ce89d2f,001,2021-08-09_09h18.53.795,arrow_simon_norep,2021.1.2,MacIntel,60.0024001,,,,,,,,,,,w,2.5993,42,0,42,0,1,,,,,,,,,,,,,,,,,,,,,
,,,,,,,,,,,,,,,,,,,,,,610536bd3533c7e93ce89d2f,001,2021-08-09_09h18.53.795,arrow_simon_norep,2021.1.2,MacIntel,60.0024001,,,,,,,,,,,p,2.55,43,0,43,0,1,,,,,,,,,,,,,,,,,,,,,
,,,,,,,,,,,,,,,,,,,,,,610536bd3533c7e93ce89d2f,001,2021-08-09_09h18.53.795,arrow_simon_norep,2021.1.2,MacIntel,60.0024001,,,,,,,,,,,w,2.4333,44,0,44,0,1,,,,,,,,,,,,,,,,,,,,,
,,,,,,,,,,,,,,,,,,,,,,610536bd3533c7e93ce89d2f,001,2021-08-09_09h18.53.795,arrow_simon_norep,2021.1.2,MacIntel,60.0024001,,,,,,,,,,,p,2.35,45,0,45,0,1,,,,,,,,,,,,,,,,,,,,,
,,,,,,,,,,,,,,,,,,,,,,610536bd3533c7e93ce89d2f,001,2021-08-09_09h18.53.795,arrow_simon_norep,2021.1.2,MacIntel,60.0024001,,,,,,,,,,,w,2.4011,46,0,46,0,1,,,,,,,,,,,,,,,,,,,,,
,,,,,,,,,,,,,,,,,,,,,,610536bd3533c7e93ce89d2f,001,2021-08-09_09h18.53.795,arrow_simon_norep,2021.1.2,MacIntel,60.0024001,,,,,,,,,,,p,2.4034,47,0,47,0,1,,,,,,,,,,,,,,,,,,,,,
,,,,,,,,,,,,,,,,,,,,,,610536bd3533c7e93ce89d2f,001,2021-08-09_09h18.53.795,arrow_simon_norep,2021.1.2,MacIntel,60.0024001,,,,,,,,,,,w,2.3674,48,0,48,0,1,,,,,,,,,,,,,,,,,,,,,
,,,,,,,,,,,,,,,,,,,,,,610536bd3533c7e93ce89d2f,001,2021-08-09_09h18.53.795,arrow_simon_norep,2021.1.2,MacIntel,60.0024001,,,,,,,,,,,p,2.4335,49,0,49,0,1,,,,,,,,,,,,,,,,,,,,,
,,,,,,,,,,,,,,,,,,,,,,610536bd3533c7e93ce89d2f,001,2021-08-09_09h18.53.795,arrow_simon_norep,2021.1.2,MacIntel,60.0024001,,,,,,,,,,,w,2.1784,50,0,50,0,1,,,,,,,,,,,,,,,,,,,,,
,,,,,,,,,,,,,,,,,,,,,,610536bd3533c7e93ce89d2f,001,2021-08-09_09h18.53.795,arrow_simon_norep,2021.1.2,MacIntel,60.0024001,,,,,,,,,,,p,2.2351,51,0,51,0,1,,,,,,,,,,,,,,,,,,,,,
,,,,,,,,,,,,,,,,,,,,,,610536bd3533c7e93ce89d2f,001,2021-08-09_09h18.53.795,arrow_simon_norep,2021.1.2,MacIntel,60.0024001,,,,,,,,,,,w,1.9341,52,0,52,0,1,,,,,,,,,,,,,,,,,,,,,
,,,,,,,,,,,,,,,,,,,,,,610536bd3533c7e93ce89d2f,001,2021-08-09_09h18.53.795,arrow_simon_norep,2021.1.2,MacIntel,60.0024001,,,,,,,,,,,p,2.7316,53,0,53,0,1,,,,,,,,,,,,,,,,,,,,,
,,,,,,,,,,,,,,,,,,,,,,610536bd3533c7e93ce89d2f,001,2021-08-09_09h18.53.795,arrow_simon_norep,2021.1.2,MacIntel,60.0024001,,,,,,,,,,,w,2.0846,54,0,54,0,1,,,,,,,,,,,,,,,,,,,,,
,,,,,,,,,,,,,,,,,,,,,,610536bd3533c7e93ce89d2f,001,2021-08-09_09h18.53.795,arrow_simon_norep,2021.1.2,MacIntel,60.0024001,,,,,,,,,,,p,2.4164,55,0,55,0,1,,,,,,,,,,,,,,,,,,,,,
,,,,,,,,,,,,,,,,,,,,,,610536bd3533c7e93ce89d2f,001,2021-08-09_09h18.53.795,arrow_simon_norep,2021.1.2,MacIntel,60.0024001,,,,,,,,,,,w,2.3666,56,0,56,0,1,,,,,,,,,,,,,,,,,,,,,
,,,,,,,,,,,,,,,,,,,,,,610536bd3533c7e93ce89d2f,001,2021-08-09_09h18.53.795,arrow_simon_norep,2021.1.2,MacIntel,60.0024001,,,,,,,,,,,p,2.3169,57,0,57,0,1,,,,,,,,,,,,,,,,,,,,,
,,,,,,,,,,,,,,,,,,,,,,610536bd3533c7e93ce89d2f,001,2021-08-09_09h18.53.795,arrow_simon_norep,2021.1.2,MacIntel,60.0024001,,,,,,,,,,,w,2.4176,58,0,58,0,1,,,,,,,,,,,,,,,,,,,,,
,,,,,,,,,,,,,,,,,,,,,,610536bd3533c7e93ce89d2f,001,2021-08-09_09h18.53.795,arrow_simon_norep,2021.1.2,MacIntel,60.0024001,,,,,,,,,,,p,2.5839,59,0,59,0,1,,,,,,,,,,,,,,,,,,,,,
,,,,,,1,2.385265169,#a3d0fb,,right_blue.png,o,,,,,,o,right_blue.png,right_orange.png,p,right,610536bd3533c7e93ce89d2f,001,2021-08-09_09h18.53.795,arrow_simon_norep,2021.1.2,MacIntel,60.0024001,,,,,,,,,,,,,,,,,,space,0,79.3803,w,0,1.5825,1,FALSE,FALSE,0,0,0,1,1,,,,,,,
,,,,,,1,1.770564944,#f3af84,,right_orange.png,p,,,,,,o,right_blue.png,right_orange.png,p,right,610536bd3533c7e93ce89d2f,001,2021-08-09_09h18.53.795,arrow_simon_norep,2021.1.2,MacIntel,60.0024001,,,,,,,,,,,,,,,,,,,,,p,1,1.0502,2,FALSE,TRUE,0,1,1,1,1,,,,,,,
,,,,,,1,1.846019555,#a3d0fb,,right_blue.png,o,,,,,,o,right_blue.png,right_orange.png,p,left,610536bd3533c7e93ce89d2f,001,2021-08-09_09h18.53.795,arrow_simon_norep,2021.1.2,MacIntel,60.0024001,,,,,,,,,,,,,,,,,,,,,w,0,1.1169,3,FALSE,TRUE,0,2,2,0,1,,,,,,,
,,,,,,1,2.006870159,#f3af84,,right_orange.png,p,,,,,,o,right_blue.png,right_orange.png,p,right,610536bd3533c7e93ce89d2f,001,2021-08-09_09h18.53.795,arrow_simon_norep,2021.1.2,MacIntel,60.0024001,,,,,,,,,,,,,,,,,,,,,p,1,1.3341,4,FALSE,TRUE,0,3,3,1,1,,,,,,,
,,,,,,1,1.507294498,#a3d0fb,,left_blue.png,w,,,,,,w,left_blue.png,left_orange.png,q,right,610536bd3533c7e93ce89d2f,001,2021-08-09_09h18.53.795,arrow_simon_norep,2021.1.2,MacIntel,60.0024001,,,,,,,,,,,,,,,,,,,,,w,1,1.7169,5,TRUE,FALSE,1,0,4,3,1,,,,,,,
,,,,,,1,1.87240561,#f3af84,,left_orange.png,q,,,,,,w,left_blue.png,left_orange.png,q,left,610536bd3533c7e93ce89d2f,001,2021-08-09_09h18.53.795,arrow_simon_norep,2021.1.2,MacIntel,60.0024001,,,,,,,,,,,,,,,,,,,,,w,0,1.2853,6,FALSE,TRUE,1,1,5,2,1,,,,,,,
,,,,,,1,2.477503197,#a3d0fb,,left_blue.png,w,,,,,,w,left_blue.png,left_orange.png,q,left,610536bd3533c7e93ce89d2f,001,2021-08-09_09h18.53.795,arrow_simon_norep,2021.1.2,MacIntel,60.0024001,,,,,,,,,,,,,,,,,,,,,w,1,1.7246,7,TRUE,FALSE,1,2,6,2,1,,,,,,,
,,,,,,0,1.931715221,#f3af84,,left_orange.png,q,,,,,,w,left_blue.png,left_orange.png,q,left,610536bd3533c7e93ce89d2f,001,2021-08-09_09h18.53.795,arrow_simon_norep,2021.1.2,MacIntel,60.0024001,,,,,,,,,,,,,,,,,,,,,q,1,1.4162,8,FALSE,FALSE,1,3,7,2,1,,,,,,,
,,,,,,0,2.410049171,#a3d0fb,,right_blue.png,o,,,,,,o,right_blue.png,right_orange.png,p,right,610536bd3533c7e93ce89d2f,001,2021-08-09_09h18.53.795,arrow_simon_norep,2021.1.2,MacIntel,60.0024001,,,,,,,,,,,,,,,,,,,,,o,1,1.6679,9,TRUE,FALSE,2,0,8,1,1,,,,,,,
,,,,,,0,2.369009043,#f3af84,,left_orange.png,q,,,,,,w,left_blue.png,left_orange.png,q,left,610536bd3533c7e93ce89d2f,001,2021-08-09_09h18.53.795,arrow_simon_norep,2021.1.2,MacIntel,60.0024001,,,,,,,,,,,,,,,,,,,,,p,0,1.9541,10,TRUE,FALSE,2,1,9,2,1,,,,,,,
,,,,,,0,2.394752471,#a3d0fb,,right_blue.png,o,,,,,,o,right_blue.png,right_orange.png,p,left,610536bd3533c7e93ce89d2f,001,2021-08-09_09h18.53.795,arrow_simon_norep,2021.1.2,MacIntel,60.0024001,,,,,,,,,,,,,,,,,,,,,w,0,1.6842,11,TRUE,FALSE,2,2,10,0,1,,,,,,,
,,,,,,0,1.548668983,#f3af84,,right_orange.png,p,,,,,,o,right_blue.png,right_orange.png,p,right,610536bd3533c7e93ce89d2f,001,2021-08-09_09h18.53.795,arrow_simon_norep,2021.1.2,MacIntel,60.0024001,,,,,,,,,,,,,,,,,,,,,p,1,1.3702,12,FALSE,TRUE,2,3,11,1,1,,,,,,,
,,,,,,0,2.405400474,#a3d0fb,,left_blue.png,w,,,,,,w,left_blue.png,left_orange.png,q,right,610536bd3533c7e93ce89d2f,001,2021-08-09_09h18.53.795,arrow_simon_norep,2021.1.2,MacIntel,60.0024001,,,,,,,,,,,,,,,,,,,,,w,1,1.7973,13,TRUE,FALSE,3,0,12,3,1,,,,,,,
,,,,,,0,2.366084806,#f3af84,,right_orange.png,p,,,,,,o,right_blue.png,right_orange.png,p,left,610536bd3533c7e93ce89d2f,001,2021-08-09_09h18.53.795,arrow_simon_norep,2021.1.2,MacIntel,60.0024001,,,,,,,,,,,,,,,,,,,,,p,1,1.7759,14,TRUE,FALSE,3,1,13,0,1,,,,,,,
,,,,,,0,1.768873229,#a3d0fb,,right_blue.png,o,,,,,,o,right_blue.png,right_orange.png,p,right,610536bd3533c7e93ce89d2f,001,2021-08-09_09h18.53.795,arrow_simon_norep,2021.1.2,MacIntel,60.0024001,,,,,,,,,,,,,,,,,,,,,o,1,1.4574,15,FALSE,FALSE,3,2,14,1,1,,,,,,,
,,,,,,1,2.114211859,#f3af84,,right_orange.png,p,,,,,,o,right_blue.png,right_orange.png,p,left,610536bd3533c7e93ce89d2f,001,2021-08-09_09h18.53.795,arrow_simon_norep,2021.1.2,MacIntel,60.0024001,,,,,,,,,,,,,,,,,,,,,w,0,1.4338,16,FALSE,FALSE,3,3,15,0,1,,,,,,,
,,,,,,1,2.454879833,#a3d0fb,,right_blue.png,o,,,,,,o,right_blue.png,right_orange.png,p,right,610536bd3533c7e93ce89d2f,001,2021-08-09_09h18.53.795,arrow_simon_norep,2021.1.2,MacIntel,60.0024001,,,,,,,,,,,,,,,,,,,,,o,1,2.034,17,TRUE,FALSE,4,0,16,1,1,,,,,,,
,,,,,,1,2.151277676,#f3af84,,right_orange.png,p,,,,,,o,right_blue.png,right_orange.png,p,right,610536bd3533c7e93ce89d2f,001,2021-08-09_09h18.53.795,arrow_simon_norep,2021.1.2,MacIntel,60.0024001,,,,,,,,,,,,,,,,,,,,,p,1,1.6852,18,TRUE,FALSE,4,1,17,1,1,,,,,,,
,,,,,,1,1.932697627,#a3d0fb,,left_blue.png,w,,,,,,w,left_blue.png,left_orange.png,q,right,610536bd3533c7e93ce89d2f,001,2021-08-09_09h18.53.795,arrow_simon_norep,2021.1.2,MacIntel,60.0024001,,,,,,,,,,,,,,,,,,,,,w,1,1.6501,19,TRUE,FALSE,4,2,18,3,1,,,,,,,
,,,,,,0,2.003738098,#f3af84,,right_orange.png,p,,,,,,o,right_blue.png,right_orange.png,p,left,610536bd3533c7e93ce89d2f,001,2021-08-09_09h18.53.795,arrow_simon_norep,2021.1.2,MacIntel,60.0024001,,,,,,,,,,,,,,,,,,,,,p,1,1.4171,20,FALSE,FALSE,4,3,19,0,1,,,,,,,
,,,,,,0,1.555981758,#a3d0fb,,left_blue.png,w,,,,,,w,left_blue.png,left_orange.png,q,left,610536bd3533c7e93ce89d2f,001,2021-08-09_09h18.53.795,arrow_simon_norep,2021.1.2,MacIntel,60.0024001,,,,,,,,,,,,,,,,,,,,,w,1,1.3331,21,FALSE,TRUE,5,0,20,2,1,,,,,,,
,,,,,,0,1.880068407,#f3af84,,right_orange.png,p,,,,,,o,right_blue.png,right_orange.png,p,right,610536bd3533c7e93ce89d2f,001,2021-08-09_09h18.53.795,arrow_simon_norep,2021.1.2,MacIntel,60.0024001,,,,,,,,,,,,,,,,,,,,,p,1,1.5684,22,FALSE,FALSE,5,1,21,1,1,,,,,,,
,,,,,,0,1.572707821,#a3d0fb,,left_blue.png,w,,,,,,w,left_blue.png,left_orange.png,q,right,610536bd3533c7e93ce89d2f,001,2021-08-09_09h18.53.795,arrow_simon_norep,2021.1.2,MacIntel,60.0024001,,,,,,,,,,,,,,,,,,,,,w,1,1.584,23,FALSE,FALSE,5,2,22,3,1,,,,,,,
,,,,,,0,2.327491012,#f3af84,,left_orange.png,q,,,,,,w,left_blue.png,left_orange.png,q,left,610536bd3533c7e93ce89d2f,001,2021-08-09_09h18.53.795,arrow_simon_norep,2021.1.2,MacIntel,60.0024001,,,,,,,,,,,,,,,,,,,,,q,1,1.9343,24,TRUE,FALSE,5,3,23,2,1,,,,,,,
,,,,,,0,1.82735856,#a3d0fb,,left_blue.png,w,,,,,,w,left_blue.png,left_orange.png,q,right,610536bd3533c7e93ce89d2f,001,2021-08-09_09h18.53.795,arrow_simon_norep,2021.1.2,MacIntel,60.0024001,,,,,,,,,,,,,,,,,,,,,w,1,1.6005,25,TRUE,FALSE,6,0,24,3,1,,,,,,,
,,,,,,0,1.894656203,#f3af84,,right_orange.png,p,,,,,,o,right_blue.png,right_orange.png,p,right,610536bd3533c7e93ce89d2f,001,2021-08-09_09h18.53.795,arrow_simon_norep,2021.1.2,MacIntel,60.0024001,,,,,,,,,,,,,,,,,,,,,p,1,1.6331,26,TRUE,FALSE,6,1,25,1,1,,,,,,,
,,,,,,0,1.84836298,#a3d0fb,,left_blue.png,w,,,,,,w,left_blue.png,left_orange.png,q,right,610536bd3533c7e93ce89d2f,001,2021-08-09_09h18.53.795,arrow_simon_norep,2021.1.2,MacIntel,60.0024001,,,,,,,,,,,,,,,,,,,,,w,1,1.1701,27,FALSE,TRUE,6,2,26,3,1,,,,,,,
,,,,,,0,2.205907084,#f3af84,,left_orange.png,q,,,,,,w,left_blue.png,left_orange.png,q,right,610536bd3533c7e93ce89d2f,001,2021-08-09_09h18.53.795,arrow_simon_norep,2021.1.2,MacIntel,60.0024001,,,,,,,,,,,,,,,,,,,,,o,0,1.3335,28,FALSE,TRUE,6,3,27,3,1,,,,,,,
,,,,,,0,2.106965205,#a3d0fb,,right_blue.png,o,,,,,,o,right_blue.png,right_orange.png,p,right,610536bd3533c7e93ce89d2f,001,2021-08-09_09h18.53.795,arrow_simon_norep,2021.1.2,MacIntel,60.0024001,,,,,,,,,,,,,,,,,,,,,o,1,1.5676,29,FALSE,FALSE,7,0,28,1,1,,,,,,,
,,,,,,0,1.713335107,#f3af84,,right_orange.png,p,,,,,,o,right_blue.png,right_orange.png,p,left,610536bd3533c7e93ce89d2f,001,2021-08-09_09h18.53.795,arrow_simon_norep,2021.1.2,MacIntel,60.0024001,,,,,,,,,,,,,,,,,,,,,p,1,1.8167,30,TRUE,FALSE,7,1,29,0,1,,,,,,,
,,,,,,0,2.203253492,#a3d0fb,,left_blue.png,w,,,,,,w,left_blue.png,left_orange.png,q,left,610536bd3533c7e93ce89d2f,001,2021-08-09_09h18.53.795,arrow_simon_norep,2021.1.2,MacIntel,60.0024001,,,,,,,,,,,,,,,,,,,,,w,1,1.4988,31,FALSE,FALSE,7,2,30,2,1,,,,,,,
,,,,,,0,2.318358246,#f3af84,,left_orange.png,q,,,,,,w,left_blue.png,left_orange.png,q,left,610536bd3533c7e93ce89d2f,001,2021-08-09_09h18.53.795,arrow_simon_norep,2021.1.2,MacIntel,60.0024001,,,,,,,,,,,,,,,,,,,,,o,0,1.6462,32,TRUE,FALSE,7,3,31,2,1,,,,,,,
,,,,,,0,2.099909569,#a3d0fb,,right_blue.png,o,,,,,,o,right_blue.png,right_orange.png,p,left,610536bd3533c7e93ce89d2f,001,2021-08-09_09h18.53.795,arrow_simon_norep,2021.1.2,MacIntel,60.0024001,,,,,,,,,,,,,,,,,,,,,p,0,1.6846,33,TRUE,FALSE,8,0,32,0,1,,,,,,,
,,,,,,0,2.058756723,#f3af84,,left_orange.png,q,,,,,,w,left_blue.png,left_orange.png,q,left,610536bd3533c7e93ce89d2f,001,2021-08-09_09h18.53.795,arrow_simon_norep,2021.1.2,MacIntel,60.0024001,,,,,,,,,,,,,,,,,,,,,o,0,0.9621,34,FALSE,TRUE,8,1,33,2,1,,,,,,,
,,,,,,0,1.856912743,#a3d0fb,,right_blue.png,o,,,,,,o,right_blue.png,right_orange.png,p,left,610536bd3533c7e93ce89d2f,001,2021-08-09_09h18.53.795,arrow_simon_norep,2021.1.2,MacIntel,60.0024001,,,,,,,,,,,,,,,,,,,,,o,1,1.6483,35,TRUE,FALSE,8,2,34,0,1,,,,,,,
,,,,,,0,1.692751421,#f3af84,,right_orange.png,p,,,,,,o,right_blue.png,right_orange.png,p,left,610536bd3533c7e93ce89d2f,001,2021-08-09_09h18.53.795,arrow_simon_norep,2021.1.2,MacIntel,60.0024001,,,,,,,,,,,,,,,,,,,,,p,1,1.506,36,FALSE,FALSE,8,3,35,0,1,,,,,,,
,,,,,,0,1.69435928,#a3d0fb,,left_blue.png,w,,,,,,w,left_blue.png,left_orange.png,q,right,610536bd3533c7e93ce89d2f,001,2021-08-09_09h18.53.795,arrow_simon_norep,2021.1.2,MacIntel,60.0024001,,,,,,,,,,,,,,,,,,,,,w,1,1.2021,37,FALSE,TRUE,9,0,36,3,1,,,,,,,
,,,,,,0,1.89104406,#f3af84,,left_orange.png,q,,,,,,w,left_blue.png,left_orange.png,q,right,610536bd3533c7e93ce89d2f,001,2021-08-09_09h18.53.795,arrow_simon_norep,2021.1.2,MacIntel,60.0024001,,,,,,,,,,,,,,,,,,,,,o,0,1.7655,38,TRUE,FALSE,9,1,37,3,1,,,,,,,
,,,,,,1,1.883185507,#a3d0fb,,left_blue.png,w,,,,,,w,left_blue.png,left_orange.png,q,right,610536bd3533c7e93ce89d2f,001,2021-08-09_09h18.53.795,arrow_simon_norep,2021.1.2,MacIntel,60.0024001,,,,,,,,,,,,,,,,,,,,,o,0,1.4669,39,FALSE,FALSE,9,2,38,3,1,,,,,,,
,,,,,,1,1.886910069,#f3af84,,left_orange.png,q,,,,,,w,left_blue.png,left_orange.png,q,left,610536bd3533c7e93ce89d2f,001,2021-08-09_09h18.53.795,arrow_simon_norep,2021.1.2,MacIntel,60.0024001,,,,,,,,,,,,,,,,,,,,,q,1,1.2602,40,FALSE,TRUE,9,3,39,2,1,,,,,,,
,,,,,,1,2.1936048,#a3d0fb,,left_blue.png,w,,,,,,w,left_blue.png,left_orange.png,q,left,610536bd3533c7e93ce89d2f,001,2021-08-09_09h18.53.795,arrow_simon_norep,2021.1.2,MacIntel,60.0024001,,,,,,,,,,,,,,,,,,,,,w,1,1.6676,41,TRUE,FALSE,10,0,40,2,1,,,,,,,
,,,,,,1,2.432626227,#f3af84,,right_orange.png,p,,,,,,o,right_blue.png,right_orange.png,p,right,610536bd3533c7e93ce89d2f,001,2021-08-09_09h18.53.795,arrow_simon_norep,2021.1.2,MacIntel,60.0024001,,,,,,,,,,,,,,,,,,,,,p,1,1.6998,42,TRUE,FALSE,10,1,41,1,1,,,,,,,
,,,,,,1,1.803979706,#a3d0fb,,left_blue.png,w,,,,,,w,left_blue.png,left_orange.png,q,right,610536bd3533c7e93ce89d2f,001,2021-08-09_09h18.53.795,arrow_simon_norep,2021.1.2,MacIntel,60.0024001,,,,,,,,,,,,,,,,,,,,,w,1,1.7333,43,TRUE,FALSE,10,2,42,3,1,,,,,,,
,,,,,,1,1.514942274,#f3af84,,right_orange.png,p,,,,,,o,right_blue.png,right_orange.png,p,right,610536bd3533c7e93ce89d2f,001,2021-08-09_09h18.53.795,arrow_simon_norep,2021.1.2,MacIntel,60.0024001,,,,,,,,,,,,,,,,,,,,,p,1,1.6506,44,TRUE,FALSE,10,3,43,1,1,,,,,,,
,,,,,,0,1.669654699,#a3d0fb,,right_blue.png,o,,,,,,o,right_blue.png,right_orange.png,p,left,610536bd3533c7e93ce89d2f,001,2021-08-09_09h18.53.795,arrow_simon_norep,2021.1.2,MacIntel,60.0024001,,,,,,,,,,,,,,,,,,,,,o,1,1.5514,45,FALSE,FALSE,11,0,44,0,1,,,,,,,
,,,,,,0,2.488238895,#f3af84,,right_orange.png,p,,,,,,o,right_blue.png,right_orange.png,p,right,610536bd3533c7e93ce89d2f,001,2021-08-09_09h18.53.795,arrow_simon_norep,2021.1.2,MacIntel,60.0024001,,,,,,,,,,,,,,,,,,,,,p,1,1.783,46,TRUE,FALSE,11,1,45,1,1,,,,,,,
,,,,,,0,1.554144908,#a3d0fb,,left_blue.png,w,,,,,,w,left_blue.png,left_orange.png,q,left,610536bd3533c7e93ce89d2f,001,2021-08-09_09h18.53.795,arrow_simon_norep,2021.1.2,MacIntel,60.0024001,,,,,,,,,,,,,,,,,,,,,w,1,1.4022,47,FALSE,FALSE,11,2,46,2,1,,,,,,,
,,,,,,0,2.351602097,#f3af84,,left_orange.png,q,,,,,,w,left_blue.png,left_orange.png,q,right,610536bd3533c7e93ce89d2f,001,2021-08-09_09h18.53.795,arrow_simon_norep,2021.1.2,MacIntel,60.0024001,,,,,,,,,,,,,,,,,,,,,p,0,1.6169,48,TRUE,FALSE,11,3,47,3,1,,,,,,,
,,,,,,0,1.92835923,#a3d0fb,,right_blue.png,o,,,,,,o,right_blue.png,right_orange.png,p,left,610536bd3533c7e93ce89d2f,001,2021-08-09_09h18.53.795,arrow_simon_norep,2021.1.2,MacIntel,60.0024001,,,,,,,,,,,,,,,,,,,,,o,1,1.8666,49,TRUE,FALSE,12,0,48,0,1,,,,,,,
,,,,,,0,2.318705608,#f3af84,,left_orange.png,q,,,,,,w,left_blue.png,left_orange.png,q,right,610536bd3533c7e93ce89d2f,001,2021-08-09_09h18.53.795,arrow_simon_norep,2021.1.2,MacIntel,60.0024001,,,,,,,,,,,,,,,,,,,,,q,1,1.6718,50,TRUE,FALSE,12,1,49,3,1,,,,,,,
,,,,,,0,2.371109535,#a3d0fb,,left_blue.png,w,,,,,,w,left_blue.png,left_orange.png,q,left,610536bd3533c7e93ce89d2f,001,2021-08-09_09h18.53.795,arrow_simon_norep,2021.1.2,MacIntel,60.0024001,,,,,,,,,,,,,,,,,,,,,w,1,1.6826,51,TRUE,FALSE,12,2,50,2,1,,,,,,,
,,,,,,0,2.033345256,#f3af84,,left_orange.png,q,,,,,,w,left_blue.png,left_orange.png,q,left,610536bd3533c7e93ce89d2f,001,2021-08-09_09h18.53.795,arrow_simon_norep,2021.1.2,MacIntel,60.0024001,,,,,,,,,,,,,,,,,,,,,q,1,1.3521,52,FALSE,TRUE,12,3,51,2,1,,,,,,,
,,,,,,0,2.131925931,#a3d0fb,,right_blue.png,o,,,,,,o,right_blue.png,right_orange.png,p,left,610536bd3533c7e93ce89d2f,001,2021-08-09_09h18.53.795,arrow_simon_norep,2021.1.2,MacIntel,60.0024001,,,,,,,,,,,,,,,,,,,,,p,0,1.6678,53,TRUE,FALSE,13,0,52,0,1,,,,,,,
,,,,,,0,1.66262216,#f3af84,,left_orange.png,q,,,,,,w,left_blue.png,left_orange.png,q,right,610536bd3533c7e93ce89d2f,001,2021-08-09_09h18.53.795,arrow_simon_norep,2021.1.2,MacIntel,60.0024001,,,,,,,,,,,,,,,,,,,,,q,1,1.4022,54,FALSE,FALSE,13,1,53,3,1,,,,,,,
,,,,,,0,2.283229245,#a3d0fb,,left_blue.png,w,,,,,,w,left_blue.png,left_orange.png,q,right,610536bd3533c7e93ce89d2f,001,2021-08-09_09h18.53.795,arrow_simon_norep,2021.1.2,MacIntel,60.0024001,,,,,,,,,,,,,,,,,,,,,q,0,1.985,55,TRUE,FALSE,13,2,54,3,1,,,,,,,
,,,,,,0,2.025837957,#f3af84,,right_orange.png,p,,,,,,o,right_blue.png,right_orange.png,p,left,610536bd3533c7e93ce89d2f,001,2021-08-09_09h18.53.795,arrow_simon_norep,2021.1.2,MacIntel,60.0024001,,,,,,,,,,,,,,,,,,,,,p,1,1.7066,56,TRUE,FALSE,13,3,55,0,1,,,,,,,
,,,,,,0,2.08204085,#a3d0fb,,right_blue.png,o,,,,,,o,right_blue.png,right_orange.png,p,left,610536bd3533c7e93ce89d2f,001,2021-08-09_09h18.53.795,arrow_simon_norep,2021.1.2,MacIntel,60.0024001,,,,,,,,,,,,,,,,,,,,,w,0,1.3827,57,FALSE,TRUE,14,0,56,0,1,,,,,,,
,,,,,,0,2.06891758,#f3af84,,right_orange.png,p,,,,,,o,right_blue.png,right_orange.png,p,right,610536bd3533c7e93ce89d2f,001,2021-08-09_09h18.53.795,arrow_simon_norep,2021.1.2,MacIntel,60.0024001,,,,,,,,,,,,,,,,,,,,,p,1,1.5007,58,FALSE,FALSE,14,1,57,1,1,,,,,,,
,,,,,,0,1.54656953,#a3d0fb,,right_blue.png,o,,,,,,o,right_blue.png,right_orange.png,p,left,610536bd3533c7e93ce89d2f,001,2021-08-09_09h18.53.795,arrow_simon_norep,2021.1.2,MacIntel,60.0024001,,,,,,,,,,,,,,,,,,,,,w,0,0.9429,59,FALSE,TRUE,14,2,58,0,1,,,,,,,
,,,,,,0,1.723897375,#f3af84,,left_orange.png,q,,,,,,w,left_blue.png,left_orange.png,q,left,610536bd3533c7e93ce89d2f,001,2021-08-09_09h18.53.795,arrow_simon_norep,2021.1.2,MacIntel,60.0024001,,,,,,,,,,,,,,,,,,,,,q,1,1.252,60,FALSE,TRUE,14,3,59,2,1,,,,,,,
,,,,,,,,,,,,,,,,,,,,,,610536bd3533c7e93ce89d2f,001,2021-08-09_09h18.53.795,arrow_simon_norep,2021.1.2,MacIntel,60.0024001,,,,,,,,,,,,,,,,,,,,,,,,,,,,,,,,space,538.9389,0,0,0,0,1
,,,,,,0,2.233318638,#a3d0fb,,left_blue.png,w,,,,,,w,left_blue.png,left_orange.png,q,right,610536bd3533c7e93ce89d2f,001,2021-08-09_09h18.53.795,arrow_simon_norep,2021.1.2,MacIntel,60.0024001,,,,,,,,,,,,,,,,,,,,,w,1,1.5342,1,FALSE,FALSE,0,0,0,3,1,,,,,,,
,,,,,,0,1.69206575,#f3af84,,left_orange.png,q,,,,,,w,left_blue.png,left_orange.png,q,left,610536bd3533c7e93ce89d2f,001,2021-08-09_09h18.53.795,arrow_simon_norep,2021.1.2,MacIntel,60.0024001,,,,,,,,,,,,,,,,,,,,,w,0,1.0904,2,FALSE,TRUE,0,1,1,2,1,,,,,,,
,,,,,,0,1.806943174,#a3d0fb,,left_blue.png,w,,,,,,w,left_blue.png,left_orange.png,q,right,610536bd3533c7e93ce89d2f,001,2021-08-09_09h18.53.795,arrow_simon_norep,2021.1.2,MacIntel,60.0024001,,,,,,,,,,,,,,,,,,,,,w,1,1.5619,3,FALSE,FALSE,0,2,2,3,1,,,,,,,
,,,,,,0,2.421034041,#f3af84,,left_orange.png,q,,,,,,w,left_blue.png,left_orange.png,q,left,610536bd3533c7e93ce89d2f,001,2021-08-09_09h18.53.795,arrow_simon_norep,2021.1.2,MacIntel,60.0024001,,,,,,,,,,,,,,,,,,,,,q,1,1.7663,4,TRUE,FALSE,0,3,3,2,1,,,,,,,
,,,,,,0,1.57301567,#a3d0fb,,right_blue.png,o,,,,,,o,right_blue.png,right_orange.png,p,right,610536bd3533c7e93ce89d2f,001,2021-08-09_09h18.53.795,arrow_simon_norep,2021.1.2,MacIntel,60.0024001,,,,,,,,,,,,,,,,,,,,,o,1,1.1847,5,FALSE,TRUE,1,0,4,1,1,,,,,,,
,,,,,,0,1.513379299,#f3af84,,left_orange.png,q,,,,,,w,left_blue.png,left_orange.png,q,left,610536bd3533c7e93ce89d2f,001,2021-08-09_09h18.53.795,arrow_simon_norep,2021.1.2,MacIntel,60.0024001,,,,,,,,,,,,,,,,,,,,,q,1,1.3302,6,FALSE,TRUE,1,1,5,2,1,,,,,,,
,,,,,,0,2.340545642,#a3d0fb,,left_blue.png,w,,,,,,w,left_blue.png,left_orange.png,q,right,610536bd3533c7e93ce89d2f,001,2021-08-09_09h18.53.795,arrow_simon_norep,2021.1.2,MacIntel,60.0024001,,,,,,,,,,,,,,,,,,,,,w,1,1.9666,7,TRUE,FALSE,1,2,6,3,1,,,,,,,
,,,,,,0,2.167053702,#f3af84,,left_orange.png,q,,,,,,w,left_blue.png,left_orange.png,q,right,610536bd3533c7e93ce89d2f,001,2021-08-09_09h18.53.795,arrow_simon_norep,2021.1.2,MacIntel,60.0024001,,,,,,,,,,,,,,,,,,,,,q,1,1.7504,8,TRUE,FALSE,1,3,7,3,1,,,,,,,
,,,,,,0,1.654247616,#a3d0fb,,right_blue.png,o,,,,,,o,right_blue.png,right_orange.png,p,left,610536bd3533c7e93ce89d2f,001,2021-08-09_09h18.53.795,arrow_simon_norep,2021.1.2,MacIntel,60.0024001,,,,,,,,,,,,,,,,,,,,,o,1,1.1832,9,FALSE,TRUE,2,0,8,0,1,,,,,,,
,,,,,,0,2.366720441,#f3af84,,right_orange.png,p,,,,,,o,right_blue.png,right_orange.png,p,left,610536bd3533c7e93ce89d2f,001,2021-08-09_09h18.53.795,arrow_simon_norep,2021.1.2,MacIntel,60.0024001,,,,,,,,,,,,,,,,,,,,,w,0,1.8189,10,TRUE,FALSE,2,1,9,0,1,,,,,,,
,,,,,,0,1.654220454,#a3d0fb,,left_blue.png,w,,,,,,w,left_blue.png,left_orange.png,q,right,610536bd3533c7e93ce89d2f,001,2021-08-09_09h18.53.795,arrow_simon_norep,2021.1.2,MacIntel,60.0024001,,,,,,,,,,,,,,,,,,,,,o,0,0.8682,11,FALSE,TRUE,2,2,10,3,1,,,,,,,
,,,,,,0,2.359447062,#f3af84,,right_orange.png,p,,,,,,o,right_blue.png,right_orange.png,p,left,610536bd3533c7e93ce89d2f,001,2021-08-09_09h18.53.795,arrow_simon_norep,2021.1.2,MacIntel,60.0024001,,,,,,,,,,,,,,,,,,,,,p,1,1.6665,12,TRUE,FALSE,2,3,11,0,1,,,,,,,
,,,,,,0,2.322965471,#a3d0fb,,left_blue.png,w,,,,,,w,left_blue.png,left_orange.png,q,right,610536bd3533c7e93ce89d2f,001,2021-08-09_09h18.53.795,arrow_simon_norep,2021.1.2,MacIntel,60.0024001,,,,,,,,,,,,,,,,,,,,,o,0,1.6501,13,TRUE,FALSE,3,0,12,3,1,,,,,,,
,,,,,,0,1.519553534,#f3af84,,left_orange.png,q,,,,,,w,left_blue.png,left_orange.png,q,left,610536bd3533c7e93ce89d2f,001,2021-08-09_09h18.53.795,arrow_simon_norep,2021.1.2,MacIntel,60.0024001,,,,,,,,,,,,,,,,,,,,,q,1,0.8688,14,FALSE,TRUE,3,1,13,2,1,,,,,,,
,,,,,,0,1.56135957,#a3d0fb,,left_blue.png,w,,,,,,w,left_blue.png,left_orange.png,q,right,610536bd3533c7e93ce89d2f,001,2021-08-09_09h18.53.795,arrow_simon_norep,2021.1.2,MacIntel,60.0024001,,,,,,,,,,,,,,,,,,,,,w,1,1.2191,15,FALSE,TRUE,3,2,14,3,1,,,,,,,
,,,,,,0,2.312532863,#f3af84,,right_orange.png,p,,,,,,o,right_blue.png,right_orange.png,p,right,610536bd3533c7e93ce89d2f,001,2021-08-09_09h18.53.795,arrow_simon_norep,2021.1.2,MacIntel,60.0024001,,,,,,,,,,,,,,,,,,,,,p,1,1.8537,16,TRUE,FALSE,3,3,15,1,1,,,,,,,
,,,,,,0,2.169968142,#a3d0fb,,right_blue.png,o,,,,,,o,right_blue.png,right_orange.png,p,right,610536bd3533c7e93ce89d2f,001,2021-08-09_09h18.53.795,arrow_simon_norep,2021.1.2,MacIntel,60.0024001,,,,,,,,,,,,,,,,,,,,,o,1,1.7581,17,TRUE,FALSE,4,0,16,1,1,,,,,,,
,,,,,,0,1.562274268,#f3af84,,right_orange.png,p,,,,,,o,right_blue.png,right_orange.png,p,left,610536bd3533c7e93ce89d2f,001,2021-08-09_09h18.53.795,arrow_simon_norep,2021.1.2,MacIntel,60.0024001,,,,,,,,,,,,,,,,,,,,,p,1,1.1692,18,FALSE,TRUE,4,1,17,0,1,,,,,,,
,,,,,,0,2.374314015,#a3d0fb,,right_blue.png,o,,,,,,o,right_blue.png,right_orange.png,p,right,610536bd3533c7e93ce89d2f,001,2021-08-09_09h18.53.795,arrow_simon_norep,2021.1.2,MacIntel,60.0024001,,,,,,,,,,,,,,,,,,,,,o,1,1.8191,19,TRUE,FALSE,4,2,18,1,1,,,,,,,
,,,,,,0,2.185993963,#f3af84,,right_orange.png,p,,,,,,o,right_blue.png,right_orange.png,p,right,610536bd3533c7e93ce89d2f,001,2021-08-09_09h18.53.795,arrow_simon_norep,2021.1.2,MacIntel,60.0024001,,,,,,,,,,,,,,,,,,,,,p,1,1.7677,20,TRUE,FALSE,4,3,19,1,1,,,,,,,
,,,,,,0,2.207448376,#a3d0fb,,left_blue.png,w,,,,,,w,left_blue.png,left_orange.png,q,left,610536bd3533c7e93ce89d2f,001,2021-08-09_09h18.53.795,arrow_simon_norep,2021.1.2,MacIntel,60.0024001,,,,,,,,,,,,,,,,,,,,,w,1,1.4686,21,FALSE,FALSE,5,0,20,2,1,,,,,,,
,,,,,,0,2.046894599,#f3af84,,left_orange.png,q,,,,,,w,left_blue.png,left_orange.png,q,left,610536bd3533c7e93ce89d2f,001,2021-08-09_09h18.53.795,arrow_simon_norep,2021.1.2,MacIntel,60.0024001,,,,,,,,,,,,,,,,,,,,,p,0,1.2509,22,FALSE,TRUE,5,1,21,2,1,,,,,,,
,,,,,,0,2.385210055,#a3d0fb,,right_blue.png,o,,,,,,o,right_blue.png,right_orange.png,p,left,610536bd3533c7e93ce89d2f,001,2021-08-09_09h18.53.795,arrow_simon_norep,2021.1.2,MacIntel,60.0024001,,,,,,,,,,,,,,,,,,,,,q,0,1.6685,23,TRUE,FALSE,5,2,22,0,1,,,,,,,
,,,,,,0,1.87203879,#f3af84,,right_orange.png,p,,,,,,o,right_blue.png,right_orange.png,p,right,610536bd3533c7e93ce89d2f,001,2021-08-09_09h18.53.795,arrow_simon_norep,2021.1.2,MacIntel,60.0024001,,,,,,,,,,,,,,,,,,,,,p,1,1.4163,24,FALSE,FALSE,5,3,23,1,1,,,,,,,
,,,,,,0,1.684969256,#a3d0fb,,left_blue.png,w,,,,,,w,left_blue.png,left_orange.png,q,right,610536bd3533c7e93ce89d2f,001,2021-08-09_09h18.53.795,arrow_simon_norep,2021.1.2,MacIntel,60.0024001,,,,,,,,,,,,,,,,,,,,,w,1,1.1498,25,FALSE,TRUE,6,0,24,3,1,,,,,,,
,,,,,,0,2.186247778,#f3af84,,left_orange.png,q,,,,,,w,left_blue.png,left_orange.png,q,left,610536bd3533c7e93ce89d2f,001,2021-08-09_09h18.53.795,arrow_simon_norep,2021.1.2,MacIntel,60.0024001,,,,,,,,,,,,,,,,,,,,,q,1,1.6991,26,TRUE,FALSE,6,1,25,2,1,,,,,,,
,,,,,,0,1.668690353,#a3d0fb,,left_blue.png,w,,,,,,w,left_blue.png,left_orange.png,q,left,610536bd3533c7e93ce89d2f,001,2021-08-09_09h18.53.795,arrow_simon_norep,2021.1.2,MacIntel,60.0024001,,,,,,,,,,,,,,,,,,,,,w,1,1.1349,27,FALSE,TRUE,6,2,26,2,1,,,,,,,
,,,,,,0,2.022205,#f3af84,,right_orange.png,p,,,,,,o,right_blue.png,right_orange.png,p,left,610536bd3533c7e93ce89d2f,001,2021-08-09_09h18.53.795,arrow_simon_norep,2021.1.2,MacIntel,60.0024001,,,,,,,,,,,,,,,,,,,,,p,1,1.7011,28,TRUE,FALSE,6,3,27,0,1,,,,,,,
,,,,,,0,1.803662086,#a3d0fb,,right_blue.png,o,,,,,,o,right_blue.png,right_orange.png,p,right,610536bd3533c7e93ce89d2f,001,2021-08-09_09h18.53.795,arrow_simon_norep,2021.1.2,MacIntel,60.0024001,,,,,,,,,,,,,,,,,,,,,o,1,1.4507,29,FALSE,FALSE,7,0,28,1,1,,,,,,,
,,,,,,0,2.404347691,#f3af84,,right_orange.png,p,,,,,,o,right_blue.png,right_orange.png,p,right,610536bd3533c7e93ce89d2f,001,2021-08-09_09h18.53.795,arrow_simon_norep,2021.1.2,MacIntel,60.0024001,,,,,,,,,,,,,,,,,,,,,p,1,1.7499,30,TRUE,FALSE,7,1,29,1,1,,,,,,,
,,,,,,0,1.769686796,#a3d0fb,,left_blue.png,w,,,,,,w,left_blue.png,left_orange.png,q,right,610536bd3533c7e93ce89d2f,001,2021-08-09_09h18.53.795,arrow_simon_norep,2021.1.2,MacIntel,60.0024001,,,,,,,,,,,,,,,,,,,,,w,1,1.3514,31,FALSE,TRUE,7,2,30,3,1,,,,,,,
,,,,,,0,1.717335618,#f3af84,,left_orange.png,q,,,,,,w,left_blue.png,left_orange.png,q,right,610536bd3533c7e93ce89d2f,001,2021-08-09_09h18.53.795,arrow_simon_norep,2021.1.2,MacIntel,60.0024001,,,,,,,,,,,,,,,,,,,,,q,1,1.4659,32,FALSE,FALSE,7,3,31,3,1,,,,,,,
,,,,,,0,1.858953847,#a3d0fb,,right_blue.png,o,,,,,,o,right_blue.png,right_orange.png,p,left,610536bd3533c7e93ce89d2f,001,2021-08-09_09h18.53.795,arrow_simon_norep,2021.1.2,MacIntel,60.0024001,,,,,,,,,,,,,,,,,,,,,w,0,1.152,33,FALSE,TRUE,8,0,32,0,1,,,,,,,
,,,,,,0,1.734234995,#f3af84,,right_orange.png,p,,,,,,o,right_blue.png,right_orange.png,p,right,610536bd3533c7e93ce89d2f,001,2021-08-09_09h18.53.795,arrow_simon_norep,2021.1.2,MacIntel,60.0024001,,,,,,,,,,,,,,,,,,,,,p,1,1.4328,34,FALSE,FALSE,8,1,33,1,1,,,,,,,
,,,,,,0,2.285579352,#a3d0fb,,right_blue.png,o,,,,,,o,right_blue.png,right_orange.png,p,right,610536bd3533c7e93ce89d2f,001,2021-08-09_09h18.53.795,arrow_simon_norep,2021.1.2,MacIntel,60.0024001,,,,,,,,,,,,,,,,,,,,,o,1,1.8326,35,TRUE,FALSE,8,2,34,1,1,,,,,,,
,,,,,,0,2.288000932,#f3af84,,left_orange.png,q,,,,,,w,left_blue.png,left_orange.png,q,left,610536bd3533c7e93ce89d2f,001,2021-08-09_09h18.53.795,arrow_simon_norep,2021.1.2,MacIntel,60.0024001,,,,,,,,,,,,,,,,,,,,,q,1,1.6182,36,TRUE,FALSE,8,3,35,2,1,,,,,,,
,,,,,,1,2.108933808,#a3d0fb,,left_blue.png,w,,,,,,w,left_blue.png,left_orange.png,q,right,610536bd3533c7e93ce89d2f,001,2021-08-09_09h18.53.795,arrow_simon_norep,2021.1.2,MacIntel,60.0024001,,,,,,,,,,,,,,,,,,,,,o,0,1.4204,37,FALSE,FALSE,9,0,36,3,1,,,,,,,
,,,,,,0,2.063623742,#f3af84,,right_orange.png,p,,,,,,o,right_blue.png,right_orange.png,p,left,610536bd3533c7e93ce89d2f,001,2021-08-09_09h18.53.795,arrow_simon_norep,2021.1.2,MacIntel,60.0024001,,,,,,,,,,,,,,,,,,,,,p,1,1.4683,38,FALSE,FALSE,9,1,37,0,1,,,,,,,
,,,,,,0,1.881237375,#a3d0fb,,right_blue.png,o,,,,,,o,right_blue.png,right_orange.png,p,left,610536bd3533c7e93ce89d2f,001,2021-08-09_09h18.53.795,arrow_simon_norep,2021.1.2,MacIntel,60.0024001,,,,,,,,,,,,,,,,,,,,,o,1,1.3834,39,FALSE,TRUE,9,2,38,0,1,,,,,,,
,,,,,,0,1.693764845,#f3af84,,left_orange.png,q,,,,,,w,left_blue.png,left_orange.png,q,left,610536bd3533c7e93ce89d2f,001,2021-08-09_09h18.53.795,arrow_simon_norep,2021.1.2,MacIntel,60.0024001,,,,,,,,,,,,,,,,,,,,,w,0,1.2972,40,FALSE,TRUE,9,3,39,2,1,,,,,,,
,,,,,,0,1.927993443,#a3d0fb,,left_blue.png,w,,,,,,w,left_blue.png,left_orange.png,q,right,610536bd3533c7e93ce89d2f,001,2021-08-09_09h18.53.795,arrow_simon_norep,2021.1.2,MacIntel,60.0024001,,,,,,,,,,,,,,,,,,,,,w,1,1.3667,41,FALSE,TRUE,10,0,40,3,1,,,,,,,
,,,,,,0,1.808119731,#f3af84,,right_orange.png,p,,,,,,o,right_blue.png,right_orange.png,p,right,610536bd3533c7e93ce89d2f,001,2021-08-09_09h18.53.795,arrow_simon_norep,2021.1.2,MacIntel,60.0024001,,,,,,,,,,,,,,,,,,,,,p,1,1.3843,42,FALSE,TRUE,10,1,41,1,1,,,,,,,
,,,,,,0,1.863208652,#a3d0fb,,right_blue.png,o,,,,,,o,right_blue.png,right_orange.png,p,left,610536bd3533c7e93ce89d2f,001,2021-08-09_09h18.53.795,arrow_simon_norep,2021.1.2,MacIntel,60.0024001,,,,,,,,,,,,,,,,,,,,,o,1,1.486,43,FALSE,FALSE,10,2,42,0,1,,,,,,,
,,,,,,0,1.69954769,#f3af84,,right_orange.png,p,,,,,,o,right_blue.png,right_orange.png,p,left,610536bd3533c7e93ce89d2f,001,2021-08-09_09h18.53.795,arrow_simon_norep,2021.1.2,MacIntel,60.0024001,,,,,,,,,,,,,,,,,,,,,p,1,1.3378,44,FALSE,TRUE,10,3,43,0,1,,,,,,,
,,,,,,0,1.980225046,#a3d0fb,,left_blue.png,w,,,,,,w,left_blue.png,left_orange.png,q,right,610536bd3533c7e93ce89d2f,001,2021-08-09_09h18.53.795,arrow_simon_norep,2021.1.2,MacIntel,60.0024001,,,,,,,,,,,,,,,,,,,,,w,1,1.6491,45,TRUE,FALSE,11,0,44,3,1,,,,,,,
,,,,,,0,2.415611308,#f3af84,,left_orange.png,q,,,,,,w,left_blue.png,left_orange.png,q,right,610536bd3533c7e93ce89d2f,001,2021-08-09_09h18.53.795,arrow_simon_norep,2021.1.2,MacIntel,60.0024001,,,,,,,,,,,,,,,,,,,,,q,1,1.9343,46,TRUE,FALSE,11,1,45,3,1,,,,,,,
,,,,,,0,2.038113724,#a3d0fb,,left_blue.png,w,,,,,,w,left_blue.png,left_orange.png,q,left,610536bd3533c7e93ce89d2f,001,2021-08-09_09h18.53.795,arrow_simon_norep,2021.1.2,MacIntel,60.0024001,,,,,,,,,,,,,,,,,,,,,w,1,1.6989,47,TRUE,FALSE,11,2,46,2,1,,,,,,,
,,,,,,1,2.223983257,#f3af84,,left_orange.png,q,,,,,,w,left_blue.png,left_orange.png,q,left,610536bd3533c7e93ce89d2f,001,2021-08-09_09h18.53.795,arrow_simon_norep,2021.1.2,MacIntel,60.0024001,,,,,,,,,,,,,,,,,,,,,p,0,1.5528,48,FALSE,FALSE,11,3,47,2,1,,,,,,,
,,,,,,1,2.284415107,#a3d0fb,,right_blue.png,o,,,,,,o,right_blue.png,right_orange.png,p,left,610536bd3533c7e93ce89d2f,001,2021-08-09_09h18.53.795,arrow_simon_norep,2021.1.2,MacIntel,60.0024001,,,,,,,,,,,,,,,,,,,,,w,0,1.6013,49,TRUE,FALSE,12,0,48,0,1,,,,,,,
,,,,,,1,1.72977857,#f3af84,,right_orange.png,p,,,,,,o,right_blue.png,right_orange.png,p,right,610536bd3533c7e93ce89d2f,001,2021-08-09_09h18.53.795,arrow_simon_norep,2021.1.2,MacIntel,60.0024001,,,,,,,,,,,,,,,,,,,,,p,1,1.3174,50,FALSE,TRUE,12,1,49,1,1,,,,,,,
,,,,,,1,1.520795481,#a3d0fb,,right_blue.png,o,,,,,,o,right_blue.png,right_orange.png,p,left,610536bd3533c7e93ce89d2f,001,2021-08-09_09h18.53.795,arrow_simon_norep,2021.1.2,MacIntel,60.0024001,,,,,,,,,,,,,,,,,,,,,o,1,1.0839,51,FALSE,TRUE,12,2,50,0,1,,,,,,,
,,,,,,1,2.490114821,#f3af84,,right_orange.png,p,,,,,,o,right_blue.png,right_orange.png,p,left,610536bd3533c7e93ce89d2f,001,2021-08-09_09h18.53.795,arrow_simon_norep,2021.1.2,MacIntel,60.0024001,,,,,,,,,,,,,,,,,,,,,q,0,1.7706,52,TRUE,FALSE,12,3,51,0,1,,,,,,,
,,,,,,1,1.644188603,#a3d0fb,,left_blue.png,w,,,,,,w,left_blue.png,left_orange.png,q,left,610536bd3533c7e93ce89d2f,001,2021-08-09_09h18.53.795,arrow_simon_norep,2021.1.2,MacIntel,60.0024001,,,,,,,,,,,,,,,,,,,,,w,1,1.1334,53,FALSE,TRUE,13,0,52,2,1,,,,,,,
,,,,,,1,2.429373754,#f3af84,,right_orange.png,p,,,,,,o,right_blue.png,right_orange.png,p,right,610536bd3533c7e93ce89d2f,001,2021-08-09_09h18.53.795,arrow_simon_norep,2021.1.2,MacIntel,60.0024001,,,,,,,,,,,,,,,,,,,,,p,1,1.7507,54,TRUE,FALSE,13,1,53,1,1,,,,,,,
,,,,,,1,1.601048968,#a3d0fb,,right_blue.png,o,,,,,,o,right_blue.png,right_orange.png,p,right,610536bd3533c7e93ce89d2f,001,2021-08-09_09h18.53.795,arrow_simon_norep,2021.1.2,MacIntel,60.0024001,,,,,,,,,,,,,,,,,,,,,w,0,1.4356,55,FALSE,FALSE,13,2,54,1,1,,,,,,,
,,,,,,1,1.609349171,#f3af84,,right_orange.png,p,,,,,,o,right_blue.png,right_orange.png,p,left,610536bd3533c7e93ce89d2f,001,2021-08-09_09h18.53.795,arrow_simon_norep,2021.1.2,MacIntel,60.0024001,,,,,,,,,,,,,,,,,,,,,q,0,0.9345,56,FALSE,TRUE,13,3,55,0,1,,,,,,,
,,,,,,1,2.473650868,#a3d0fb,,left_blue.png,w,,,,,,w,left_blue.png,left_orange.png,q,left,610536bd3533c7e93ce89d2f,001,2021-08-09_09h18.53.795,arrow_simon_norep,2021.1.2,MacIntel,60.0024001,,,,,,,,,,,,,,,,,,,,,w,1,1.8008,57,TRUE,FALSE,14,0,56,2,1,,,,,,,
,,,,,,0,1.505305057,#f3af84,,left_orange.png,q,,,,,,w,left_blue.png,left_orange.png,q,left,610536bd3533c7e93ce89d2f,001,2021-08-09_09h18.53.795,arrow_simon_norep,2021.1.2,MacIntel,60.0024001,,,,,,,,,,,,,,,,,,,,,q,1,1.4174,58,FALSE,FALSE,14,1,57,2,1,,,,,,,
,,,,,,0,1.607890752,#a3d0fb,,right_blue.png,o,,,,,,o,right_blue.png,right_orange.png,p,right,610536bd3533c7e93ce89d2f,001,2021-08-09_09h18.53.795,arrow_simon_norep,2021.1.2,MacIntel,60.0024001,,,,,,,,,,,,,,,,,,,,,p,0,1.2673,59,FALSE,TRUE,14,2,58,1,1,,,,,,,
,,,,,,0,1.892535914,#f3af84,,left_orange.png,q,,,,,,w,left_blue.png,left_orange.png,q,right,610536bd3533c7e93ce89d2f,001,2021-08-09_09h18.53.795,arrow_simon_norep,2021.1.2,MacIntel,60.0024001,,,,,,,,,,,,,,,,,,,,,w,0,1.6496,60,TRUE,FALSE,14,3,59,3,1,,,,,,,
,,,,,,,,,,,,,,,,,,,,,,610536bd3533c7e93ce89d2f,001,2021-08-09_09h18.53.795,arrow_simon_norep,2021.1.2,MacIntel,60.0024001,,,,,,,,,,,,,,,,,,,,,,,,,,,,,,,,space,3.099,1,0,1,0,1
,,,,,,0,2.216154357,#a3d0fb,,left_blue.png,w,,,,,,w,left_blue.png,left_orange.png,q,right,610536bd3533c7e93ce89d2f,001,2021-08-09_09h18.53.795,arrow_simon_norep,2021.1.2,MacIntel,60.0024001,,,,,,,,,,,,,,,,,,,,,q,0,1.8006,1,TRUE,FALSE,0,0,0,3,1,,,,,,,
,,,,,,1,2.170793911,#f3af84,,left_orange.png,q,,,,,,w,left_blue.png,left_orange.png,q,right,610536bd3533c7e93ce89d2f,001,2021-08-09_09h18.53.795,arrow_simon_norep,2021.1.2,MacIntel,60.0024001,,,,,,,,,,,,,,,,,,,,,p,0,1.5002,2,FALSE,FALSE,0,1,1,3,1,,,,,,,
,,,,,,1,1.736091954,#a3d0fb,,right_blue.png,o,,,,,,o,right_blue.png,right_orange.png,p,left,610536bd3533c7e93ce89d2f,001,2021-08-09_09h18.53.795,arrow_simon_norep,2021.1.2,MacIntel,60.0024001,,,,,,,,,,,,,,,,,,,,,o,1,1.2049,3,FALSE,TRUE,0,2,2,0,1,,,,,,,
,,,,,,1,2.376699618,#f3af84,,right_orange.png,p,,,,,,o,right_blue.png,right_orange.png,p,left,610536bd3533c7e93ce89d2f,001,2021-08-09_09h18.53.795,arrow_simon_norep,2021.1.2,MacIntel,60.0024001,,,,,,,,,,,,,,,,,,,,,p,1,1.8139,4,TRUE,FALSE,0,3,3,0,1,,,,,,,
,,,,,,1,1.744135048,#a3d0fb,,left_blue.png,w,,,,,,w,left_blue.png,left_orange.png,q,right,610536bd3533c7e93ce89d2f,001,2021-08-09_09h18.53.795,arrow_simon_norep,2021.1.2,MacIntel,60.0024001,,,,,,,,,,,,,,,,,,,,,q,0,1.2669,5,FALSE,TRUE,1,0,4,3,1,,,,,,,
,,,,,,1,1.686825716,#f3af84,,left_orange.png,q,,,,,,w,left_blue.png,left_orange.png,q,left,610536bd3533c7e93ce89d2f,001,2021-08-09_09h18.53.795,arrow_simon_norep,2021.1.2,MacIntel,60.0024001,,,,,,,,,,,,,,,,,,,,,q,1,1.153,6,FALSE,TRUE,1,1,5,2,1,,,,,,,
,,,,,,1,2.249863133,#a3d0fb,,right_blue.png,o,,,,,,o,right_blue.png,right_orange.png,p,left,610536bd3533c7e93ce89d2f,001,2021-08-09_09h18.53.795,arrow_simon_norep,2021.1.2,MacIntel,60.0024001,,,,,,,,,,,,,,,,,,,,,o,1,1.7007,7,TRUE,FALSE,1,2,6,0,1,,,,,,,
,,,,,,0,2.075909253,#f3af84,,right_orange.png,p,,,,,,o,right_blue.png,right_orange.png,p,right,610536bd3533c7e93ce89d2f,001,2021-08-09_09h18.53.795,arrow_simon_norep,2021.1.2,MacIntel,60.0024001,,,,,,,,,,,,,,,,,,,,,p,1,1.4546,8,FALSE,FALSE,1,3,7,1,1,,,,,,,
,,,,,,0,1.75816087,#a3d0fb,,right_blue.png,o,,,,,,o,right_blue.png,right_orange.png,p,right,610536bd3533c7e93ce89d2f,001,2021-08-09_09h18.53.795,arrow_simon_norep,2021.1.2,MacIntel,60.0024001,,,,,,,,,,,,,,,,,,,,,o,1,1.2527,9,FALSE,TRUE,2,0,8,1,1,,,,,,,
,,,,,,0,2.228570349,#f3af84,,right_orange.png,p,,,,,,o,right_blue.png,right_orange.png,p,right,610536bd3533c7e93ce89d2f,001,2021-08-09_09h18.53.795,arrow_simon_norep,2021.1.2,MacIntel,60.0024001,,,,,,,,,,,,,,,,,,,,,p,1,1.6838,10,TRUE,FALSE,2,1,9,1,1,,,,,,,
,,,,,,1,1.88993007,#a3d0fb,,right_blue.png,o,,,,,,o,right_blue.png,right_orange.png,p,right,610536bd3533c7e93ce89d2f,001,2021-08-09_09h18.53.795,arrow_simon_norep,2021.1.2,MacIntel,60.0024001,,,,,,,,,,,,,,,,,,,,,p,0,1.4167,11,FALSE,FALSE,2,2,10,1,1,,,,,,,
,,,,,,1,1.58127438,#f3af84,,right_orange.png,p,,,,,,o,right_blue.png,right_orange.png,p,right,610536bd3533c7e93ce89d2f,001,2021-08-09_09h18.53.795,arrow_simon_norep,2021.1.2,MacIntel,60.0024001,,,,,,,,,,,,,,,,,,,,,p,1,1.3851,12,FALSE,TRUE,2,3,11,1,1,,,,,,,
,,,,,,1,2.266191338,#a3d0fb,,left_blue.png,w,,,,,,w,left_blue.png,left_orange.png,q,left,610536bd3533c7e93ce89d2f,001,2021-08-09_09h18.53.795,arrow_simon_norep,2021.1.2,MacIntel,60.0024001,,,,,,,,,,,,,,,,,,,,,w,1,1.6023,13,TRUE,FALSE,3,0,12,2,1,,,,,,,
,,,,,,0,1.666898456,#f3af84,,left_orange.png,q,,,,,,w,left_blue.png,left_orange.png,q,right,610536bd3533c7e93ce89d2f,001,2021-08-09_09h18.53.795,arrow_simon_norep,2021.1.2,MacIntel,60.0024001,,,,,,,,,,,,,,,,,,,,,q,1,1.5672,14,FALSE,FALSE,3,1,13,3,1,,,,,,,
,,,,,,0,2.338188787,#a3d0fb,,left_blue.png,w,,,,,,w,left_blue.png,left_orange.png,q,left,610536bd3533c7e93ce89d2f,001,2021-08-09_09h18.53.795,arrow_simon_norep,2021.1.2,MacIntel,60.0024001,,,,,,,,,,,,,,,,,,,,,w,1,1.9392,15,TRUE,FALSE,3,2,14,2,1,,,,,,,
,,,,,,0,1.859473525,#f3af84,,right_orange.png,p,,,,,,o,right_blue.png,right_orange.png,p,left,610536bd3533c7e93ce89d2f,001,2021-08-09_09h18.53.795,arrow_simon_norep,2021.1.2,MacIntel,60.0024001,,,,,,,,,,,,,,,,,,,,,p,1,1.4492,16,FALSE,FALSE,3,3,15,0,1,,,,,,,
,,,,,,0,1.680729943,#a3d0fb,,right_blue.png,o,,,,,,o,right_blue.png,right_orange.png,p,left,610536bd3533c7e93ce89d2f,001,2021-08-09_09h18.53.795,arrow_simon_norep,2021.1.2,MacIntel,60.0024001,,,,,,,,,,,,,,,,,,,,,o,1,1.1229,17,FALSE,TRUE,4,0,16,0,1,,,,,,,
,,,,,,0,2.433706087,#f3af84,,right_orange.png,p,,,,,,o,right_blue.png,right_orange.png,p,left,610536bd3533c7e93ce89d2f,001,2021-08-09_09h18.53.795,arrow_simon_norep,2021.1.2,MacIntel,60.0024001,,,,,,,,,,,,,,,,,,,,,p,1,2.0182,18,TRUE,FALSE,4,1,17,0,1,,,,,,,
,,,,,,0,2.165251776,#a3d0fb,,left_blue.png,w,,,,,,w,left_blue.png,left_orange.png,q,left,610536bd3533c7e93ce89d2f,001,2021-08-09_09h18.53.795,arrow_simon_norep,2021.1.2,MacIntel,60.0024001,,,,,,,,,,,,,,,,,,,,,w,1,1.6977,19,TRUE,FALSE,4,2,18,2,1,,,,,,,
,,,,,,0,2.294449319,#f3af84,,left_orange.png,q,,,,,,w,left_blue.png,left_orange.png,q,left,610536bd3533c7e93ce89d2f,001,2021-08-09_09h18.53.795,arrow_simon_norep,2021.1.2,MacIntel,60.0024001,,,,,,,,,,,,,,,,,,,,,q,1,1.6846,20,TRUE,FALSE,4,3,19,2,1,,,,,,,
,,,,,,0,1.597091825,#a3d0fb,,right_blue.png,o,,,,,,o,right_blue.png,right_orange.png,p,left,610536bd3533c7e93ce89d2f,001,2021-08-09_09h18.53.795,arrow_simon_norep,2021.1.2,MacIntel,60.0024001,,,,,,,,,,,,,,,,,,,,,p,0,1.2249,21,FALSE,TRUE,5,0,20,0,1,,,,,,,
,,,,,,0,1.663670179,#f3af84,,left_orange.png,q,,,,,,w,left_blue.png,left_orange.png,q,left,610536bd3533c7e93ce89d2f,001,2021-08-09_09h18.53.795,arrow_simon_norep,2021.1.2,MacIntel,60.0024001,,,,,,,,,,,,,,,,,,,,,q,1,1.3155,22,FALSE,TRUE,5,1,21,2,1,,,,,,,
,,,,,,0,2.364241606,#a3d0fb,,left_blue.png,w,,,,,,w,left_blue.png,left_orange.png,q,left,610536bd3533c7e93ce89d2f,001,2021-08-09_09h18.53.795,arrow_simon_norep,2021.1.2,MacIntel,60.0024001,,,,,,,,,,,,,,,,,,,,,w,1,1.8818,23,TRUE,FALSE,5,2,22,2,1,,,,,,,
,,,,,,0,2.296281935,#f3af84,,left_orange.png,q,,,,,,w,left_blue.png,left_orange.png,q,left,610536bd3533c7e93ce89d2f,001,2021-08-09_09h18.53.795,arrow_simon_norep,2021.1.2,MacIntel,60.0024001,,,,,,,,,,,,,,,,,,,,,q,1,1.6675,24,TRUE,FALSE,5,3,23,2,1,,,,,,,
,,,,,,0,2.484082732,#a3d0fb,,right_blue.png,o,,,,,,o,right_blue.png,right_orange.png,p,right,610536bd3533c7e93ce89d2f,001,2021-08-09_09h18.53.795,arrow_simon_norep,2021.1.2,MacIntel,60.0024001,,,,,,,,,,,,,,,,,,,,,o,1,1.8375,25,TRUE,FALSE,6,0,24,1,1,,,,,,,
,,,,,,0,2.482785423,#f3af84,,left_orange.png,q,,,,,,w,left_blue.png,left_orange.png,q,left,610536bd3533c7e93ce89d2f,001,2021-08-09_09h18.53.795,arrow_simon_norep,2021.1.2,MacIntel,60.0024001,,,,,,,,,,,,,,,,,,,,,q,1,1.807,26,TRUE,FALSE,6,1,25,2,1,,,,,,,
,,,,,,0,1.741136439,#a3d0fb,,left_blue.png,w,,,,,,w,left_blue.png,left_orange.png,q,right,610536bd3533c7e93ce89d2f,001,2021-08-09_09h18.53.795,arrow_simon_norep,2021.1.2,MacIntel,60.0024001,,,,,,,,,,,,,,,,,,,,,o,0,1.1229,27,FALSE,TRUE,6,2,26,3,1,,,,,,,
,,,,,,0,1.834899514,#f3af84,,right_orange.png,p,,,,,,o,right_blue.png,right_orange.png,p,right,610536bd3533c7e93ce89d2f,001,2021-08-09_09h18.53.795,arrow_simon_norep,2021.1.2,MacIntel,60.0024001,,,,,,,,,,,,,,,,,,,,,p,1,1.3364,28,FALSE,TRUE,6,3,27,1,1,,,,,,,
,,,,,,0,2.208363441,#a3d0fb,,right_blue.png,o,,,,,,o,right_blue.png,right_orange.png,p,left,610536bd3533c7e93ce89d2f,001,2021-08-09_09h18.53.795,arrow_simon_norep,2021.1.2,MacIntel,60.0024001,,,,,,,,,,,,,,,,,,,,,o,1,1.7347,29,TRUE,FALSE,7,0,28,0,1,,,,,,,
,,,,,,0,2.341832692,#f3af84,,right_orange.png,p,,,,,,o,right_blue.png,right_orange.png,p,left,610536bd3533c7e93ce89d2f,001,2021-08-09_09h18.53.795,arrow_simon_norep,2021.1.2,MacIntel,60.0024001,,,,,,,,,,,,,,,,,,,,,q,0,1.6419,30,TRUE,FALSE,7,1,29,0,1,,,,,,,
,,,,,,0,2.158319008,#a3d0fb,,left_blue.png,w,,,,,,w,left_blue.png,left_orange.png,q,right,610536bd3533c7e93ce89d2f,001,2021-08-09_09h18.53.795,arrow_simon_norep,2021.1.2,MacIntel,60.0024001,,,,,,,,,,,,,,,,,,,,,w,1,1.6511,31,TRUE,FALSE,7,2,30,3,1,,,,,,,
,,,,,,0,2.405206809,#f3af84,,left_orange.png,q,,,,,,w,left_blue.png,left_orange.png,q,left,610536bd3533c7e93ce89d2f,001,2021-08-09_09h18.53.795,arrow_simon_norep,2021.1.2,MacIntel,60.0024001,,,,,,,,,,,,,,,,,,,,,p,0,1.6154,32,TRUE,FALSE,7,3,31,2,1,,,,,,,
,,,,,,0,1.989998434,#a3d0fb,,right_blue.png,o,,,,,,o,right_blue.png,right_orange.png,p,right,610536bd3533c7e93ce89d2f,001,2021-08-09_09h18.53.795,arrow_simon_norep,2021.1.2,MacIntel,60.0024001,,,,,,,,,,,,,,,,,,,,,o,1,1.5837,33,FALSE,FALSE,8,0,32,1,1,,,,,,,
,,,,,,0,2.16828369,#f3af84,,right_orange.png,p,,,,,,o,right_blue.png,right_orange.png,p,right,610536bd3533c7e93ce89d2f,001,2021-08-09_09h18.53.795,arrow_simon_norep,2021.1.2,MacIntel,60.0024001,,,,,,,,,,,,,,,,,,,,,p,1,1.6186,34,TRUE,FALSE,8,1,33,1,1,,,,,,,
,,,,,,0,2.315594066,#a3d0fb,,left_blue.png,w,,,,,,w,left_blue.png,left_orange.png,q,right,610536bd3533c7e93ce89d2f,001,2021-08-09_09h18.53.795,arrow_simon_norep,2021.1.2,MacIntel,60.0024001,,,,,,,,,,,,,,,,,,,,,q,0,1.6187,35,TRUE,FALSE,8,2,34,3,1,,,,,,,
,,,,,,0,1.719198102,#f3af84,,right_orange.png,p,,,,,,o,right_blue.png,right_orange.png,p,right,610536bd3533c7e93ce89d2f,001,2021-08-09_09h18.53.795,arrow_simon_norep,2021.1.2,MacIntel,60.0024001,,,,,,,,,,,,,,,,,,,,,p,1,1.2177,36,FALSE,TRUE,8,3,35,1,1,,,,,,,
,,,,,,0,2.359091663,#a3d0fb,,left_blue.png,w,,,,,,w,left_blue.png,left_orange.png,q,right,610536bd3533c7e93ce89d2f,001,2021-08-09_09h18.53.795,arrow_simon_norep,2021.1.2,MacIntel,60.0024001,,,,,,,,,,,,,,,,,,,,,w,1,1.9317,37,TRUE,FALSE,9,0,36,3,1,,,,,,,
,,,,,,0,1.990705873,#f3af84,,right_orange.png,p,,,,,,o,right_blue.png,right_orange.png,p,left,610536bd3533c7e93ce89d2f,001,2021-08-09_09h18.53.795,arrow_simon_norep,2021.1.2,MacIntel,60.0024001,,,,,,,,,,,,,,,,,,,,,p,1,1.672,38,TRUE,FALSE,9,1,37,0,1,,,,,,,
,,,,,,0,1.879958549,#a3d0fb,,right_blue.png,o,,,,,,o,right_blue.png,right_orange.png,p,right,610536bd3533c7e93ce89d2f,001,2021-08-09_09h18.53.795,arrow_simon_norep,2021.1.2,MacIntel,60.0024001,,,,,,,,,,,,,,,,,,,,,o,1,1.3487,39,FALSE,TRUE,9,2,38,1,1,,,,,,,
,,,,,,0,2.040949018,#f3af84,,left_orange.png,q,,,,,,w,left_blue.png,left_orange.png,q,right,610536bd3533c7e93ce89d2f,001,2021-08-09_09h18.53.795,arrow_simon_norep,2021.1.2,MacIntel,60.0024001,,,,,,,,,,,,,,,,,,,,,q,1,1.5187,40,FALSE,FALSE,9,3,39,3,1,,,,,,,
,,,,,,0,1.678157316,#a3d0fb,,right_blue.png,o,,,,,,o,right_blue.png,right_orange.png,p,left,610536bd3533c7e93ce89d2f,001,2021-08-09_09h18.53.795,arrow_simon_norep,2021.1.2,MacIntel,60.0024001,,,,,,,,,,,,,,,,,,,,,o,1,1.3193,41,FALSE,TRUE,10,0,40,0,1,,,,,,,
,,,,,,0,1.550661648,#f3af84,,right_orange.png,p,,,,,,o,right_blue.png,right_orange.png,p,right,610536bd3533c7e93ce89d2f,001,2021-08-09_09h18.53.795,arrow_simon_norep,2021.1.2,MacIntel,60.0024001,,,,,,,,,,,,,,,,,,,,,p,1,1.2112,42,FALSE,TRUE,10,1,41,1,1,,,,,,,
,,,,,,0,2.306197487,#a3d0fb,,left_blue.png,w,,,,,,w,left_blue.png,left_orange.png,q,right,610536bd3533c7e93ce89d2f,001,2021-08-09_09h18.53.795,arrow_simon_norep,2021.1.2,MacIntel,60.0024001,,,,,,,,,,,,,,,,,,,,,w,1,1.718,43,TRUE,FALSE,10,2,42,3,1,,,,,,,
,,,,,,0,2.27614431,#f3af84,,left_orange.png,q,,,,,,w,left_blue.png,left_orange.png,q,right,610536bd3533c7e93ce89d2f,001,2021-08-09_09h18.53.795,arrow_simon_norep,2021.1.2,MacIntel,60.0024001,,,,,,,,,,,,,,,,,,,,,q,1,1.7183,44,TRUE,FALSE,10,3,43,3,1,,,,,,,
,,,,,,0,2.212536214,#a3d0fb,,left_blue.png,w,,,,,,w,left_blue.png,left_orange.png,q,left,610536bd3533c7e93ce89d2f,001,2021-08-09_09h18.53.795,arrow_simon_norep,2021.1.2,MacIntel,60.0024001,,,,,,,,,,,,,,,,,,,,,w,1,1.6685,45,TRUE,FALSE,11,0,44,2,1,,,,,,,
,,,,,,0,2.143370253,#f3af84,,left_orange.png,q,,,,,,w,left_blue.png,left_orange.png,q,left,610536bd3533c7e93ce89d2f,001,2021-08-09_09h18.53.795,arrow_simon_norep,2021.1.2,MacIntel,60.0024001,,,,,,,,,,,,,,,,,,,,,q,1,1.5526,46,FALSE,FALSE,11,1,45,2,1,,,,,,,
,,,,,,0,1.88083443,#a3d0fb,,right_blue.png,o,,,,,,o,right_blue.png,right_orange.png,p,right,610536bd3533c7e93ce89d2f,001,2021-08-09_09h18.53.795,arrow_simon_norep,2021.1.2,MacIntel,60.0024001,,,,,,,,,,,,,,,,,,,,,o,1,1.2166,47,FALSE,TRUE,11,2,46,1,1,,,,,,,
,,,,,,0,1.55446536,#f3af84,,right_orange.png,p,,,,,,o,right_blue.png,right_orange.png,p,left,610536bd3533c7e93ce89d2f,001,2021-08-09_09h18.53.795,arrow_simon_norep,2021.1.2,MacIntel,60.0024001,,,,,,,,,,,,,,,,,,,,,p,1,1.4174,48,FALSE,FALSE,11,3,47,0,1,,,,,,,
,,,,,,0,2.005263506,#a3d0fb,,right_blue.png,o,,,,,,o,right_blue.png,right_orange.png,p,right,610536bd3533c7e93ce89d2f,001,2021-08-09_09h18.53.795,arrow_simon_norep,2021.1.2,MacIntel,60.0024001,,,,,,,,,,,,,,,,,,,,,o,1,1.6528,49,TRUE,FALSE,12,0,48,1,1,,,,,,,
,,,,,,0,2.074514797,#f3af84,,left_orange.png,q,,,,,,w,left_blue.png,left_orange.png,q,right,610536bd3533c7e93ce89d2f,001,2021-08-09_09h18.53.795,arrow_simon_norep,2021.1.2,MacIntel,60.0024001,,,,,,,,,,,,,,,,,,,,,q,1,1.6511,50,TRUE,FALSE,12,1,49,3,1,,,,,,,
,,,,,,0,1.73475757,#a3d0fb,,right_blue.png,o,,,,,,o,right_blue.png,right_orange.png,p,right,610536bd3533c7e93ce89d2f,001,2021-08-09_09h18.53.795,arrow_simon_norep,2021.1.2,MacIntel,60.0024001,,,,,,,,,,,,,,,,,,,,,o,1,1.2357,51,FALSE,TRUE,12,2,50,1,1,,,,,,,
,,,,,,0,2.034629792,#f3af84,,right_orange.png,p,,,,,,o,right_blue.png,right_orange.png,p,left,610536bd3533c7e93ce89d2f,001,2021-08-09_09h18.53.795,arrow_simon_norep,2021.1.2,MacIntel,60.0024001,,,,,,,,,,,,,,,,,,,,,q,0,1.3681,52,FALSE,TRUE,12,3,51,0,1,,,,,,,
,,,,,,0,1.833336198,#a3d0fb,,left_blue.png,w,,,,,,w,left_blue.png,left_orange.png,q,right,610536bd3533c7e93ce89d2f,001,2021-08-09_09h18.53.795,arrow_simon_norep,2021.1.2,MacIntel,60.0024001,,,,,,,,,,,,,,,,,,,,,w,1,1.6846,53,TRUE,FALSE,13,0,52,3,1,,,,,,,
,,,,,,0,1.668244355,#f3af84,,left_orange.png,q,,,,,,w,left_blue.png,left_orange.png,q,left,610536bd3533c7e93ce89d2f,001,2021-08-09_09h18.53.795,arrow_simon_norep,2021.1.2,MacIntel,60.0024001,,,,,,,,,,,,,,,,,,,,,q,1,1.3171,54,FALSE,TRUE,13,1,53,2,1,,,,,,,
,,,,,,0,1.60410496,#a3d0fb,,left_blue.png,w,,,,,,w,left_blue.png,left_orange.png,q,left,610536bd3533c7e93ce89d2f,001,2021-08-09_09h18.53.795,arrow_simon_norep,2021.1.2,MacIntel,60.0024001,,,,,,,,,,,,,,,,,,,,,w,1,1.1675,55,FALSE,TRUE,13,2,54,2,1,,,,,,,
,,,,,,0,1.888928434,#f3af84,,right_orange.png,p,,,,,,o,right_blue.png,right_orange.png,p,left,610536bd3533c7e93ce89d2f,001,2021-08-09_09h18.53.795,arrow_simon_norep,2021.1.2,MacIntel,60.0024001,,,,,,,,,,,,,,,,,,,,,p,1,1.5323,56,FALSE,FALSE,13,3,55,0,1,,,,,,,
,,,,,,0,1.930205999,#a3d0fb,,left_blue.png,w,,,,,,w,left_blue.png,left_orange.png,q,right,610536bd3533c7e93ce89d2f,001,2021-08-09_09h18.53.795,arrow_simon_norep,2021.1.2,MacIntel,60.0024001,,,,,,,,,,,,,,,,,,,,,w,1,1.7032,57,TRUE,FALSE,14,0,56,3,1,,,,,,,
,,,,,,0,2.267256364,#f3af84,,left_orange.png,q,,,,,,w,left_blue.png,left_orange.png,q,right,610536bd3533c7e93ce89d2f,001,2021-08-09_09h18.53.795,arrow_simon_norep,2021.1.2,MacIntel,60.0024001,,,,,,,,,,,,,,,,,,,,,q,1,1.9024,58,TRUE,FALSE,14,1,57,3,1,,,,,,,
,,,,,,0,1.868320631,#a3d0fb,,right_blue.png,o,,,,,,o,right_blue.png,right_orange.png,p,left,610536bd3533c7e93ce89d2f,001,2021-08-09_09h18.53.795,arrow_simon_norep,2021.1.2,MacIntel,60.0024001,,,,,,,,,,,,,,,,,,,,,o,1,1.4822,59,FALSE,FALSE,14,2,58,0,1,,,,,,,
,,,,,,0,2.496944936,#f3af84,,left_orange.png,q,,,,,,w,left_blue.png,left_orange.png,q,left,610536bd3533c7e93ce89d2f,001,2021-08-09_09h18.53.795,arrow_simon_norep,2021.1.2,MacIntel,60.0024001,,,,,,,,,,,,,,,,,,,,,q,1,1.8703,60,TRUE,FALSE,14,3,59,2,1,,,,,,,
,,,,,,,,,,,,,,,,,,,,,,610536bd3533c7e93ce89d2f,001,2021-08-09_09h18.53.795,arrow_simon_norep,2021.1.2,MacIntel,60.0024001,,,,,,,,,,,,,,,,,,,,,,,,,,,,,,,,space,65.1855,2,0,2,0,1
,,,,,,0,2.372937247,#a3d0fb,,right_blue.png,o,,,,,,o,right_blue.png,right_orange.png,p,right,610536bd3533c7e93ce89d2f,001,2021-08-09_09h18.53.795,arrow_simon_norep,2021.1.2,MacIntel,60.0024001,,,,,,,,,,,,,,,,,,,,,o,1,1.8193,1,TRUE,FALSE,0,0,0,1,1,,,,,,,
,,,,,,0,1.769345232,#f3af84,,right_orange.png,p,,,,,,o,right_blue.png,right_orange.png,p,left,610536bd3533c7e93ce89d2f,001,2021-08-09_09h18.53.795,arrow_simon_norep,2021.1.2,MacIntel,60.0024001,,,,,,,,,,,,,,,,,,,,,p,1,1.451,2,FALSE,FALSE,0,1,1,0,1,,,,,,,
,,,,,,0,1.790502543,#a3d0fb,,right_blue.png,o,,,,,,o,right_blue.png,right_orange.png,p,right,610536bd3533c7e93ce89d2f,001,2021-08-09_09h18.53.795,arrow_simon_norep,2021.1.2,MacIntel,60.0024001,,,,,,,,,,,,,,,,,,,,,o,1,1.3445,3,FALSE,TRUE,0,2,2,1,1,,,,,,,
,,,,,,0,1.525408079,#f3af84,,right_orange.png,p,,,,,,o,right_blue.png,right_orange.png,p,right,610536bd3533c7e93ce89d2f,001,2021-08-09_09h18.53.795,arrow_simon_norep,2021.1.2,MacIntel,60.0024001,,,,,,,,,,,,,,,,,,,,,p,1,1.2629,4,FALSE,TRUE,0,3,3,1,1,,,,,,,
,,,,,,0,2.069828267,#a3d0fb,,right_blue.png,o,,,,,,o,right_blue.png,right_orange.png,p,left,610536bd3533c7e93ce89d2f,001,2021-08-09_09h18.53.795,arrow_simon_norep,2021.1.2,MacIntel,60.0024001,,,,,,,,,,,,,,,,,,,,,o,1,1.8174,5,TRUE,FALSE,1,0,4,0,1,,,,,,,
,,,,,,0,1.561239074,#f3af84,,right_orange.png,p,,,,,,o,right_blue.png,right_orange.png,p,right,610536bd3533c7e93ce89d2f,001,2021-08-09_09h18.53.795,arrow_simon_norep,2021.1.2,MacIntel,60.0024001,,,,,,,,,,,,,,,,,,,,,p,1,1.2953,6,FALSE,TRUE,1,1,5,1,1,,,,,,,
,,,,,,0,1.56836357,#a3d0fb,,right_blue.png,o,,,,,,o,right_blue.png,right_orange.png,p,right,610536bd3533c7e93ce89d2f,001,2021-08-09_09h18.53.795,arrow_simon_norep,2021.1.2,MacIntel,60.0024001,,,,,,,,,,,,,,,,,,,,,o,1,1.8325,7,TRUE,FALSE,1,2,6,1,1,,,,,,,
,,,,,,0,1.851256302,#f3af84,,right_orange.png,p,,,,,,o,right_blue.png,right_orange.png,p,left,610536bd3533c7e93ce89d2f,001,2021-08-09_09h18.53.795,arrow_simon_norep,2021.1.2,MacIntel,60.0024001,,,,,,,,,,,,,,,,,,,,,q,0,1.1145,8,FALSE,TRUE,1,3,7,0,1,,,,,,,
,,,,,,0,1.700740345,#a3d0fb,,left_blue.png,w,,,,,,w,left_blue.png,left_orange.png,q,right,610536bd3533c7e93ce89d2f,001,2021-08-09_09h18.53.795,arrow_simon_norep,2021.1.2,MacIntel,60.0024001,,,,,,,,,,,,,,,,,,,,,w,1,1.1908,9,FALSE,TRUE,2,0,8,3,1,,,,,,,
,,,,,,0,1.772281716,#f3af84,,left_orange.png,q,,,,,,w,left_blue.png,left_orange.png,q,left,610536bd3533c7e93ce89d2f,001,2021-08-09_09h18.53.795,arrow_simon_norep,2021.1.2,MacIntel,60.0024001,,,,,,,,,,,,,,,,,,,,,q,1,1.5351,10,FALSE,FALSE,2,1,9,2,1,,,,,,,
,,,,,,0,1.609115069,#a3d0fb,,right_blue.png,o,,,,,,o,right_blue.png,right_orange.png,p,right,610536bd3533c7e93ce89d2f,001,2021-08-09_09h18.53.795,arrow_simon_norep,2021.1.2,MacIntel,60.0024001,,,,,,,,,,,,,,,,,,,,,o,1,1.152,11,FALSE,TRUE,2,2,10,1,1,,,,,,,
,,,,,,0,2.378826347,#f3af84,,left_orange.png,q,,,,,,w,left_blue.png,left_orange.png,q,left,610536bd3533c7e93ce89d2f,001,2021-08-09_09h18.53.795,arrow_simon_norep,2021.1.2,MacIntel,60.0024001,,,,,,,,,,,,,,,,,,,,,q,1,1.8735,12,TRUE,FALSE,2,3,11,2,1,,,,,,,
,,,,,,0,1.870876091,#a3d0fb,,left_blue.png,w,,,,,,w,left_blue.png,left_orange.png,q,right,610536bd3533c7e93ce89d2f,001,2021-08-09_09h18.53.795,arrow_simon_norep,2021.1.2,MacIntel,60.0024001,,,,,,,,,,,,,,,,,,,,,w,1,1.4006,13,FALSE,FALSE,3,0,12,3,1,,,,,,,
,,,,,,0,2.049545659,#f3af84,,right_orange.png,p,,,,,,o,right_blue.png,right_orange.png,p,left,610536bd3533c7e93ce89d2f,001,2021-08-09_09h18.53.795,arrow_simon_norep,2021.1.2,MacIntel,60.0024001,,,,,,,,,,,,,,,,,,,,,p,1,1.7238,14,TRUE,FALSE,3,1,13,0,1,,,,,,,
,,,,,,0,2.074955198,#a3d0fb,,left_blue.png,w,,,,,,w,left_blue.png,left_orange.png,q,left,610536bd3533c7e93ce89d2f,001,2021-08-09_09h18.53.795,arrow_simon_norep,2021.1.2,MacIntel,60.0024001,,,,,,,,,,,,,,,,,,,,,w,1,1.6065,15,TRUE,FALSE,3,2,14,2,1,,,,,,,
,,,,,,0,2.127467793,#f3af84,,left_orange.png,q,,,,,,w,left_blue.png,left_orange.png,q,left,610536bd3533c7e93ce89d2f,001,2021-08-09_09h18.53.795,arrow_simon_norep,2021.1.2,MacIntel,60.0024001,,,,,,,,,,,,,,,,,,,,,q,1,1.5674,16,FALSE,FALSE,3,3,15,2,1,,,,,,,
,,,,,,0,1.981293004,#a3d0fb,,right_blue.png,o,,,,,,o,right_blue.png,right_orange.png,p,left,610536bd3533c7e93ce89d2f,001,2021-08-09_09h18.53.795,arrow_simon_norep,2021.1.2,MacIntel,60.0024001,,,,,,,,,,,,,,,,,,,,,o,1,1.7011,17,TRUE,FALSE,4,0,16,0,1,,,,,,,
,,,,,,0,1.741553174,#f3af84,,right_orange.png,p,,,,,,o,right_blue.png,right_orange.png,p,right,610536bd3533c7e93ce89d2f,001,2021-08-09_09h18.53.795,arrow_simon_norep,2021.1.2,MacIntel,60.0024001,,,,,,,,,,,,,,,,,,,,,p,1,1.2353,18,FALSE,TRUE,4,1,17,1,1,,,,,,,
,,,,,,0,1.650221079,#a3d0fb,,right_blue.png,o,,,,,,o,right_blue.png,right_orange.png,p,right,610536bd3533c7e93ce89d2f,001,2021-08-09_09h18.53.795,arrow_simon_norep,2021.1.2,MacIntel,60.0024001,,,,,,,,,,,,,,,,,,,,,o,1,1.2168,19,FALSE,TRUE,4,2,18,1,1,,,,,,,
,,,,,,0,1.657226257,#f3af84,,left_orange.png,q,,,,,,w,left_blue.png,left_orange.png,q,right,610536bd3533c7e93ce89d2f,001,2021-08-09_09h18.53.795,arrow_simon_norep,2021.1.2,MacIntel,60.0024001,,,,,,,,,,,,,,,,,,,,,q,1,1.5673,20,FALSE,FALSE,4,3,19,3,1,,,,,,,
,,,,,,0,2.386662972,#a3d0fb,,left_blue.png,w,,,,,,w,left_blue.png,left_orange.png,q,left,610536bd3533c7e93ce89d2f,001,2021-08-09_09h18.53.795,arrow_simon_norep,2021.1.2,MacIntel,60.0024001,,,,,,,,,,,,,,,,,,,,,w,1,1.6668,21,TRUE,FALSE,5,0,20,2,1,,,,,,,
,,,,,,0,1.673603852,#f3af84,,right_orange.png,p,,,,,,o,right_blue.png,right_orange.png,p,right,610536bd3533c7e93ce89d2f,001,2021-08-09_09h18.53.795,arrow_simon_norep,2021.1.2,MacIntel,60.0024001,,,,,,,,,,,,,,,,,,,,,p,1,1.1506,22,FALSE,TRUE,5,1,21,1,1,,,,,,,
,,,,,,0,1.71867324,#a3d0fb,,right_blue.png,o,,,,,,o,right_blue.png,right_orange.png,p,left,610536bd3533c7e93ce89d2f,001,2021-08-09_09h18.53.795,arrow_simon_norep,2021.1.2,MacIntel,60.0024001,,,,,,,,,,,,,,,,,,,,,o,1,1.3845,23,FALSE,TRUE,5,2,22,0,1,,,,,,,
,,,,,,0,2.399691002,#f3af84,,left_orange.png,q,,,,,,w,left_blue.png,left_orange.png,q,right,610536bd3533c7e93ce89d2f,001,2021-08-09_09h18.53.795,arrow_simon_norep,2021.1.2,MacIntel,60.0024001,,,,,,,,,,,,,,,,,,,,,q,1,1.7519,24,TRUE,FALSE,5,3,23,3,1,,,,,,,
,,,,,,0,2.33492205,#a3d0fb,,left_blue.png,w,,,,,,w,left_blue.png,left_orange.png,q,left,610536bd3533c7e93ce89d2f,001,2021-08-09_09h18.53.795,arrow_simon_norep,2021.1.2,MacIntel,60.0024001,,,,,,,,,,,,,,,,,,,,,w,1,1.7844,25,TRUE,FALSE,6,0,24,2,1,,,,,,,
,,,,,,0,2.192306078,#f3af84,,left_orange.png,q,,,,,,w,left_blue.png,left_orange.png,q,left,610536bd3533c7e93ce89d2f,001,2021-08-09_09h18.53.795,arrow_simon_norep,2021.1.2,MacIntel,60.0024001,,,,,,,,,,,,,,,,,,,,,q,1,1.7337,26,TRUE,FALSE,6,1,25,2,1,,,,,,,
,,,,,,0,2.160308546,#a3d0fb,,left_blue.png,w,,,,,,w,left_blue.png,left_orange.png,q,right,610536bd3533c7e93ce89d2f,001,2021-08-09_09h18.53.795,arrow_simon_norep,2021.1.2,MacIntel,60.0024001,,,,,,,,,,,,,,,,,,,,,w,1,1.583,27,FALSE,FALSE,6,2,26,3,1,,,,,,,
,,,,,,0,2.130149134,#f3af84,,left_orange.png,q,,,,,,w,left_blue.png,left_orange.png,q,left,610536bd3533c7e93ce89d2f,001,2021-08-09_09h18.53.795,arrow_simon_norep,2021.1.2,MacIntel,60.0024001,,,,,,,,,,,,,,,,,,,,,q,1,1.4861,28,FALSE,FALSE,6,3,27,2,1,,,,,,,
,,,,,,0,1.890558863,#a3d0fb,,right_blue.png,o,,,,,,o,right_blue.png,right_orange.png,p,left,610536bd3533c7e93ce89d2f,001,2021-08-09_09h18.53.795,arrow_simon_norep,2021.1.2,MacIntel,60.0024001,,,,,,,,,,,,,,,,,,,,,o,1,1.3326,29,FALSE,TRUE,7,0,28,0,1,,,,,,,
,,,,,,0,1.65983875,#f3af84,,right_orange.png,p,,,,,,o,right_blue.png,right_orange.png,p,right,610536bd3533c7e93ce89d2f,001,2021-08-09_09h18.53.795,arrow_simon_norep,2021.1.2,MacIntel,60.0024001,,,,,,,,,,,,,,,,,,,,,p,1,1.6001,30,TRUE,FALSE,7,1,29,1,1,,,,,,,
,,,,,,0,2.018850234,#a3d0fb,,right_blue.png,o,,,,,,o,right_blue.png,right_orange.png,p,right,610536bd3533c7e93ce89d2f,001,2021-08-09_09h18.53.795,arrow_simon_norep,2021.1.2,MacIntel,60.0024001,,,,,,,,,,,,,,,,,,,,,o,1,1.4873,31,FALSE,FALSE,7,2,30,1,1,,,,,,,
,,,,,,0,1.507824075,#f3af84,,left_orange.png,q,,,,,,w,left_blue.png,left_orange.png,q,right,610536bd3533c7e93ce89d2f,001,2021-08-09_09h18.53.795,arrow_simon_norep,2021.1.2,MacIntel,60.0024001,,,,,,,,,,,,,,,,,,,,,q,1,1.4348,32,FALSE,FALSE,7,3,31,3,1,,,,,,,
,,,,,,0,1.684185685,#a3d0fb,,left_blue.png,w,,,,,,w,left_blue.png,left_orange.png,q,right,610536bd3533c7e93ce89d2f,001,2021-08-09_09h18.53.795,arrow_simon_norep,2021.1.2,MacIntel,60.0024001,,,,,,,,,,,,,,,,,,,,,w,1,1.4515,33,FALSE,FALSE,8,0,32,3,1,,,,,,,
,,,,,,0,2.047725267,#f3af84,,left_orange.png,q,,,,,,w,left_blue.png,left_orange.png,q,right,610536bd3533c7e93ce89d2f,001,2021-08-09_09h18.53.795,arrow_simon_norep,2021.1.2,MacIntel,60.0024001,,,,,,,,,,,,,,,,,,,,,q,1,1.7509,34,TRUE,FALSE,8,1,33,3,1,,,,,,,
,,,,,,0,2.094799464,#a3d0fb,,left_blue.png,w,,,,,,w,left_blue.png,left_orange.png,q,right,610536bd3533c7e93ce89d2f,001,2021-08-09_09h18.53.795,arrow_simon_norep,2021.1.2,MacIntel,60.0024001,,,,,,,,,,,,,,,,,,,,,w,1,1.684,35,TRUE,FALSE,8,2,34,3,1,,,,,,,
,,,,,,0,1.745428407,#f3af84,,left_orange.png,q,,,,,,w,left_blue.png,left_orange.png,q,right,610536bd3533c7e93ce89d2f,001,2021-08-09_09h18.53.795,arrow_simon_norep,2021.1.2,MacIntel,60.0024001,,,,,,,,,,,,,,,,,,,,,q,1,1.1843,36,FALSE,TRUE,8,3,35,3,1,,,,,,,
,,,,,,0,2.330819563,#a3d0fb,,right_blue.png,o,,,,,,o,right_blue.png,right_orange.png,p,right,610536bd3533c7e93ce89d2f,001,2021-08-09_09h18.53.795,arrow_simon_norep,2021.1.2,MacIntel,60.0024001,,,,,,,,,,,,,,,,,,,,,o,1,1.6662,37,TRUE,FALSE,9,0,36,1,1,,,,,,,
,,,,,,0,1.660703206,#f3af84,,right_orange.png,p,,,,,,o,right_blue.png,right_orange.png,p,left,610536bd3533c7e93ce89d2f,001,2021-08-09_09h18.53.795,arrow_simon_norep,2021.1.2,MacIntel,60.0024001,,,,,,,,,,,,,,,,,,,,,p,1,1.1837,38,FALSE,TRUE,9,1,37,0,1,,,,,,,
,,,,,,0,2.034133353,#a3d0fb,,left_blue.png,w,,,,,,w,left_blue.png,left_orange.png,q,right,610536bd3533c7e93ce89d2f,001,2021-08-09_09h18.53.795,arrow_simon_norep,2021.1.2,MacIntel,60.0024001,,,,,,,,,,,,,,,,,,,,,w,1,1.7849,39,TRUE,FALSE,9,2,38,3,1,,,,,,,
,,,,,,0,1.837624046,#f3af84,,right_orange.png,p,,,,,,o,right_blue.png,right_orange.png,p,left,610536bd3533c7e93ce89d2f,001,2021-08-09_09h18.53.795,arrow_simon_norep,2021.1.2,MacIntel,60.0024001,,,,,,,,,,,,,,,,,,,,,p,1,1.3674,40,FALSE,TRUE,9,3,39,0,1,,,,,,,
,,,,,,0,1.690852933,#a3d0fb,,right_blue.png,o,,,,,,o,right_blue.png,right_orange.png,p,left,610536bd3533c7e93ce89d2f,001,2021-08-09_09h18.53.795,arrow_simon_norep,2021.1.2,MacIntel,60.0024001,,,,,,,,,,,,,,,,,,,,,o,1,1.3831,41,FALSE,TRUE,10,0,40,0,1,,,,,,,
,,,,,,0,1.547203715,#f3af84,,right_orange.png,p,,,,,,o,right_blue.png,right_orange.png,p,left,610536bd3533c7e93ce89d2f,001,2021-08-09_09h18.53.795,arrow_simon_norep,2021.1.2,MacIntel,60.0024001,,,,,,,,,,,,,,,,,,,,,p,1,1.6339,42,TRUE,FALSE,10,1,41,0,1,,,,,,,
,,,,,,0,1.887532814,#a3d0fb,,left_blue.png,w,,,,,,w,left_blue.png,left_orange.png,q,right,610536bd3533c7e93ce89d2f,001,2021-08-09_09h18.53.795,arrow_simon_norep,2021.1.2,MacIntel,60.0024001,,,,,,,,,,,,,,,,,,,,,w,1,1.217,43,FALSE,TRUE,10,2,42,3,1,,,,,,,
,,,,,,0,1.506606358,#f3af84,,left_orange.png,q,,,,,,w,left_blue.png,left_orange.png,q,left,610536bd3533c7e93ce89d2f,001,2021-08-09_09h18.53.795,arrow_simon_norep,2021.1.2,MacIntel,60.0024001,,,,,,,,,,,,,,,,,,,,,q,1,1.0041,44,FALSE,TRUE,10,3,43,2,1,,,,,,,
,,,,,,0,2.336897536,#a3d0fb,,left_blue.png,w,,,,,,w,left_blue.png,left_orange.png,q,right,610536bd3533c7e93ce89d2f,001,2021-08-09_09h18.53.795,arrow_simon_norep,2021.1.2,MacIntel,60.0024001,,,,,,,,,,,,,,,,,,,,,o,0,1.6376,45,TRUE,FALSE,11,0,44,3,1,,,,,,,
,,,,,,0,2.043347507,#f3af84,,right_orange.png,p,,,,,,o,right_blue.png,right_orange.png,p,right,610536bd3533c7e93ce89d2f,001,2021-08-09_09h18.53.795,arrow_simon_norep,2021.1.2,MacIntel,60.0024001,,,,,,,,,,,,,,,,,,,,,p,1,1.6321,46,TRUE,FALSE,11,1,45,1,1,,,,,,,
,,,,,,0,1.926423043,#a3d0fb,,right_blue.png,o,,,,,,o,right_blue.png,right_orange.png,p,left,610536bd3533c7e93ce89d2f,001,2021-08-09_09h18.53.795,arrow_simon_norep,2021.1.2,MacIntel,60.0024001,,,,,,,,,,,,,,,,,,,,,o,1,1.3855,47,FALSE,TRUE,11,2,46,0,1,,,,,,,
,,,,,,0,1.827793511,#f3af84,,left_orange.png,q,,,,,,w,left_blue.png,left_orange.png,q,left,610536bd3533c7e93ce89d2f,001,2021-08-09_09h18.53.795,arrow_simon_norep,2021.1.2,MacIntel,60.0024001,,,,,,,,,,,,,,,,,,,,,q,1,1.2708,48,FALSE,TRUE,11,3,47,2,1,,,,,,,
